timestamp_ms,recv_timestamp_ms,pitch,roll,yaw,flex1,flex2,flex3,flex4,flex5,sampling_hz,accel_x,accel_y,accel_z
201914,1755607602354,5.78,-155.85,-13.24,794,779,775,411,878,47.61904761904762,-0.084,-0.399,-0.912
201943,1755607602356,5.7,-155.89,-13.26,794,775,783,347,885,34.48275862068966,-0.085,-0.399,-0.912
201973,1755607602358,5.66,-155.89,-13.27,798,775,784,348,871,33.333333333333336,-0.088,-0.399,-0.909
202002,1755607602360,5.63,-155.87,-13.27,795,776,787,397,880,34.48275862068966,-0.089,-0.4,-0.91
202032,1755607602362,5.6,-155.9,-13.28,791,777,776,398,876,33.333333333333336,-0.09,-0.401,-0.911
202061,1755607602364,5.59,-155.94,-13.26,796,779,783,353,874,34.48275862068966,-0.092,-0.4,-0.909
202091,1755607602366,5.6,-155.95,-13.24,796,774,783,332,878,33.333333333333336,-0.09,-0.4,-0.908
202120,1755607602368,5.64,-155.94,-13.21,795,779,783,339,875,34.48275862068966,-0.09,-0.4,-0.907
202150,1755607602370,5.65,-155.92,-13.18,794,773,784,390,878,33.333333333333336,-0.09,-0.399,-0.909
202179,1755607602373,5.66,-155.94,-13.16,797,776,781,380,879,34.48275862068966,-0.089,-0.398,-0.91
202209,1755607602375,5.64,-155.96,-13.15,795,776,783,334,877,33.333333333333336,-0.089,-0.398,-0.91
202239,1755607602377,5.62,-155.94,-13.13,790,774,785,351,879,33.333333333333336,-0.088,-0.396,-0.908
202269,1755607602379,5.6,-155.9,-13.14,798,773,787,410,877,33.333333333333336,-0.087,-0.397,-0.909
202298,1755607602381,5.56,-155.91,-13.15,793,778,786,413,880,34.48275862068966,-0.089,-0.398,-0.911
202328,1755607602383,5.55,-155.93,-13.15,794,782,786,365,875,33.333333333333336,-0.089,-0.398,-0.909
202357,1755607602385,5.5,-155.83,-13.14,792,774,784,327,879,34.48275862068966,-0.087,-0.397,-0.91
202387,1755607602387,5.34,-155.7,-13.16,796,778,784,381,884,33.333333333333336,-0.086,-0.395,-0.914
202417,1755607602389,5.12,-155.58,-13.23,792,768,779,410,880,33.333333333333336,-0.086,-0.394,-0.911
202446,1755607602391,4.97,-155.44,-13.3,792,776,782,375,874,34.48275862068966,-0.09,-0.399,-0.908
202466,1755607602393,4.91,-155.33,-13.33,793,773,781,386,879,50.0,-0.1,-0.412,-0.907
202496,1755607602395,5.01,-155.22,-13.14,795,775,784,376,887,33.333333333333336,-0.12,-0.423,-0.905
202516,1755607602397,5.18,-155.17,-12.92,797,778,786,395,881,50.0,-0.129,-0.424,-0.899
202546,1755607602398,5.52,-155.04,-12.53,795,777,796,380,880,33.333333333333336,-0.129,-0.421,-0.895
202575,1755607602401,5.72,-154.79,-12.11,791,774,801,326,876,34.48275862068966,-0.115,-0.417,-0.898
202605,1755607602403,5.8,-154.59,-11.83,796,778,784,349,876,33.333333333333336,-0.101,-0.416,-0.902
202634,1755607602405,5.79,-154.43,-11.53,794,775,786,416,873,34.48275862068966,-0.088,-0.412,-0.901
202654,1755607602407,5.78,-154.28,-11.37,798,776,778,346,877,50.0,-0.074,-0.41,-0.899
202684,1755607602409,5.58,-154.05,-11.26,793,769,783,408,880,33.333333333333336,-0.064,-0.409,-0.9
202713,1755607602410,5.23,-153.79,-11.28,796,779,792,374,874,34.48275862068966,-0.062,-0.414,-0.902
202743,1755607602413,4.84,-153.52,-11.36,796,775,780,324,872,33.333333333333336,-0.072,-0.421,-0.904
202772,1755607602414,4.52,-153.3,-11.43,796,776,782,338,909,34.48275862068966,-0.088,-0.427,-0.901
202802,1755607602417,4.35,-153.21,-11.51,796,781,786,402,876,33.333333333333336,-0.102,-0.431,-0.895
202832,1755607602419,4.37,-153.18,-11.54,793,779,784,427,877,33.333333333333336,-0.115,-0.436,-0.887
202861,1755607602421,4.48,-153.01,-11.47,791,778,780,366,878,34.48275862068966,-0.123,-0.441,-0.881
202891,1755607602423,4.5,-152.76,-11.3,795,776,779,329,879,33.333333333333336,-0.123,-0.443,-0.882
202920,1755607602425,4.54,-152.67,-11.19,797,778,781,373,884,34.48275862068966,-0.115,-0.443,-0.88
202950,1755607602427,4.56,-152.6,-11.13,793,776,782,400,881,33.333333333333336,-0.109,-0.446,-0.88
202980,1755607602429,4.52,-152.54,-11.17,800,778,780,389,875,33.333333333333336,-0.106,-0.45,-0.884
203009,1755607602431,4.34,-152.5,-11.22,796,772,783,337,876,34.48275862068966,-0.108,-0.452,-0.883
203039,1755607602433,4.15,-152.46,-11.29,790,779,781,354,877,33.333333333333336,-0.108,-0.452,-0.88
203068,1755607602436,4.0,-152.43,-11.35,797,775,787,404,882,34.48275862068966,-0.113,-0.455,-0.877
203098,1755607602438,3.9,-152.37,-11.43,791,771,784,400,877,33.333333333333336,-0.12,-0.459,-0.876
203127,1755607602440,3.79,-152.31,-11.44,791,779,785,313,877,34.48275862068966,-0.129,-0.462,-0.874
203157,1755607602442,3.68,-152.17,-11.38,796,777,780,324,883,33.333333333333336,-0.134,-0.463,-0.871
203187,1755607602444,3.67,-152.09,-11.38,797,775,785,388,872,33.333333333333336,-0.132,-0.463,-0.87
203216,1755607602446,3.72,-152.1,-11.38,794,773,783,420,878,34.48275862068966,-0.138,-0.466,-0.869
203245,1755607602448,3.76,-152.03,-11.35,797,772,787,380,877,34.48275862068966,-0.138,-0.467,-0.868
203275,1755607602450,3.8,-151.99,-11.34,795,776,781,346,878,33.333333333333336,-0.137,-0.467,-0.868
203305,1755607602452,3.86,-151.96,-11.34,795,775,785,362,879,33.333333333333336,-0.139,-0.468,-0.867
203334,1755607602454,3.9,-151.93,-11.34,794,780,782,407,876,34.48275862068966,-0.14,-0.467,-0.867
203364,1755607602456,3.95,-151.94,-11.37,796,777,783,415,883,33.333333333333336,-0.143,-0.468,-0.868
203394,1755607602458,3.95,-151.9,-11.36,798,778,785,351,875,33.333333333333336,-0.143,-0.468,-0.868
203424,1755607602460,4.01,-151.9,-11.37,795,776,783,344,876,33.333333333333336,-0.146,-0.47,-0.866
203453,1755607602462,4.05,-151.86,-11.34,797,771,783,389,879,34.48275862068966,-0.147,-0.471,-0.867
203482,1755607602464,4.1,-151.86,-11.33,797,777,783,420,880,34.48275862068966,-0.145,-0.471,-0.869
203512,1755607602466,4.14,-151.86,-11.34,795,777,788,376,873,33.333333333333336,-0.146,-0.471,-0.865
203541,1755607602468,4.14,-151.8,-11.34,791,793,785,329,878,34.48275862068966,-0.144,-0.471,-0.865
203571,1755607602470,4.17,-151.75,-11.34,789,769,780,359,880,33.333333333333336,-0.148,-0.471,-0.866
203600,1755607602472,4.22,-151.73,-11.31,791,778,785,371,878,34.48275862068966,-0.153,-0.474,-0.865
203630,1755607602474,4.34,-151.72,-11.27,794,777,785,378,880,33.333333333333336,-0.154,-0.473,-0.863
203659,1755607602476,4.49,-151.69,-11.24,793,778,784,339,874,34.48275862068966,-0.155,-0.472,-0.861
203689,1755607602478,4.63,-151.61,-11.2,791,772,786,344,880,33.333333333333336,-0.152,-0.471,-0.863
203718,1755607602480,4.75,-151.6,-11.19,792,769,783,398,875,34.48275862068966,-0.152,-0.472,-0.865
203739,1755607602482,4.84,-151.6,-11.16,796,771,785,342,880,47.61904761904762,-0.151,-0.473,-0.865
203768,1755607602484,4.94,-151.6,-11.15,796,771,778,387,879,34.48275862068966,-0.149,-0.472,-0.864
203798,1755607602486,5.03,-151.61,-11.16,793,776,792,409,874,33.333333333333336,-0.15,-0.473,-0.865
203827,1755607602488,5.08,-151.58,-11.14,795,775,779,363,877,34.48275862068966,-0.149,-0.471,-0.865
203857,1755607602491,5.15,-151.56,-11.13,795,778,786,325,876,33.333333333333336,-0.151,-0.472,-0.863
203887,1755607602493,5.23,-151.53,-11.13,794,776,785,360,876,33.333333333333336,-0.15,-0.472,-0.864
203916,1755607602495,5.3,-151.53,-11.12,793,768,786,408,880,34.48275862068966,-0.152,-0.473,-0.864
203946,1755607602497,5.37,-151.49,-11.09,793,774,787,382,876,33.333333333333336,-0.151,-0.473,-0.863
203975,1755607602499,5.43,-151.43,-11.08,791,773,785,338,878,34.48275862068966,-0.15,-0.472,-0.864
204005,1755607602501,5.47,-151.42,-11.09,792,776,780,338,879,33.333333333333336,-0.149,-0.473,-0.865
204034,1755607602503,5.46,-151.41,-11.08,792,777,784,409,878,34.48275862068966,-0.148,-0.473,-0.866
204064,1755607602505,5.45,-151.38,-11.08,795,780,788,403,876,33.333333333333336,-0.147,-0.473,-0.864
204093,1755607602507,5.48,-151.37,-11.11,794,781,781,358,876,34.48275862068966,-0.149,-0.473,-0.864
204123,1755607602509,5.49,-151.34,-11.11,790,773,782,330,874,33.333333333333336,-0.151,-0.475,-0.864
204152,1755607602512,5.51,-151.31,-11.1,792,781,784,384,880,34.48275862068966,-0.152,-0.475,-0.864
204182,1755607602514,5.51,-151.28,-11.06,790,777,779,406,879,33.333333333333336,-0.153,-0.476,-0.863
204212,1755607602516,5.55,-151.26,-11.06,795,790,782,367,878,33.333333333333336,-0.152,-0.476,-0.862
204241,1755607602518,5.62,-151.25,-11.06,793,778,787,328,879,34.48275862068966,-0.153,-0.476,-0.862
204270,1755607602520,5.64,-151.23,-11.05,792,776,789,369,879,34.48275862068966,-0.155,-0.477,-0.864
204300,1755607602522,5.65,-151.24,-11.04,797,775,783,402,878,33.333333333333336,-0.156,-0.478,-0.863
204329,1755607602524,5.7,-151.24,-11.02,796,775,782,375,874,34.48275862068966,-0.155,-0.477,-0.86
204359,1755607602526,5.78,-151.24,-11.01,795,779,781,320,878,33.333333333333336,-0.155,-0.477,-0.861
204388,1755607602529,5.84,-151.21,-10.99,795,785,784,328,880,34.48275862068966,-0.156,-0.477,-0.862
204418,1755607602531,5.88,-151.19,-10.97,795,774,784,391,877,33.333333333333336,-0.157,-0.477,-0.862
204448,1755607602533,5.88,-151.19,-10.96,794,778,781,368,898,33.333333333333336,-0.154,-0.475,-0.863
204477,1755607602535,5.92,-151.19,-10.96,798,779,776,339,881,34.48275862068966,-0.157,-0.475,-0.861
204507,1755607602537,5.97,-151.19,-10.98,794,776,784,332,876,33.333333333333336,-0.155,-0.476,-0.861
204536,1755607602539,5.98,-151.16,-10.96,794,771,782,384,879,34.48275862068966,-0.157,-0.476,-0.861
204566,1755607602541,6.02,-151.14,-10.96,793,777,785,407,874,33.333333333333336,-0.158,-0.476,-0.861
204595,1755607602543,6.07,-151.13,-10.96,797,771,785,389,884,34.48275862068966,-0.159,-0.476,-0.86
204625,1755607602545,6.11,-151.11,-10.96,791,772,783,345,879,33.333333333333336,-0.159,-0.476,-0.861
204655,1755607602547,6.14,-151.1,-10.95,796,769,778,359,874,33.333333333333336,-0.16,-0.477,-0.861
204684,1755607602549,6.22,-151.09,-10.93,796,775,784,424,881,34.48275862068966,-0.161,-0.478,-0.859
204713,1755607602552,6.35,-151.07,-10.89,795,777,786,407,880,34.48275862068966,-0.162,-0.478,-0.859
204743,1755607602554,6.48,-151.05,-10.86,792,785,782,343,878,33.333333333333336,-0.161,-0.478,-0.86
204772,1755607602556,6.55,-151.04,-10.82,796,777,780,349,879,34.48275862068966,-0.157,-0.475,-0.861
204802,1755607602558,6.6,-151.04,-10.83,796,778,777,406,873,33.333333333333336,-0.155,-0.475,-0.862
204831,1755607602559,6.63,-151.03,-10.83,791,780,802,416,879,34.48275862068966,-0.155,-0.475,-0.863
204861,1755607602561,6.62,-151.06,-10.83,791,772,780,369,874,33.333333333333336,-0.157,-0.477,-0.864
204891,1755607602563,6.65,-151.07,-10.83,790,775,784,347,876,33.333333333333336,-0.159,-0.477,-0.86
204920,1755607602566,6.77,-151.05,-10.84,796,778,784,383,879,34.48275862068966,-0.161,-0.477,-0.858
204950,1755607602568,6.85,-151.03,-10.8,797,781,781,421,878,33.333333333333336,-0.161,-0.478,-0.861
204980,1755607602570,6.92,-151.07,-10.77,795,778,779,402,877,33.333333333333336,-0.159,-0.477,-0.861
205009,1755607602572,7.0,-151.08,-10.75,795,777,784,355,881,34.48275862068966,-0.157,-0.476,-0.859
205039,1755607602574,7.05,-151.05,-10.73,792,775,784,336,877,33.333333333333336,-0.157,-0.475,-0.861
205068,1755607602576,7.08,-151.02,-10.7,791,778,780,395,881,34.48275862068966,-0.157,-0.474,-0.863
205098,1755607602578,7.09,-151.05,-10.72,793,777,777,396,875,33.333333333333336,-0.155,-0.474,-0.862
205127,1755607602580,7.09,-151.04,-10.71,798,775,785,337,878,34.48275862068966,-0.153,-0.474,-0.859
205157,1755607602582,7.11,-151.0,-10.73,795,775,780,320,871,33.333333333333336,-0.153,-0.474,-0.861
205186,1755607602584,7.07,-150.97,-10.76,797,777,784,375,872,34.48275862068966,-0.154,-0.473,-0.862
205216,1755607602586,7.02,-150.95,-10.79,798,770,783,403,872,33.333333333333336,-0.154,-0.474,-0.862
205245,1755607602588,6.95,-150.9,-10.81,789,771,780,382,877,34.48275862068966,-0.154,-0.475,-0.861
205275,1755607602591,6.89,-150.84,-10.84,796,775,782,346,879,33.333333333333336,-0.157,-0.476,-0.859
205305,1755607602593,6.83,-150.8,-10.86,795,774,783,351,876,33.333333333333336,-0.158,-0.479,-0.862
205334,1755607602595,6.77,-150.79,-10.85,796,776,784,420,880,34.48275862068966,-0.16,-0.481,-0.86
205364,1755607602597,6.74,-150.72,-10.82,798,780,782,407,879,33.333333333333336,-0.163,-0.481,-0.857
205394,1755607602599,6.69,-150.62,-10.74,796,775,784,351,879,33.333333333333336,-0.167,-0.479,-0.856
205423,1755607602601,6.7,-150.53,-10.71,798,776,781,328,879,34.48275862068966,-0.163,-0.48,-0.857
205453,1755607602603,6.67,-150.5,-10.71,792,777,786,399,879,33.333333333333336,-0.164,-0.483,-0.86
205482,1755607602605,6.53,-150.44,-10.64,793,780,781,424,876,34.48275862068966,-0.167,-0.485,-0.861
205512,1755607602607,6.32,-150.32,-10.56,795,775,785,362,879,33.333333333333336,-0.164,-0.486,-0.858
205541,1755607602609,6.3,-150.31,-10.59,794,776,782,336,879,34.48275862068966,-0.167,-0.485,-0.852
205570,1755607602611,6.33,-150.27,-10.58,795,780,784,360,877,34.48275862068966,-0.175,-0.486,-0.85
205600,1755607602613,6.34,-150.17,-10.53,791,778,786,407,879,33.333333333333336,-0.179,-0.477,-0.851
205629,1755607602615,6.35,-150.14,-10.56,790,777,788,399,872,34.48275862068966,-0.18,-0.477,-0.85
205659,1755607602617,6.35,-150.13,-10.56,797,774,783,348,873,33.333333333333336,-0.18,-0.48,-0.851
205689,1755607602619,6.29,-150.11,-10.56,791,771,784,344,901,33.333333333333336,-0.181,-0.484,-0.851
205718,1755607602621,6.21,-150.07,-10.55,790,778,784,414,883,34.48275862068966,-0.178,-0.484,-0.853
205748,1755607602623,6.12,-150.1,-10.59,793,776,783,412,877,33.333333333333336,-0.182,-0.486,-0.854
205777,1755607602625,6.05,-150.22,-10.61,795,783,784,362,873,34.48275862068966,-0.19,-0.488,-0.848
205807,1755607602627,6.08,-150.18,-10.58,794,782,784,325,878,33.333333333333336,-0.192,-0.488,-0.841
205827,1755607602629,6.18,-150.11,-10.57,793,772,778,342,878,50.0,-0.191,-0.49,-0.839
205856,1755607602630,6.36,-150.07,-10.56,797,779,783,335,877,34.48275862068966,-0.196,-0.493,-0.841
205886,1755607602633,6.54,-150.06,-10.5,793,778,784,383,871,33.333333333333336,-0.198,-0.494,-0.845
205916,1755607602634,6.7,-150.09,-10.44,789,770,780,424,877,33.333333333333336,-0.197,-0.496,-0.846
205945,1755607602636,6.85,-150.08,-10.34,795,768,779,400,875,34.48275862068966,-0.197,-0.494,-0.84
205975,1755607602639,7.04,-149.96,-10.26,794,775,787,342,878,33.333333333333336,-0.194,-0.493,-0.84
206005,1755607602641,7.21,-149.95,-10.22,791,781,785,364,881,33.333333333333336,-0.192,-0.492,-0.847
206025,1755607602643,7.3,-150.01,-10.22,791,776,784,380,875,50.0,-0.186,-0.49,-0.852
206055,1755607602645,7.31,-150.1,-10.26,790,777,785,364,872,33.333333333333336,-0.187,-0.488,-0.852
206084,1755607602647,7.24,-150.11,-10.29,794,779,783,428,879,34.48275862068966,-0.186,-0.486,-0.851
206104,1755607602649,7.2,-150.11,-10.31,797,780,783,347,877,50.0,-0.189,-0.487,-0.851
206134,1755607602651,7.13,-150.16,-10.33,796,780,779,412,881,33.333333333333336,-0.19,-0.488,-0.85
206164,1755607602653,7.12,-150.19,-10.31,796,772,788,389,877,33.333333333333336,-0.193,-0.49,-0.844
206194,1755607602654,7.23,-150.19,-10.29,797,779,780,365,875,33.333333333333336,-0.197,-0.491,-0.84
206214,1755607602656,7.38,-150.15,-10.25,796,776,781,394,879,50.0,-0.205,-0.493,-0.84
206243,1755607602658,7.57,-150.14,-10.14,796,780,779,340,876,34.48275862068966,-0.21,-0.493,-0.844
206263,1755607602660,7.73,-150.15,-10.04,790,773,779,391,874,50.0,-0.21,-0.492,-0.846
206293,1755607602662,7.94,-150.21,-9.92,791,780,780,323,876,33.333333333333336,-0.205,-0.491,-0.844
206322,1755607602664,8.2,-150.22,-9.82,795,780,781,344,879,34.48275862068966,-0.2,-0.49,-0.84
206352,1755607602666,8.42,-150.15,-9.73,798,770,785,408,878,33.333333333333336,-0.193,-0.487,-0.848
206381,1755607602668,8.45,-150.13,-9.67,796,777,785,405,880,34.48275862068966,-0.182,-0.484,-0.859
206411,1755607602670,8.33,-150.2,-9.74,795,778,783,356,877,33.333333333333336,-0.178,-0.482,-0.858
206440,1755607602672,8.19,-150.19,-9.87,793,774,784,331,880,34.48275862068966,-0.176,-0.483,-0.855
206470,1755607602675,8.02,-150.13,-9.97,796,779,788,366,875,33.333333333333336,-0.185,-0.483,-0.855
206500,1755607602677,7.78,-150.13,-10.01,796,779,784,403,877,33.333333333333336,-0.19,-0.485,-0.856
206529,1755607602679,7.68,-150.25,-10.07,792,775,786,384,914,34.48275862068966,-0.195,-0.486,-0.852
206559,1755607602681,7.67,-150.28,-10.08,792,769,784,330,884,33.333333333333336,-0.2,-0.487,-0.844
206588,1755607602683,7.7,-150.21,-10.06,790,773,782,340,874,34.48275862068966,-0.202,-0.487,-0.844
206618,1755607602685,7.69,-150.18,-10.04,794,776,783,400,872,33.333333333333336,-0.201,-0.486,-0.846
206647,1755607602687,7.72,-150.22,-10.07,798,773,786,394,876,34.48275862068966,-0.203,-0.485,-0.847
206677,1755607602689,7.77,-150.27,-10.11,793,770,786,356,879,33.333333333333336,-0.205,-0.484,-0.846
206706,1755607602691,7.88,-150.31,-10.14,792,778,786,337,879,34.48275862068966,-0.212,-0.483,-0.842
206736,1755607602693,8.12,-150.34,-10.13,789,776,786,381,878,33.333333333333336,-0.213,-0.485,-0.836
206766,1755607602695,8.48,-150.33,-10.12,795,769,785,394,876,33.333333333333336,-0.203,-0.49,-0.839
206795,1755607602697,8.64,-150.34,-10.08,797,773,783,368,876,34.48275862068966,-0.197,-0.487,-0.85
206825,1755607602699,8.6,-150.43,-10.11,796,782,787,336,877,33.333333333333336,-0.194,-0.484,-0.855
206854,1755607602701,8.61,-150.63,-10.19,791,776,785,347,895,34.48275862068966,-0.202,-0.482,-0.849
206884,1755607602703,8.74,-150.65,-10.18,792,777,780,400,882,33.333333333333336,-0.211,-0.483,-0.843
206914,1755607602705,8.95,-150.53,-10.06,796,775,786,420,877,33.333333333333336,-0.216,-0.484,-0.844
206944,1755607602707,9.16,-150.48,-9.99,797,776,777,362,876,33.333333333333336,-0.209,-0.478,-0.852
206964,1755607602709,9.34,-150.58,-9.99,796,781,784,410,875,50.0,-0.207,-0.472,-0.851
206994,1755607602711,9.65,-150.62,-9.95,797,781,785,360,880,33.333333333333336,-0.208,-0.473,-0.843
207023,1755607602713,9.97,-150.5,-9.88,795,775,783,350,876,34.48275862068966,-0.202,-0.474,-0.843
207043,1755607602715,10.16,-150.48,-9.84,796,775,781,377,877,50.0,-0.193,-0.477,-0.847
207073,1755607602717,10.42,-150.51,-9.8,795,777,783,357,874,33.333333333333336,-0.19,-0.481,-0.853
207103,1755607602719,10.58,-150.58,-9.7,796,780,780,389,877,33.333333333333336,-0.187,-0.477,-0.856
207132,1755607602721,10.71,-150.59,-9.61,797,780,786,412,876,34.48275862068966,-0.183,-0.473,-0.854
207162,1755607602723,10.81,-150.51,-9.54,794,772,784,374,877,33.333333333333336,-0.179,-0.47,-0.857
207191,1755607602724,10.91,-150.49,-9.53,795,778,783,339,870,34.48275862068966,-0.179,-0.471,-0.863
207221,1755607602727,10.9,-150.55,-9.51,794,771,785,371,875,33.333333333333336,-0.176,-0.472,-0.861
207250,1755607602729,10.86,-150.53,-9.49,796,781,786,406,872,34.48275862068966,-0.172,-0.472,-0.859
207280,1755607602731,10.78,-150.45,-9.5,793,780,783,378,877,33.333333333333336,-0.17,-0.471,-0.86
207309,1755607602733,10.65,-150.39,-9.49,792,775,784,333,880,34.48275862068966,-0.169,-0.469,-0.859
207339,1755607602735,10.48,-150.28,-9.53,795,782,780,338,882,33.333333333333336,-0.169,-0.466,-0.86
207368,1755607602737,10.19,-150.15,-9.59,794,767,785,395,878,34.48275862068966,-0.17,-0.465,-0.864
207398,1755607602739,9.82,-150.04,-9.65,792,768,787,362,895,33.333333333333336,-0.168,-0.47,-0.86
207418,1755607602741,9.59,-149.95,-9.69,794,781,786,357,875,50.0,-0.168,-0.474,-0.857
207448,1755607602743,9.3,-149.87,-9.76,792,770,785,389,878,33.333333333333336,-0.172,-0.482,-0.855
207477,1755607602745,9.1,-149.83,-9.78,791,778,784,359,873,34.48275862068966,-0.176,-0.49,-0.846
207507,1755607602747,9.11,-149.76,-9.77,794,775,784,333,880,33.333333333333336,-0.182,-0.494,-0.839
207536,1755607602749,9.2,-149.63,-9.76,790,775,786,377,881,34.48275862068966,-0.19,-0.491,-0.844
207566,1755607602751,9.21,-149.57,-9.75,789,771,782,416,869,33.333333333333336,-0.196,-0.488,-0.854
207587,1755607602753,9.16,-149.58,-9.75,792,781,782,342,874,47.61904761904762,-0.194,-0.486,-0.855
207616,1755607602755,9.02,-149.63,-9.78,797,777,785,386,879,34.48275862068966,-0.188,-0.489,-0.847
207646,1755607602757,8.95,-149.59,-9.83,795,776,779,372,877,33.333333333333336,-0.189,-0.493,-0.843
207675,1755607602759,8.93,-149.54,-9.85,792,775,784,322,873,34.48275862068966,-0.194,-0.494,-0.845
207705,1755607602761,8.92,-149.55,-9.84,795,781,784,354,879,33.333333333333336,-0.199,-0.495,-0.846
207735,1755607602763,8.91,-149.57,-9.83,797,777,784,412,876,33.333333333333336,-0.202,-0.493,-0.843
207764,1755607602765,8.94,-149.55,-9.8,796,779,785,416,878,34.48275862068966,-0.203,-0.493,-0.839
207794,1755607602767,9.01,-149.49,-9.75,794,776,783,350,879,33.333333333333336,-0.204,-0.494,-0.838
207823,1755607602769,9.06,-149.45,-9.68,791,776,785,335,880,34.48275862068966,-0.206,-0.495,-0.84
207853,1755607602771,9.13,-149.44,-9.64,792,772,783,375,873,33.333333333333336,-0.204,-0.494,-0.84
207873,1755607602773,9.2,-149.43,-9.62,793,777,784,356,886,50.0,-0.205,-0.493,-0.841
207902,1755607602775,9.24,-149.44,-9.61,797,776,786,418,875,34.48275862068966,-0.204,-0.491,-0.844
207932,1755607602778,9.21,-149.46,-9.61,793,778,785,422,878,33.333333333333336,-0.203,-0.49,-0.842
207962,1755607602780,9.17,-149.45,-9.63,796,794,783,383,872,33.333333333333336,-0.2,-0.493,-0.841
207991,1755607602782,9.2,-149.49,-9.65,794,775,781,326,875,34.48275862068966,-0.206,-0.495,-0.842
208021,1755607602783,9.2,-149.5,-9.63,794,773,786,341,887,33.333333333333336,-0.208,-0.493,-0.843
208051,1755607602786,9.25,-149.55,-9.63,793,777,782,399,880,33.333333333333336,-0.211,-0.491,-0.839
208080,1755607602787,9.32,-149.54,-9.63,796,777,786,397,874,34.48275862068966,-0.209,-0.493,-0.838
208110,1755607602790,9.37,-149.57,-9.61,796,777,783,344,877,33.333333333333336,-0.208,-0.494,-0.841
208140,1755607602792,9.38,-149.58,-9.6,793,777,783,338,876,33.333333333333336,-0.207,-0.492,-0.843
208169,1755607602793,9.4,-149.63,-9.63,795,781,785,371,873,34.48275862068966,-0.205,-0.49,-0.841
208189,1755607602795,9.43,-149.65,-9.66,793,781,780,343,876,50.0,-0.205,-0.49,-0.839
208219,1755607602797,9.44,-149.65,-9.67,793,780,781,391,879,33.333333333333336,-0.208,-0.492,-0.841
208249,1755607602800,9.41,-149.69,-9.66,795,776,780,410,879,33.333333333333336,-0.209,-0.492,-0.843
208278,1755607602801,9.42,-149.78,-9.69,797,779,781,390,880,34.48275862068966,-0.21,-0.489,-0.841
208308,1755607602804,9.45,-149.8,-9.67,795,778,787,343,876,33.333333333333336,-0.211,-0.49,-0.838
208338,1755607602806,9.53,-149.75,-9.67,797,772,786,369,872,33.333333333333336,-0.212,-0.489,-0.84
208367,1755607602808,9.61,-149.75,-9.67,795,778,779,426,875,34.48275862068966,-0.213,-0.49,-0.843
208397,1755607602810,9.63,-149.84,-9.65,796,780,787,397,878,33.333333333333336,-0.214,-0.488,-0.844
208427,1755607602812,9.62,-149.93,-9.64,795,780,783,357,875,33.333333333333336,-0.211,-0.489,-0.845
208456,1755607602814,9.6,-150.03,-9.68,796,778,783,337,883,34.48275862068966,-0.208,-0.486,-0.843
208486,1755607602816,9.62,-150.1,-9.75,793,781,783,389,874,33.333333333333336,-0.207,-0.485,-0.844
208516,1755607602818,9.61,-150.44,-10.02,796,781,786,425,874,33.333333333333336,-0.207,-0.483,-0.855
208545,1755607602820,9.44,-151.05,-10.38,792,777,783,394,885,34.48275862068966,-0.206,-0.482,-0.862
208575,1755607602822,9.2,-151.51,-10.56,791,775,784,343,877,33.333333333333336,-0.207,-0.477,-0.854
208604,1755607602824,9.1,-151.51,-10.53,798,777,782,356,884,34.48275862068966,-0.209,-0.473,-0.841
208634,1755607602826,9.17,-151.34,-10.53,796,775,784,403,884,33.333333333333336,-0.21,-0.469,-0.838
208664,1755607602828,9.31,-151.15,-10.55,798,772,789,395,876,33.333333333333336,-0.213,-0.469,-0.839
208693,1755607602830,9.48,-151.1,-10.58,796,778,785,343,882,34.48275862068966,-0.217,-0.473,-0.846
208723,1755607602832,9.65,-151.27,-10.67,795,778,780,334,884,33.333333333333336,-0.217,-0.473,-0.854
208753,1755607602834,9.79,-151.48,-10.7,797,785,780,346,883,33.333333333333336,-0.218,-0.468,-0.854
208783,1755607602837,9.84,-151.54,-10.7,796,768,786,394,882,33.333333333333336,-0.213,-0.464,-0.85
208803,1755607602839,9.87,-151.58,-10.72,796,779,784,345,882,50.0,-0.204,-0.459,-0.851
208833,1755607602841,10.04,-151.77,-10.85,795,781,783,391,917,33.333333333333336,-0.203,-0.462,-0.857
208853,1755607602843,10.15,-151.97,-10.91,796,774,779,337,884,50.0,-0.21,-0.464,-0.862
208882,1755607602846,10.26,-152.24,-10.88,795,778,787,391,881,34.48275862068966,-0.209,-0.464,-0.861
208912,1755607602848,10.48,-152.45,-10.89,793,781,786,387,879,33.333333333333336,-0.205,-0.462,-0.854
208941,1755607602849,10.76,-152.59,-10.96,793,769,778,335,873,34.48275862068966,-0.202,-0.454,-0.861
208971,1755607602852,10.99,-152.82,-11.1,790,781,784,353,885,33.333333333333336,-0.199,-0.445,-0.873
209001,1755607602853,11.01,-153.07,-11.17,797,776,783,405,883,33.333333333333336,-0.19,-0.44,-0.875
209030,1755607602856,10.93,-153.27,-11.36,794,779,786,391,881,34.48275862068966,-0.175,-0.435,-0.88
209060,1755607602858,10.75,-153.44,-11.63,793,783,782,338,880,33.333333333333336,-0.17,-0.43,-0.881
209089,1755607602859,10.73,-153.53,-11.9,793,776,784,344,882,34.48275862068966,-0.179,-0.436,-0.872
209119,1755607602862,11.18,-153.68,-12.09,792,768,781,398,876,33.333333333333336,-0.222,-0.451,-0.851
209148,1755607602864,11.62,-153.35,-11.46,796,779,784,413,881,34.48275862068966,-0.232,-0.456,-0.859
209178,1755607602865,11.5,-153.58,-11.09,792,775,780,370,882,33.333333333333336,-0.197,-0.443,-0.896
209208,1755607602867,10.91,-154.36,-10.89,794,776,780,339,876,33.333333333333336,-0.173,-0.428,-0.912
209237,1755607602870,10.49,-155.17,-10.89,791,772,779,301,878,34.48275862068966,-0.166,-0.417,-0.899
209257,1755607602872,10.2,-155.48,-10.83,794,774,786,341,883,50.0,-0.163,-0.405,-0.874
209287,1755607602874,9.93,-155.44,-10.87,795,771,785,385,885,33.333333333333336,-0.162,-0.399,-0.858
209317,1755607602876,9.63,-155.13,-10.77,791,772,779,435,886,33.333333333333336,-0.187,-0.41,-0.868
209346,1755607602878,9.4,-154.85,-10.47,795,770,778,416,890,34.48275862068966,-0.204,-0.421,-0.874
209376,1755607602880,9.16,-154.58,-10.08,795,778,782,351,905,33.333333333333336,-0.199,-0.422,-0.885
209406,1755607602882,8.7,-154.55,-9.92,788,777,785,347,908,33.333333333333336,-0.173,-0.41,-0.895
209435,1755607602885,8.39,-154.42,-10.11,796,781,786,409,909,34.48275862068966,-0.173,-0.4,-0.874
209465,1755607602887,8.24,-154.42,-10.33,795,772,780,431,915,33.333333333333336,-0.19,-0.398,-0.884
209495,1755607602888,7.98,-154.78,-10.51,792,779,786,388,913,33.333333333333336,-0.214,-0.406,-0.91
209524,1755607602891,7.72,-155.62,-10.41,794,775,782,349,918,34.48275862068966,-0.229,-0.417,-0.913
209554,1755607602893,7.44,-156.27,-10.25,795,777,782,381,928,33.333333333333336,-0.224,-0.409,-0.906
209574,1755607602895,7.29,-156.54,-10.26,798,776,781,359,936,50.0,-0.219,-0.391,-0.883
209603,1755607602897,7.24,-156.46,-10.5,796,766,785,384,931,34.48275862068966,-0.217,-0.375,-0.861
209633,1755607602899,7.58,-156.07,-10.9,800,776,783,409,935,33.333333333333336,-0.227,-0.375,-0.845
209663,1755607602902,8.23,-155.81,-11.43,800,772,787,405,935,33.333333333333336,-0.247,-0.382,-0.842
209693,1755607602904,9.18,-155.63,-11.76,801,776,781,350,933,33.333333333333336,-0.244,-0.384,-0.854
209723,1755607602906,10.3,-156.1,-11.93,798,776,784,324,933,33.333333333333336,-0.243,-0.4,-0.879
209752,1755607602908,11.07,-156.49,-12.03,802,774,783,396,928,34.48275862068966,-0.259,-0.414,-0.889
209782,1755607602910,11.92,-156.61,-12.0,797,777,782,422,925,33.333333333333336,-0.261,-0.417,-0.887
209812,1755607602912,13.03,-156.51,-11.76,803,771,782,399,927,33.333333333333336,-0.213,-0.388,-0.899
209841,1755607602914,14.82,-157.0,-11.86,802,777,784,337,929,34.48275862068966,-0.199,-0.386,-0.916
209871,1755607602916,15.96,-157.47,-11.69,803,769,780,358,928,33.333333333333336,-0.183,-0.387,-0.923
209900,1755607602918,17.03,-158.12,-12.0,803,778,785,440,926,34.48275862068966,-0.155,-0.381,-0.918
209930,1755607602920,17.44,-158.72,-12.22,803,774,786,417,921,33.333333333333336,-0.125,-0.371,-0.921
209960,1755607602922,17.93,-159.28,-12.46,801,778,779,350,923,33.333333333333336,-0.095,-0.363,-0.925
209989,1755607602924,18.32,-160.14,-12.73,803,775,784,340,923,34.48275862068966,-0.082,-0.347,-0.943
210019,1755607602926,18.38,-161.27,-13.29,802,779,785,428,924,33.333333333333336,-0.066,-0.338,-0.954
210049,1755607602928,18.26,-162.41,-13.93,803,778,783,469,949,33.333333333333336,-0.056,-0.33,-0.95
210078,1755607602930,18.37,-163.58,-14.5,800,775,798,411,924,34.48275862068966,-0.043,-0.312,-0.945
210108,1755607602932,18.74,-164.69,-15.12,804,774,785,306,928,33.333333333333336,-0.039,-0.294,-0.942
210138,1755607602934,19.49,-165.82,-15.66,800,775,785,317,924,33.333333333333336,-0.048,-0.293,-0.943
210167,1755607602936,20.04,-166.5,-15.71,802,780,785,354,934,34.48275862068966,-0.042,-0.28,-0.932
210197,1755607602938,20.1,-166.4,-15.55,808,775,786,368,924,33.333333333333336,0.015,-0.243,-0.94
210226,1755607602940,20.06,-166.35,-15.77,804,775,782,324,921,34.48275862068966,0.038,-0.222,-0.968
210256,1755607602942,19.4,-166.52,-16.08,805,775,783,303,923,33.333333333333336,0.06,-0.208,-0.975
210285,1755607602944,18.71,-166.6,-16.39,808,770,783,379,922,34.48275862068966,0.061,-0.201,-0.966
210315,1755607602946,18.23,-166.7,-16.58,802,774,789,388,926,33.333333333333336,0.056,-0.197,-0.97
210344,1755607602948,17.86,-167.05,-16.64,802,771,776,336,925,34.48275862068966,0.048,-0.199,-0.982
210364,1755607602950,17.47,-167.35,-16.64,808,775,782,392,925,50.0,0.039,-0.201,-0.988
210394,1755607602953,16.92,-167.76,-16.61,806,772,786,339,912,33.333333333333336,0.04,-0.2,-0.986
210424,1755607602954,16.11,-168.14,-16.73,802,775,787,310,921,33.333333333333336,0.049,-0.189,-0.986
210453,1755607602956,15.31,-168.4,-16.74,802,771,781,367,923,34.48275862068966,0.053,-0.176,-0.983
210483,1755607602958,14.22,-168.2,-16.53,812,778,784,415,922,33.333333333333336,0.058,-0.171,-0.973
210503,1755607602960,13.28,-167.97,-16.43,826,774,785,354,922,50.0,0.055,-0.166,-0.976
210533,1755607602962,12.01,-167.73,-16.26,843,774,786,419,924,33.333333333333336,0.057,-0.156,-0.987
210562,1755607602965,10.94,-167.47,-15.88,845,777,784,391,917,34.48275862068966,0.044,-0.153,-0.984
