timestamp_ms,recv_timestamp_ms,pitch,roll,yaw,flex1,flex2,flex3,flex4,flex5,sampling_hz,accel_x,accel_y,accel_z
211788,1755606810356,56.72,-72.15,4.65,800,768,849,335,917,33.333333333333336,-0.836,-0.523,0.165
211817,1755606810358,56.66,-72.18,4.66,803,775,852,400,914,34.48275862068966,-0.836,-0.521,0.163
211847,1755606810359,56.61,-72.19,4.66,798,772,874,414,914,33.333333333333336,-0.836,-0.521,0.165
211877,1755606810362,56.59,-72.18,4.67,797,778,855,375,916,33.333333333333336,-0.836,-0.522,0.169
211906,1755606810364,56.61,-72.14,4.7,799,779,861,331,915,34.48275862068966,-0.836,-0.521,0.171
211935,1755606810366,56.59,-72.09,4.71,800,775,850,361,914,34.48275862068966,-0.836,-0.522,0.168
211965,1755606810368,56.59,-72.07,4.73,799,777,851,421,914,33.333333333333336,-0.835,-0.522,0.166
211995,1755606810370,56.57,-72.1,4.73,801,774,841,402,912,33.333333333333336,-0.834,-0.522,0.167
212024,1755606810372,56.55,-72.09,4.74,794,772,850,317,914,34.48275862068966,-0.835,-0.522,0.169
212044,1755606810374,56.56,-72.07,4.74,799,778,861,403,912,50.0,-0.836,-0.522,0.171
212074,1755606810376,56.58,-72.03,4.75,798,774,859,356,917,33.333333333333336,-0.837,-0.522,0.173
212103,1755606810378,56.58,-71.99,4.75,801,767,851,343,913,34.48275862068966,-0.835,-0.522,0.17
212133,1755606810380,56.59,-71.99,4.74,800,780,845,392,916,33.333333333333336,-0.836,-0.522,0.168
212162,1755606810383,56.57,-72.0,4.74,796,774,847,405,908,34.48275862068966,-0.836,-0.523,0.168
212192,1755606810385,56.57,-71.99,4.75,798,764,848,368,909,33.333333333333336,-0.836,-0.522,0.17
212221,1755606810387,56.6,-71.95,4.76,799,774,856,341,910,34.48275862068966,-0.837,-0.522,0.174
212251,1755606810389,56.66,-71.91,4.79,800,774,851,396,917,33.333333333333336,-0.838,-0.522,0.173
212280,1755606810391,56.66,-71.9,4.8,797,776,851,438,914,34.48275862068966,-0.837,-0.521,0.169
212310,1755606810393,56.62,-71.91,4.81,800,776,853,402,912,33.333333333333336,-0.836,-0.521,0.166
212340,1755606810395,56.58,-71.96,4.8,797,777,861,336,912,33.333333333333336,-0.836,-0.52,0.167
212369,1755606810397,56.54,-71.98,4.81,798,777,852,351,910,34.48275862068966,-0.836,-0.52,0.17
212399,1755606810399,56.54,-71.98,4.82,796,775,853,420,914,33.333333333333336,-0.837,-0.521,0.171
212428,1755606810401,56.51,-71.98,4.84,801,775,857,419,911,34.48275862068966,-0.837,-0.522,0.172
212458,1755606810403,56.53,-71.98,4.86,802,775,855,374,924,33.333333333333336,-0.836,-0.521,0.173
212487,1755606810405,56.5,-71.96,4.86,797,776,853,352,913,34.48275862068966,-0.836,-0.52,0.172
212517,1755606810407,56.47,-71.95,4.88,799,780,849,409,919,33.333333333333336,-0.839,-0.521,0.17
212546,1755606810409,56.43,-71.97,4.92,803,777,865,422,913,34.48275862068966,-0.839,-0.52,0.169
212576,1755606810411,56.4,-71.99,4.94,800,769,848,397,915,33.333333333333336,-0.838,-0.521,0.171
212605,1755606810413,56.38,-71.99,4.95,794,779,852,344,913,34.48275862068966,-0.837,-0.521,0.172
212635,1755606810415,56.37,-71.95,4.98,800,779,848,347,910,33.333333333333336,-0.838,-0.522,0.173
212664,1755606810417,56.34,-71.88,5.03,800,779,851,419,922,34.48275862068966,-0.838,-0.52,0.175
212694,1755606810419,56.28,-71.82,5.07,797,770,846,413,912,33.333333333333336,-0.838,-0.519,0.174
212724,1755606810421,56.23,-71.82,5.13,796,780,853,353,909,33.333333333333336,-0.84,-0.519,0.173
212753,1755606810423,56.18,-71.8,5.18,801,776,848,330,906,34.48275862068966,-0.838,-0.516,0.175
212783,1755606810425,56.15,-71.73,5.21,794,768,855,402,912,33.333333333333336,-0.838,-0.515,0.178
212812,1755606810427,56.12,-71.69,5.23,796,775,854,431,916,34.48275862068966,-0.837,-0.518,0.175
212842,1755606810430,56.1,-71.68,5.27,798,779,850,378,913,33.333333333333336,-0.838,-0.518,0.176
212871,1755606810431,56.13,-71.67,5.28,801,775,853,333,918,34.48275862068966,-0.835,-0.512,0.181
212901,1755606810434,56.11,-71.61,5.28,798,778,850,371,912,33.333333333333336,-0.837,-0.513,0.181
212930,1755606810435,56.15,-71.61,5.29,797,772,851,425,907,34.48275862068966,-0.838,-0.517,0.178
212960,1755606810438,56.19,-71.61,5.31,801,774,848,396,904,33.333333333333336,-0.838,-0.517,0.178
212989,1755606810440,56.2,-71.61,5.32,796,773,862,338,911,34.48275862068966,-0.84,-0.515,0.178
213019,1755606810442,56.22,-71.59,5.33,794,767,847,361,914,33.333333333333336,-0.841,-0.514,0.176
213049,1755606810444,56.24,-71.6,5.35,794,773,851,405,917,33.333333333333336,-0.839,-0.513,0.177
213078,1755606810446,56.19,-71.59,5.35,798,775,848,403,912,34.48275862068966,-0.837,-0.513,0.178
213108,1755606810448,56.19,-71.59,5.35,800,780,855,373,918,33.333333333333336,-0.839,-0.514,0.178
213137,1755606810450,56.22,-71.58,5.35,800,776,853,336,915,34.48275862068966,-0.837,-0.514,0.181
213167,1755606810452,56.2,-71.56,5.34,803,779,853,388,911,33.333333333333336,-0.838,-0.512,0.18
213196,1755606810454,56.15,-71.6,5.31,799,773,856,432,915,34.48275862068966,-0.839,-0.514,0.176
213225,1755606810456,56.12,-71.71,5.27,798,779,849,386,913,34.48275862068966,-0.838,-0.516,0.176
213255,1755606810458,56.09,-71.77,5.24,805,778,856,336,913,33.333333333333336,-0.838,-0.517,0.179
213285,1755606810460,56.12,-71.75,5.25,800,769,852,351,914,33.333333333333336,-0.839,-0.515,0.178
213314,1755606810462,56.21,-71.74,5.25,798,770,843,408,914,34.48275862068966,-0.839,-0.513,0.179
213343,1755606810464,56.28,-71.7,5.22,800,768,857,394,913,34.48275862068966,-0.837,-0.515,0.18
213373,1755606810465,56.32,-71.65,5.19,801,775,851,342,921,33.333333333333336,-0.837,-0.518,0.178
213402,1755606810468,56.41,-71.57,5.17,798,774,853,357,913,34.48275862068966,-0.836,-0.517,0.178
213432,1755606810470,56.42,-71.53,5.14,799,772,852,417,910,33.333333333333336,-0.835,-0.517,0.177
213461,1755606810472,56.41,-71.53,5.09,795,772,843,404,915,34.48275862068966,-0.838,-0.52,0.175
213491,1755606810473,56.43,-71.53,5.09,797,772,857,345,911,33.333333333333336,-0.839,-0.52,0.174
213520,1755606810475,56.45,-71.54,5.08,800,769,852,333,908,34.48275862068966,-0.836,-0.52,0.175
213550,1755606810477,56.46,-71.5,5.11,801,769,855,378,914,33.333333333333336,-0.838,-0.522,0.175
213579,1755606810480,56.52,-71.49,5.13,801,771,848,426,910,34.48275862068966,-0.839,-0.521,0.175
213608,1755606810481,56.56,-71.45,5.15,800,773,850,378,910,34.48275862068966,-0.838,-0.519,0.177
213638,1755606810483,56.6,-71.43,5.16,801,774,848,335,910,33.333333333333336,-0.838,-0.518,0.177
213667,1755606810485,56.62,-71.4,5.18,799,775,848,394,915,34.48275862068966,-0.838,-0.519,0.174
213697,1755606810487,56.61,-71.44,5.18,799,772,851,429,909,33.333333333333336,-0.837,-0.518,0.171
213726,1755606810489,56.58,-71.47,5.2,800,772,847,394,913,34.48275862068966,-0.839,-0.518,0.173
213756,1755606810491,56.58,-71.5,5.22,812,773,852,330,915,33.333333333333336,-0.837,-0.518,0.174
213785,1755606810493,56.55,-71.51,5.23,800,777,854,351,913,34.48275862068966,-0.84,-0.519,0.173
213815,1755606810495,56.53,-71.56,5.22,797,777,856,417,911,33.333333333333336,-0.838,-0.518,0.173
213844,1755606810498,56.49,-71.55,5.23,795,772,853,417,912,34.48275862068966,-0.837,-0.518,0.174
213873,1755606810500,56.47,-71.51,5.24,793,772,854,351,908,34.48275862068966,-0.836,-0.519,0.174
213903,1755606810502,56.48,-71.5,5.24,798,773,852,343,910,33.333333333333336,-0.837,-0.52,0.172
213932,1755606810504,56.49,-71.55,5.25,799,779,848,402,913,34.48275862068966,-0.837,-0.52,0.172
213962,1755606810506,56.43,-71.57,5.26,800,780,850,419,917,33.333333333333336,-0.838,-0.519,0.175
213992,1755606810508,56.46,-71.59,5.28,797,767,852,366,917,33.333333333333336,-0.84,-0.52,0.177
214021,1755606810511,56.45,-71.57,5.31,799,767,865,338,951,34.48275862068966,-0.838,-0.522,0.18
214050,1755606810513,56.4,-71.47,5.15,794,767,858,372,909,34.48275862068966,-0.832,-0.522,0.182
214080,1755606810514,56.12,-71.6,4.47,801,772,851,417,910,33.333333333333336,-0.822,-0.523,0.186
214110,1755606810516,56.18,-71.59,4.35,802,776,859,397,910,33.333333333333336,-0.837,-0.529,0.19
214139,1755606810518,56.67,-70.61,4.79,803,774,854,346,915,34.48275862068966,-0.871,-0.53,0.213
214169,1755606810521,56.94,-68.78,6.11,802,774,859,376,918,33.333333333333336,-0.881,-0.528,0.229
214199,1755606810522,56.43,-68.54,6.54,805,773,856,419,913,33.333333333333336,-0.832,-0.506,0.189
214228,1755606810525,55.37,-68.65,6.71,798,776,861,410,915,34.48275862068966,-0.807,-0.5,0.162
214258,1755606810527,53.94,-69.06,6.49,803,774,872,350,911,33.333333333333336,-0.813,-0.494,0.142
214287,1755606810529,53.25,-70.27,5.97,802,769,874,345,913,34.48275862068966,-0.831,-0.501,0.158
214317,1755606810531,52.68,-70.08,6.01,803,777,876,387,910,33.333333333333336,-0.856,-0.508,0.21
214347,1755606810533,52.33,-69.37,6.38,802,777,898,411,912,33.333333333333336,-0.854,-0.511,0.243
214376,1755606810535,52.43,-68.83,6.63,801,773,882,388,916,34.48275862068966,-0.837,-0.505,0.264
214405,1755606810537,52.42,-68.64,6.55,803,776,883,342,916,34.48275862068966,-0.809,-0.496,0.257
214435,1755606810539,52.47,-68.93,6.13,801,769,879,358,911,33.333333333333336,-0.803,-0.493,0.246
214465,1755606810541,52.97,-69.67,5.75,803,777,887,397,911,33.333333333333336,-0.815,-0.5,0.235
214494,1755606810543,53.48,-70.18,5.52,796,769,884,393,911,34.48275862068966,-0.829,-0.499,0.233
214524,1755606810545,53.77,-70.89,5.12,803,778,885,366,908,33.333333333333336,-0.82,-0.5,0.233
214553,1755606810547,54.03,-71.24,4.9,802,769,886,327,912,34.48275862068966,-0.821,-0.509,0.232
214583,1755606810549,54.21,-71.65,4.65,804,774,893,366,911,33.333333333333336,-0.817,-0.516,0.223
214612,1755606810551,54.5,-72.0,4.21,796,775,892,386,910,34.48275862068966,-0.827,-0.535,0.211
214642,1755606810554,53.75,-70.28,4.44,800,767,890,361,907,33.333333333333336,-0.819,-0.549,0.206
214671,1755606810555,53.51,-69.5,4.6,802,781,888,350,909,34.48275862068966,-0.818,-0.558,0.198
214701,1755606810558,53.33,-69.06,4.76,800,779,885,373,910,33.333333333333336,-0.806,-0.545,0.207
214730,1755606810560,53.13,-69.31,4.63,798,777,891,407,911,34.48275862068966,-0.803,-0.512,0.222
214760,1755606810562,53.9,-71.47,4.01,803,773,890,425,916,33.333333333333336,-0.788,-0.505,0.235
214790,1755606810564,55.1,-73.73,3.48,801,778,889,376,935,33.333333333333336,-0.802,-0.528,0.262
214819,1755606810566,56.03,-72.56,3.98,801,786,890,369,922,34.48275862068966,-0.837,-0.565,0.302
214849,1755606810568,56.14,-70.43,4.74,810,772,893,405,933,33.333333333333336,-0.829,-0.571,0.255
214879,1755606810570,55.99,-68.59,5.28,803,777,888,405,921,33.333333333333336,-0.815,-0.571,0.204
214908,1755606810572,55.91,-68.59,5.62,800,768,891,355,926,34.48275862068966,-0.789,-0.545,0.126
214937,1755606810574,57.21,-70.39,5.22,799,776,885,338,926,34.48275862068966,-0.793,-0.548,0.115
214967,1755606810576,59.05,-70.76,5.32,795,782,890,366,930,33.333333333333336,-0.818,-0.551,0.151
214996,1755606810578,60.6,-71.54,5.51,800,768,882,397,926,34.48275862068966,-0.84,-0.54,0.164
215016,1755606810580,61.23,-72.02,5.61,800,773,887,367,930,50.0,-0.825,-0.534,0.16
215046,1755606810582,62.21,-72.36,5.68,796,772,888,395,928,33.333333333333336,-0.822,-0.541,0.144
215075,1755606810584,62.97,-72.45,5.7,800,773,883,363,929,34.48275862068966,-0.835,-0.538,0.122
215095,1755606810586,63.17,-72.5,5.77,790,779,886,412,930,50.0,-0.86,-0.542,0.105
215125,1755606810588,62.65,-71.17,6.19,796,774,881,371,928,33.333333333333336,-0.885,-0.551,0.119
215154,1755606810590,61.07,-69.46,7.27,800,779,880,359,926,34.48275862068966,-0.877,-0.529,0.077
215184,1755606810592,59.76,-72.14,6.62,796,767,884,370,921,33.333333333333336,-0.791,-0.525,-0.004
215214,1755606810594,61.45,-75.04,5.02,799,772,882,369,921,33.333333333333336,-0.759,-0.534,-0.007
215244,1755606810596,62.11,-75.32,3.6,795,770,892,358,917,33.333333333333336,-0.732,-0.553,-0.013
215273,1755606810598,60.25,-73.83,3.26,798,776,889,323,918,34.48275862068966,-0.837,-0.583,0.015
215303,1755606810601,59.23,-73.02,3.32,799,770,892,323,916,33.333333333333336,-0.877,-0.57,0.069
215332,1755606810603,58.76,-73.1,2.94,794,776,889,346,921,34.48275862068966,-0.859,-0.545,0.113
215362,1755606810605,58.31,-74.52,2.14,793,778,897,403,942,33.333333333333336,-0.819,-0.528,0.123
215391,1755606810607,57.61,-77.8,1.1,797,768,903,387,932,34.48275862068966,-0.778,-0.534,0.081
215421,1755606810609,57.31,-80.99,-0.05,797,771,897,374,936,33.333333333333336,-0.809,-0.555,0.067
215451,1755606810611,57.23,-83.57,-0.66,797,776,892,391,933,33.333333333333336,-0.84,-0.57,0.078
215480,1755606810613,56.76,-85.52,-0.79,797,775,901,438,935,34.48275862068966,-0.87,-0.58,0.134
215500,1755606810615,55.53,-84.79,-0.16,793,777,896,393,929,50.0,-0.869,-0.614,0.194
215530,1755606810617,55.79,-82.22,0.96,797,780,897,423,926,33.333333333333336,-0.822,-0.619,0.159
215559,1755606810619,56.21,-80.6,1.51,797,772,892,413,927,34.48275862068966,-0.791,-0.618,0.087
215589,1755606810621,56.1,-79.18,2.2,798,771,890,367,933,33.333333333333336,-0.784,-0.608,0.03
215619,1755606810623,56.5,-80.19,2.28,794,768,886,364,926,33.333333333333336,-0.779,-0.597,0.015
215649,1755606810625,56.97,-80.75,2.38,798,778,901,358,939,33.333333333333336,-0.79,-0.594,0.039
215678,1755606810627,57.56,-80.7,2.76,793,779,891,397,928,34.48275862068966,-0.793,-0.593,0.061
215708,1755606810629,59.2,-81.66,2.88,797,778,889,382,933,33.333333333333336,-0.803,-0.596,0.061
215738,1755606810631,59.77,-82.01,3.12,792,777,890,330,933,33.333333333333336,-0.801,-0.597,0.044
215767,1755606810633,60.62,-82.48,3.26,795,780,889,356,954,34.48275862068966,-0.798,-0.597,0.016
215797,1755606810635,61.04,-83.06,3.41,795,774,888,430,934,33.333333333333336,-0.808,-0.592,0.01
215827,1755606810637,61.31,-83.5,3.6,801,777,880,408,926,33.333333333333336,-0.81,-0.592,0.001
215856,1755606810639,61.43,-83.72,3.78,797,773,888,333,925,34.48275862068966,-0.807,-0.587,-0.009
215886,1755606810642,61.81,-84.28,3.87,792,774,888,348,936,33.333333333333336,-0.811,-0.579,-0.027
215915,1755606810644,62.14,-85.03,3.93,792,771,888,403,930,34.48275862068966,-0.816,-0.58,-0.03
215945,1755606810646,62.24,-85.3,4.05,793,774,892,424,935,33.333333333333336,-0.821,-0.574,-0.037
215974,1755606810648,62.64,-85.39,4.33,792,776,893,372,940,34.48275862068966,-0.832,-0.573,-0.04
216004,1755606810650,62.97,-86.01,4.53,790,782,891,339,945,33.333333333333336,-0.819,-0.574,-0.065
216034,1755606810652,63.07,-86.83,4.57,795,773,892,377,931,33.333333333333336,-0.813,-0.573,-0.088
216063,1755606810654,62.92,-87.28,4.6,795,772,891,427,934,34.48275862068966,-0.815,-0.563,-0.099
216093,1755606810656,62.84,-87.7,4.55,799,773,892,399,930,33.333333333333336,-0.819,-0.557,-0.101
216122,1755606810658,62.74,-88.43,4.51,801,781,899,349,931,34.48275862068966,-0.827,-0.557,-0.109
216152,1755606810660,62.74,-88.85,4.55,799,769,898,349,937,33.333333333333336,-0.823,-0.558,-0.112
216181,1755606810662,62.96,-89.64,4.41,800,780,896,400,931,34.48275862068966,-0.818,-0.56,-0.121
216211,1755606810664,63.03,-90.76,4.17,803,777,907,421,938,33.333333333333336,-0.815,-0.556,-0.141
216241,1755606810666,63.05,-91.51,4.17,804,776,906,344,939,33.333333333333336,-0.823,-0.563,-0.137
216270,1755606810668,62.98,-91.9,4.16,800,772,911,322,936,34.48275862068966,-0.812,-0.555,-0.136
216300,1755606810670,63.02,-92.45,3.97,800,774,910,363,933,33.333333333333336,-0.814,-0.557,-0.148
216330,1755606810672,62.97,-92.87,3.85,800,778,900,403,934,33.333333333333336,-0.802,-0.557,-0.155
216359,1755606810674,62.81,-93.11,3.46,799,774,905,388,935,34.48275862068966,-0.791,-0.553,-0.158
216389,1755606810676,62.78,-93.33,3.27,799,779,911,333,929,33.333333333333336,-0.808,-0.561,-0.162
216418,1755606810678,62.99,-93.3,3.18,799,773,906,357,929,34.48275862068966,-0.806,-0.574,-0.156
216448,1755606810680,63.43,-92.74,2.94,797,783,910,409,936,33.333333333333336,-0.792,-0.572,-0.141
216477,1755606810682,63.39,-92.4,2.73,796,774,907,426,936,34.48275862068966,-0.799,-0.572,-0.167
216507,1755606810684,63.37,-92.32,2.74,800,776,904,367,936,33.333333333333336,-0.806,-0.572,-0.19
216537,1755606810686,63.3,-92.43,2.78,799,779,906,335,934,33.333333333333336,-0.799,-0.572,-0.197
216566,1755606810688,62.88,-92.42,2.73,805,774,904,364,937,34.48275862068966,-0.796,-0.569,-0.196
216596,1755606810690,62.53,-92.65,2.76,807,778,907,408,932,33.333333333333336,-0.8,-0.576,-0.2
216625,1755606810692,61.97,-92.93,2.82,808,770,891,378,927,34.48275862068966,-0.798,-0.576,-0.196
216655,1755606810694,61.36,-93.5,2.71,811,773,901,336,930,33.333333333333336,-0.794,-0.57,-0.199
216685,1755606810695,60.83,-94.02,2.65,811,775,902,364,929,33.333333333333336,-0.795,-0.575,-0.198
216705,1755606810697,60.39,-94.52,2.64,813,775,900,383,938,50.0,-0.794,-0.582,-0.194
216735,1755606810699,59.79,-94.97,2.62,818,773,898,376,934,33.333333333333336,-0.791,-0.585,-0.181
216764,1755606810701,59.43,-95.25,2.58,813,778,897,426,931,34.48275862068966,-0.792,-0.588,-0.166
216784,1755606810703,59.35,-95.25,2.6,819,775,897,353,935,50.0,-0.791,-0.586,-0.156
216814,1755606810705,59.23,-95.41,2.49,814,768,894,421,942,33.333333333333336,-0.783,-0.585,-0.17
216844,1755606810707,58.83,-95.96,2.28,813,770,895,416,929,33.333333333333336,-0.786,-0.588,-0.182
216873,1755606810709,58.68,-96.29,2.22,820,777,896,368,926,34.48275862068966,-0.788,-0.59,-0.175
216903,1755606810711,58.48,-96.85,2.02,814,775,893,333,930,33.333333333333336,-0.782,-0.588,-0.172
216932,1755606810713,58.36,-97.12,1.85,815,778,899,386,929,34.48275862068966,-0.779,-0.596,-0.165
216962,1755606810715,58.23,-97.45,1.68,817,773,895,414,931,33.333333333333336,-0.779,-0.594,-0.176
216992,1755606810717,58.14,-97.82,1.53,818,776,898,402,938,33.333333333333336,-0.793,-0.597,-0.169
217021,1755606810719,57.88,-98.02,1.55,818,778,890,358,932,34.48275862068966,-0.788,-0.603,-0.165
217051,1755606810721,57.74,-97.83,1.65,816,772,889,370,931,33.333333333333336,-0.791,-0.603,-0.155
217080,1755606810723,57.73,-97.54,1.81,813,768,889,429,940,34.48275862068966,-0.792,-0.604,-0.157
217109,1755606810725,57.75,-97.58,1.93,820,770,896,427,930,34.48275862068966,-0.786,-0.6,-0.17
217139,1755606810727,57.4,-97.71,2.01,815,769,891,315,925,33.333333333333336,-0.783,-0.59,-0.175
217168,1755606810729,56.93,-97.7,2.09,819,772,890,331,925,34.48275862068966,-0.781,-0.589,-0.171
217198,1755606810732,56.8,-97.9,2.02,820,767,884,398,930,33.333333333333336,-0.778,-0.59,-0.158
217227,1755606810733,56.52,-97.64,1.9,818,774,897,430,927,34.48275862068966,-0.779,-0.598,-0.153
217257,1755606810735,56.4,-97.54,1.77,816,774,888,384,928,33.333333333333336,-0.782,-0.599,-0.154
217287,1755606810738,56.22,-97.75,1.6,819,777,887,345,936,33.333333333333336,-0.777,-0.599,-0.159
217316,1755606810740,55.97,-98.01,1.46,815,770,886,379,931,34.48275862068966,-0.778,-0.603,-0.17
217346,1755606810742,55.83,-98.07,1.48,821,765,891,406,929,33.333333333333336,-0.784,-0.608,-0.165
217375,1755606810744,55.55,-98.22,1.48,821,775,883,381,926,34.48275862068966,-0.78,-0.607,-0.148
217405,1755606810746,55.45,-98.15,1.51,824,776,887,283,930,33.333333333333336,-0.781,-0.61,-0.143
217435,1755606810748,55.19,-98.2,1.61,819,774,889,310,925,33.333333333333336,-0.785,-0.611,-0.154
217464,1755606810750,55.0,-98.33,1.6,819,766,886,404,928,34.48275862068966,-0.774,-0.605,-0.15
217494,1755606810752,54.95,-98.04,1.57,825,768,888,413,929,33.333333333333336,-0.782,-0.606,-0.14
217523,1755606810755,54.56,-97.88,1.68,817,779,891,365,928,34.48275862068966,-0.788,-0.611,-0.136
217553,1755606810757,54.5,-97.72,1.84,818,775,890,339,929,33.333333333333336,-0.782,-0.608,-0.126
217583,1755606810759,54.77,-97.36,1.99,812,767,881,381,930,33.333333333333336,-0.788,-0.605,-0.127
217612,1755606810761,54.86,-97.2,2.17,814,773,884,422,929,34.48275862068966,-0.785,-0.605,-0.133
217641,1755606810763,54.52,-97.01,2.42,818,771,886,383,924,34.48275862068966,-0.786,-0.604,-0.138
217671,1755606810765,54.27,-96.87,2.56,818,776,892,343,931,33.333333333333336,-0.779,-0.602,-0.14
217701,1755606810767,54.39,-96.88,2.67,818,772,889,363,928,33.333333333333336,-0.788,-0.598,-0.132
217730,1755606810769,54.63,-96.75,2.7,816,770,884,414,930,34.48275862068966,-0.781,-0.599,-0.114
217760,1755606810771,54.75,-96.34,2.79,815,769,890,422,928,33.333333333333336,-0.791,-0.598,-0.108
217789,1755606810773,54.82,-96.09,2.9,811,774,889,370,928,34.48275862068966,-0.796,-0.599,-0.11
217819,1755606810775,54.81,-96.03,3.07,813,778,881,350,929,33.333333333333336,-0.798,-0.601,-0.118
217848,1755606810777,54.78,-95.91,3.33,811,778,887,391,929,34.48275862068966,-0.803,-0.599,-0.116
217878,1755606810779,54.86,-95.78,3.54,815,775,882,411,924,33.333333333333336,-0.8,-0.59,-0.107
217907,1755606810781,54.95,-95.61,3.67,809,778,891,365,925,34.48275862068966,-0.797,-0.587,-0.103
217937,1755606810783,55.12,-95.56,3.77,810,773,889,320,929,33.333333333333336,-0.805,-0.586,-0.11
217966,1755606810785,55.26,-95.59,3.88,806,773,885,368,930,34.48275862068966,-0.804,-0.583,-0.115
217986,1755606810787,55.28,-95.66,3.95,807,774,888,359,927,50.0,-0.808,-0.581,-0.114
218016,1755606810789,55.38,-95.52,4.07,814,776,889,378,920,33.333333333333336,-0.804,-0.584,-0.113
218046,1755606810791,55.46,-95.45,4.18,811,772,883,427,927,33.333333333333336,-0.803,-0.581,-0.116
218075,1755606810793,55.44,-95.65,4.18,814,780,880,403,933,34.48275862068966,-0.806,-0.577,-0.12
218105,1755606810795,55.4,-95.83,4.22,813,777,885,351,927,33.333333333333336,-0.804,-0.577,-0.117
218135,1755606810797,55.41,-95.88,4.27,813,765,885,317,931,33.333333333333336,-0.806,-0.58,-0.118
218155,1755606810799,55.28,-95.95,4.31,807,773,882,353,929,50.0,-0.805,-0.58,-0.121
218184,1755606810801,55.11,-96.2,4.25,813,767,888,364,930,34.48275862068966,-0.803,-0.578,-0.119
218214,1755606810803,55.05,-96.2,4.23,810,774,881,406,928,33.333333333333336,-0.805,-0.572,-0.112
218244,1755606810806,55.03,-96.22,4.19,810,768,888,409,945,33.333333333333336,-0.808,-0.573,-0.11
218273,1755606810808,55.02,-96.23,4.21,811,769,885,323,924,34.48275862068966,-0.813,-0.58,-0.108
218303,1755606810810,55.07,-96.28,4.31,812,775,891,314,923,33.333333333333336,-0.811,-0.581,-0.11
218333,1755606810812,55.05,-96.3,4.38,806,771,884,326,928,33.333333333333336,-0.808,-0.577,-0.112
218363,1755606810814,54.97,-96.47,4.35,813,772,885,400,924,33.333333333333336,-0.807,-0.57,-0.114
218392,1755606810816,54.95,-96.52,4.32,810,775,884,396,929,34.48275862068966,-0.811,-0.575,-0.112
218422,1755606810818,54.91,-96.48,4.37,808,772,883,346,922,33.333333333333336,-0.81,-0.575,-0.107
218451,1755606810820,54.91,-96.34,4.42,811,773,890,352,929,34.48275862068966,-0.812,-0.576,-0.099
218481,1755606810822,55.1,-96.11,4.5,806,766,886,408,927,33.333333333333336,-0.81,-0.578,-0.098
218511,1755606810824,55.24,-96.05,4.52,810,772,883,428,925,33.333333333333336,-0.809,-0.577,-0.102
218540,1755606810826,55.32,-96.09,4.49,806,774,881,344,926,34.48275862068966,-0.812,-0.574,-0.104
218570,1755606810828,55.32,-96.07,4.5,810,775,885,316,928,33.333333333333336,-0.817,-0.575,-0.101
218599,1755606810830,55.36,-96.02,4.58,808,770,887,387,936,34.48275862068966,-0.815,-0.574,-0.102
218629,1755606810832,55.39,-96.05,4.58,807,776,888,435,928,33.333333333333336,-0.812,-0.572,-0.103
218658,1755606810834,55.5,-96.18,4.57,809,769,890,393,923,34.48275862068966,-0.813,-0.577,-0.108
218688,1755606810836,55.47,-96.22,4.65,808,772,888,342,926,33.333333333333336,-0.814,-0.581,-0.112
218718,1755606810839,55.44,-96.26,4.74,807,771,891,354,926,33.333333333333336,-0.811,-0.574,-0.108
218747,1755606810841,55.35,-96.36,4.73,803,775,887,383,919,34.48275862068966,-0.813,-0.571,-0.112
218777,1755606810843,55.14,-96.51,4.7,808,771,882,398,926,33.333333333333336,-0.814,-0.569,-0.117
218806,1755606810845,55.04,-96.74,4.65,811,778,888,346,930,34.48275862068966,-0.814,-0.571,-0.114
218836,1755606810847,54.83,-96.92,4.65,807,778,886,315,924,33.333333333333336,-0.813,-0.577,-0.105
218865,1755606810849,54.72,-96.92,4.74,808,769,901,384,924,34.48275862068966,-0.814,-0.576,-0.097
218895,1755606810851,54.79,-96.98,4.79,809,764,889,417,928,33.333333333333336,-0.815,-0.575,-0.096
218925,1755606810853,54.78,-96.96,4.86,807,773,881,397,924,33.333333333333336,-0.816,-0.571,-0.094
218954,1755606810856,54.81,-97.02,4.9,806,774,901,346,923,34.48275862068966,-0.816,-0.569,-0.099
218984,1755606810857,54.85,-97.04,4.94,809,773,886,368,929,33.333333333333336,-0.815,-0.569,-0.099
219013,1755606810859,54.84,-96.93,5.01,801,775,885,427,920,34.48275862068966,-0.812,-0.567,-0.095
219043,1755606810862,54.98,-96.92,5.01,801,781,887,429,929,33.333333333333336,-0.813,-0.568,-0.093
219072,1755606810863,55.11,-96.86,5.04,801,774,887,380,947,34.48275862068966,-0.813,-0.569,-0.096
219102,1755606810866,55.1,-96.83,5.07,808,775,886,358,933,33.333333333333336,-0.816,-0.57,-0.1
219132,1755606810867,55.09,-96.74,5.16,805,771,886,417,931,33.333333333333336,-0.815,-0.572,-0.105
219161,1755606810869,55.07,-96.76,5.26,808,774,882,428,927,34.48275862068966,-0.817,-0.571,-0.107
219191,1755606810872,55.1,-96.81,5.32,804,772,886,385,926,33.333333333333336,-0.812,-0.57,-0.104
219220,1755606810873,55.13,-96.74,5.37,805,771,882,347,931,34.48275862068966,-0.815,-0.567,-0.098
219250,1755606810876,55.09,-96.53,5.42,802,775,889,370,926,33.333333333333336,-0.811,-0.562,-0.097
219280,1755606810878,55.27,-96.55,5.41,805,769,884,413,930,33.333333333333336,-0.816,-0.569,-0.097
219309,1755606810879,55.43,-96.57,5.45,808,768,884,401,931,34.48275862068966,-0.815,-0.57,-0.097
219339,1755606810882,55.57,-96.62,5.45,805,770,881,352,928,33.333333333333336,-0.814,-0.566,-0.095
219369,1755606810884,55.65,-96.57,5.49,797,777,885,334,922,33.333333333333336,-0.822,-0.565,-0.1
219398,1755606810886,55.7,-96.56,5.56,807,774,882,404,925,34.48275862068966,-0.821,-0.565,-0.108
219418,1755606810888,55.65,-96.63,5.61,800,780,887,346,916,50.0,-0.819,-0.568,-0.112
219448,1755606810890,55.51,-96.72,5.68,804,767,887,394,928,33.333333333333336,-0.817,-0.564,-0.113
219477,1755606810892,55.48,-96.77,5.67,805,777,879,410,925,34.48275862068966,-0.818,-0.561,-0.105
219507,1755606810905,55.51,-96.78,5.67,805,770,886,383,932,33.333333333333336,-0.817,-0.563,-0.102
219537,1755606810935,55.52,-96.91,5.63,805,773,884,334,927,33.333333333333336,-0.818,-0.563,-0.102
219566,1755606810964,55.57,-97.04,5.6,806,772,887,349,925,34.48275862068966,-0.819,-0.562,-0.1
219596,1755606810994,55.51,-97.18,5.54,808,767,882,410,929,33.333333333333336,-0.819,-0.562,-0.102
219626,1755606811024,55.45,-97.25,5.53,819,768,882,389,925,33.333333333333336,-0.817,-0.562,-0.102
219655,1755606811054,55.41,-97.41,5.47,799,779,880,345,926,34.48275862068966,-0.813,-0.566,-0.105
219685,1755606811083,55.31,-97.56,5.39,805,774,885,323,923,33.333333333333336,-0.817,-0.564,-0.106
219714,1755606811113,55.1,-97.76,5.27,803,767,891,379,929,34.48275862068966,-0.816,-0.563,-0.105
219744,1755606811143,54.96,-97.92,5.19,804,767,888,409,925,33.333333333333336,-0.816,-0.566,-0.109
219774,1755606811172,54.87,-98.07,5.09,806,773,884,392,916,33.333333333333336,-0.815,-0.565,-0.106
219803,1755606811202,54.8,-98.11,5.03,804,771,884,350,928,34.48275862068966,-0.818,-0.566,-0.1
219833,1755606811231,54.75,-98.22,4.91,805,767,886,371,927,33.333333333333336,-0.817,-0.568,-0.098
219863,1755606811261,54.68,-98.22,4.85,799,770,886,427,928,33.333333333333336,-0.818,-0.57,-0.101
219892,1755606811290,54.64,-98.32,4.74,807,766,887,410,925,34.48275862068966,-0.816,-0.57,-0.1
219922,1755606811320,54.62,-98.37,4.59,801,769,886,365,927,33.333333333333336,-0.812,-0.571,-0.1
219942,1755606811340,54.57,-98.41,4.5,805,773,885,418,927,50.0,-0.812,-0.572,-0.101
219972,1755606811370,54.46,-98.59,4.35,802,768,884,373,923,33.333333333333336,-0.814,-0.573,-0.102
220001,1755606811400,54.36,-98.71,4.28,803,779,885,361,925,34.48275862068966,-0.814,-0.576,-0.099
220021,1755606811420,54.32,-98.72,4.27,805,770,882,374,925,50.0,-0.815,-0.578,-0.098
220051,1755606811449,54.23,-98.69,4.27,802,768,886,359,926,33.333333333333336,-0.813,-0.578,-0.096
220080,1755606811478,54.24,-98.72,4.25,802,774,881,409,929,34.48275862068966,-0.811,-0.58,-0.096
220110,1755606811508,54.25,-98.68,4.26,797,779,883,419,929,33.333333333333336,-0.811,-0.582,-0.096
220139,1755606811538,54.28,-98.56,4.3,804,772,887,374,921,34.48275862068966,-0.81,-0.582,-0.094
220169,1755606811567,54.29,-98.52,4.3,806,772,887,339,925,33.333333333333336,-0.808,-0.58,-0.097
220199,1755606811597,54.24,-98.52,4.28,808,773,887,372,931,33.333333333333336,-0.809,-0.581,-0.099
220228,1755606811626,54.2,-98.59,4.26,804,773,882,400,931,34.48275862068966,-0.806,-0.582,-0.099
220258,1755606811656,54.2,-98.63,4.23,804,774,875,391,923,33.333333333333336,-0.807,-0.581,-0.095
220288,1755606811686,54.14,-98.64,4.21,797,767,886,338,929,33.333333333333336,-0.806,-0.582,-0.094
220317,1755606811715,54.12,-98.62,4.19,803,775,881,335,930,34.48275862068966,-0.806,-0.585,-0.097
220347,1755606811745,54.06,-98.72,4.19,801,774,878,398,927,33.333333333333336,-0.802,-0.586,-0.097
220376,1755606811774,54.0,-98.85,4.2,804,777,886,395,926,34.48275862068966,-0.802,-0.589,-0.095
220406,1755606811804,54.01,-98.8,4.21,804,778,882,377,924,33.333333333333336,-0.806,-0.586,-0.091
220435,1755606811833,54.05,-98.76,4.19,800,775,883,354,925,34.48275862068966,-0.806,-0.587,-0.09
220465,1755606811863,54.08,-98.7,4.2,806,769,879,395,926,33.333333333333336,-0.803,-0.587,-0.095
220495,1755606811893,54.07,-98.65,4.18,806,777,884,426,937,33.333333333333336,-0.803,-0.588,-0.097
220524,1755606811922,54.06,-98.71,4.16,800,775,879,400,924,34.48275862068966,-0.803,-0.587,-0.097
