timestamp_ms,recv_timestamp_ms,pitch,roll,yaw,flex1,flex2,flex3,flex4,flex5,sampling_hz,accel_x,accel_y,accel_z
199923,1755598810349,36.48,-61.74,-22.02,806,774,783,871,875,50.0,-0.595,-0.712,0.375
199943,1755598810351,36.43,-61.77,-22.02,805,773,777,869,882,50.0,-0.593,-0.712,0.375
199964,1755598810353,36.44,-61.8,-22.02,804,766,779,870,879,47.61904761904762,-0.592,-0.71,0.374
199993,1755598810356,36.5,-61.82,-22.02,798,769,783,871,881,34.48275862068966,-0.592,-0.711,0.375
200023,1755598810358,36.54,-61.84,-22.0,809,760,779,869,879,33.333333333333336,-0.591,-0.711,0.375
200043,1755598810360,36.55,-61.83,-22.0,806,768,777,873,870,50.0,-0.589,-0.71,0.375
200073,1755598810361,36.59,-61.81,-21.99,803,765,774,871,878,33.333333333333336,-0.59,-0.709,0.373
200103,1755598810364,36.61,-61.78,-22.03,802,768,780,876,880,33.333333333333336,-0.59,-0.71,0.374
200123,1755598810365,36.54,-61.77,-22.05,803,771,774,871,878,50.0,-0.589,-0.71,0.374
200143,1755598810368,36.5,-61.77,-22.08,805,763,783,871,883,50.0,-0.589,-0.71,0.375
200173,1755598810369,36.55,-61.75,-22.06,805,766,784,869,887,33.333333333333336,-0.595,-0.714,0.378
200193,1755598810371,36.52,-61.7,-22.04,801,772,780,875,882,50.0,-0.596,-0.714,0.377
200223,1755598810373,36.49,-61.7,-22.03,811,771,774,871,879,33.333333333333336,-0.591,-0.712,0.376
200243,1755598810375,36.52,-61.73,-22.03,806,768,775,874,892,50.0,-0.59,-0.711,0.374
200273,1755598810377,36.56,-61.74,-22.03,806,770,777,875,869,33.333333333333336,-0.591,-0.708,0.375
200303,1755598810379,36.5,-61.75,-22.05,811,777,777,867,870,33.333333333333336,-0.591,-0.709,0.374
200333,1755598810381,36.44,-61.77,-22.07,805,772,779,860,877,33.333333333333336,-0.589,-0.711,0.374
200363,1755598810384,36.42,-61.75,-22.06,804,765,772,866,874,33.333333333333336,-0.588,-0.71,0.377
200393,1755598810385,36.46,-61.71,-22.06,809,769,782,868,878,33.333333333333336,-0.592,-0.71,0.376
200423,1755598810387,36.46,-61.7,-22.04,806,777,779,870,877,33.333333333333336,-0.593,-0.711,0.375
200452,1755598810389,36.46,-61.69,-22.03,810,767,777,874,879,34.48275862068966,-0.591,-0.712,0.377
200482,1755598810392,36.44,-61.7,-22.02,806,763,779,874,871,33.333333333333336,-0.59,-0.711,0.376
200512,1755598810394,36.41,-61.74,-22.02,801,774,780,873,878,33.333333333333336,-0.59,-0.711,0.374
200532,1755598810395,36.4,-61.72,-22.01,805,769,780,871,875,50.0,-0.59,-0.714,0.377
200562,1755598810398,36.38,-61.71,-21.99,806,763,783,867,879,33.333333333333336,-0.59,-0.712,0.378
200592,1755598810400,36.42,-61.71,-21.97,802,765,785,872,877,33.333333333333336,-0.591,-0.709,0.375
200621,1755598810402,36.39,-61.71,-21.96,800,775,784,876,871,34.48275862068966,-0.592,-0.708,0.376
200651,1755598810404,36.38,-61.68,-21.95,797,772,778,870,878,33.333333333333336,-0.591,-0.708,0.376
200681,1755598810406,36.38,-61.69,-21.96,804,767,776,863,878,33.333333333333336,-0.589,-0.707,0.375
200711,1755598810408,36.39,-61.71,-21.97,794,767,777,872,872,33.333333333333336,-0.591,-0.707,0.376
200741,1755598810411,36.38,-61.7,-21.97,804,764,776,874,885,33.333333333333336,-0.593,-0.708,0.377
200771,1755598810413,36.37,-61.7,-21.98,807,769,777,876,879,33.333333333333336,-0.591,-0.709,0.376
200801,1755598810415,36.35,-61.7,-21.97,798,774,780,863,874,33.333333333333336,-0.589,-0.71,0.377
200830,1755598810416,36.38,-61.71,-21.98,802,763,778,867,873,34.48275862068966,-0.59,-0.708,0.376
200860,1755598810418,36.41,-61.74,-21.98,803,773,776,873,875,33.333333333333336,-0.592,-0.709,0.375
200890,1755598810420,36.41,-61.73,-21.96,797,767,775,871,879,33.333333333333336,-0.59,-0.708,0.377
200920,1755598810422,36.41,-61.73,-21.98,798,759,783,869,884,33.333333333333336,-0.588,-0.707,0.377
200950,1755598810424,36.4,-61.75,-21.99,804,771,777,867,878,33.333333333333336,-0.591,-0.708,0.376
200980,1755598810426,36.36,-61.74,-22.01,809,772,781,871,873,33.333333333333336,-0.59,-0.707,0.377
201009,1755598810428,36.34,-61.73,-22.02,799,766,780,873,885,34.48275862068966,-0.591,-0.709,0.378
201039,1755598810431,36.34,-61.69,-21.99,804,767,779,871,871,33.333333333333336,-0.591,-0.711,0.38
201069,1755598810433,36.37,-61.71,-21.98,805,770,784,866,886,33.333333333333336,-0.589,-0.708,0.38
201099,1755598810435,36.4,-61.73,-21.98,801,767,778,871,874,33.333333333333336,-0.591,-0.707,0.377
201129,1755598810436,36.42,-61.73,-21.98,807,788,781,871,882,33.333333333333336,-0.592,-0.706,0.376
201149,1755598810438,36.39,-61.73,-21.99,806,763,776,867,871,50.0,-0.59,-0.706,0.376
201169,1755598810440,36.36,-61.74,-22.01,802,773,774,874,882,50.0,-0.589,-0.708,0.379
201199,1755598810442,36.39,-61.75,-22.0,807,767,770,866,877,33.333333333333336,-0.59,-0.71,0.38
201229,1755598810444,36.4,-61.73,-22.0,802,766,776,875,873,33.333333333333336,-0.589,-0.708,0.378
201249,1755598810446,36.38,-61.72,-22.02,807,776,780,864,900,50.0,-0.589,-0.707,0.377
201269,1755598810448,36.38,-61.73,-22.02,800,772,779,875,879,50.0,-0.592,-0.709,0.378
201299,1755598810450,36.41,-61.73,-22.0,800,768,782,878,877,33.333333333333336,-0.592,-0.709,0.379
201329,1755598810453,36.41,-61.74,-22.0,802,764,777,879,876,33.333333333333336,-0.589,-0.708,0.376
201349,1755598810454,36.41,-61.75,-22.02,808,763,783,864,870,50.0,-0.588,-0.707,0.377
201379,1755598810457,36.4,-61.79,-22.03,803,764,771,876,883,33.333333333333336,-0.591,-0.709,0.378
201409,1755598810459,36.42,-61.76,-22.01,811,771,787,872,871,33.333333333333336,-0.592,-0.71,0.379
201429,1755598810460,36.41,-61.73,-22.0,801,771,782,868,870,50.0,-0.588,-0.709,0.378
201450,1755598810463,36.4,-61.73,-22.0,803,770,778,872,876,47.61904761904762,-0.587,-0.708,0.377
201480,1755598810465,36.38,-61.76,-22.02,801,772,782,866,879,33.333333333333336,-0.589,-0.707,0.377
201509,1755598810467,36.35,-61.76,-22.04,800,769,777,871,872,34.48275862068966,-0.59,-0.707,0.377
201539,1755598810469,36.34,-61.78,-22.05,805,768,782,868,875,33.333333333333336,-0.59,-0.709,0.378
201569,1755598810471,36.32,-61.8,-22.05,804,763,776,866,878,33.333333333333336,-0.589,-0.71,0.378
201599,1755598810473,36.33,-61.78,-22.05,796,767,776,871,884,33.333333333333336,-0.591,-0.711,0.379
201629,1755598810476,36.34,-61.76,-22.02,798,765,772,873,874,33.333333333333336,-0.591,-0.711,0.381
201659,1755598810478,36.37,-61.77,-22.01,808,768,775,867,882,33.333333333333336,-0.589,-0.71,0.377
201689,1755598810480,36.35,-61.79,-22.01,800,770,782,872,882,33.333333333333336,-0.588,-0.709,0.377
201718,1755598810482,36.38,-61.78,-22.0,806,765,779,867,890,34.48275862068966,-0.59,-0.71,0.382
201748,1755598810485,36.38,-61.74,-21.98,807,761,780,869,886,33.333333333333336,-0.589,-0.708,0.38
201768,1755598810487,36.37,-61.73,-21.98,803,771,777,864,871,50.0,-0.587,-0.707,0.378
201798,1755598810489,36.36,-61.74,-22.0,799,765,780,869,879,33.333333333333336,-0.589,-0.707,0.379
201828,1755598810491,36.37,-61.74,-22.0,805,777,782,872,879,33.333333333333336,-0.589,-0.708,0.379
201848,1755598810493,36.36,-61.74,-22.0,801,769,779,862,882,50.0,-0.59,-0.708,0.378
201878,1755598810496,36.41,-61.74,-21.99,802,763,763,871,875,33.333333333333336,-0.59,-0.709,0.378
201908,1755598810498,36.42,-61.74,-21.98,803,768,777,871,884,33.333333333333336,-0.59,-0.71,0.381
201938,1755598810500,36.46,-61.77,-21.96,794,770,786,867,877,33.333333333333336,-0.589,-0.709,0.379
201968,1755598810502,36.46,-61.78,-21.96,803,763,780,869,877,33.333333333333336,-0.588,-0.706,0.379
201997,1755598810504,36.52,-61.78,-21.96,804,773,776,869,876,34.48275862068966,-0.593,-0.709,0.38
202027,1755598810506,36.49,-61.76,-21.94,808,760,782,864,881,33.333333333333336,-0.589,-0.709,0.378
202057,1755598810508,36.54,-61.71,-21.93,805,778,775,872,878,33.333333333333336,-0.59,-0.711,0.378
202077,1755598810510,36.56,-61.67,-21.91,798,769,785,870,874,50.0,-0.593,-0.712,0.379
202107,1755598810512,36.6,-61.56,-21.87,803,767,777,874,879,33.333333333333336,-0.596,-0.709,0.373
202137,1755598810515,36.47,-61.48,-21.88,802,773,776,873,880,33.333333333333336,-0.592,-0.701,0.367
202167,1755598810517,36.47,-61.64,-21.98,799,770,781,872,870,33.333333333333336,-0.595,-0.702,0.368
202197,1755598810519,36.47,-61.91,-22.06,795,775,784,872,875,33.333333333333336,-0.598,-0.712,0.374
202226,1755598810521,36.51,-62.08,-22.05,804,762,778,868,870,34.48275862068966,-0.603,-0.721,0.385
202256,1755598810523,36.67,-61.82,-21.95,799,761,779,871,881,33.333333333333336,-0.611,-0.727,0.4
202286,1755598810525,37.17,-61.31,-21.68,803,762,779,876,879,33.333333333333336,-0.604,-0.726,0.404
202316,1755598810526,37.6,-61.41,-21.68,811,770,775,879,884,33.333333333333336,-0.585,-0.71,0.392
202336,1755598810529,37.7,-61.46,-21.73,821,761,771,871,875,50.0,-0.573,-0.695,0.373
202356,1755598810530,37.93,-61.45,-21.77,813,758,779,877,879,50.0,-0.571,-0.69,0.363
202386,1755598810532,38.33,-61.36,-21.97,812,767,772,875,889,33.333333333333336,-0.577,-0.692,0.352
202416,1755598810535,38.64,-61.9,-22.1,816,764,795,877,887,33.333333333333336,-0.599,-0.7,0.342
202436,1755598810536,38.66,-62.07,-22.1,815,766,780,872,877,50.0,-0.605,-0.707,0.343
202456,1755598810539,38.56,-62.25,-22.16,813,768,781,872,881,50.0,-0.587,-0.704,0.325
202486,1755598810541,38.55,-62.37,-22.11,818,768,771,877,867,33.333333333333336,-0.592,-0.712,0.335
202516,1755598810542,38.39,-61.97,-22.07,812,770,776,869,879,33.333333333333336,-0.582,-0.703,0.361
202536,1755598810544,38.35,-61.81,-22.1,818,772,783,870,875,50.0,-0.58,-0.698,0.365
202556,1755598810547,38.44,-61.87,-22.13,814,768,781,868,877,50.0,-0.596,-0.711,0.358
202586,1755598810549,38.37,-61.91,-22.16,808,766,781,875,883,33.333333333333336,-0.596,-0.715,0.381
202616,1755598810551,38.41,-61.31,-22.23,816,764,773,867,887,33.333333333333336,-0.589,-0.711,0.376
202646,1755598810553,38.67,-60.88,-22.16,809,773,777,872,879,33.333333333333336,-0.611,-0.718,0.376
202676,1755598810555,38.76,-60.16,-21.94,822,766,777,872,876,33.333333333333336,-0.612,-0.712,0.377
202696,1755598810557,39.01,-59.79,-21.8,812,764,777,872,879,50.0,-0.612,-0.709,0.37
202726,1755598810559,39.52,-59.43,-21.62,817,770,778,874,875,33.333333333333336,-0.617,-0.709,0.355
202756,1755598810561,39.82,-59.37,-21.41,812,766,777,868,874,33.333333333333336,-0.619,-0.705,0.351
202786,1755598810563,40.53,-59.34,-21.24,816,770,773,869,876,33.333333333333336,-0.599,-0.689,0.356
202816,1755598810565,41.26,-59.38,-21.24,816,766,780,874,878,33.333333333333336,-0.604,-0.679,0.347
202846,1755598810567,41.54,-59.8,-21.33,817,767,787,875,875,33.333333333333336,-0.627,-0.679,0.33
202875,1755598810569,41.88,-60.24,-21.25,822,765,779,871,882,34.48275862068966,-0.65,-0.687,0.322
202896,1755598810571,42.13,-60.48,-21.11,831,769,778,870,888,47.61904761904762,-0.654,-0.694,0.332
202925,1755598810573,42.01,-60.3,-21.02,825,761,782,875,886,34.48275862068966,-0.628,-0.68,0.343
202955,1755598810575,41.89,-60.42,-21.19,822,767,779,871,877,33.333333333333336,-0.617,-0.676,0.341
202985,1755598810577,41.64,-60.57,-21.35,824,774,779,870,872,33.333333333333336,-0.623,-0.677,0.332
203015,1755598810579,41.64,-60.94,-21.47,823,766,777,871,874,33.333333333333336,-0.634,-0.683,0.335
203045,1755598810581,41.69,-61.31,-21.48,812,762,779,871,872,33.333333333333336,-0.645,-0.691,0.338
203065,1755598810583,41.7,-61.55,-21.48,824,770,785,864,876,50.0,-0.649,-0.695,0.34
203095,1755598810585,41.72,-61.71,-21.45,818,771,784,868,862,33.333333333333336,-0.645,-0.695,0.35
203125,1755598810588,41.74,-61.82,-21.42,817,772,776,872,873,33.333333333333336,-0.635,-0.686,0.324
203155,1755598810590,42.12,-62.44,-21.49,813,768,778,874,876,33.333333333333336,-0.656,-0.699,0.342
203184,1755598810592,41.92,-62.36,-21.41,817,767,775,871,883,34.48275862068966,-0.639,-0.684,0.327
203205,1755598810594,41.72,-62.53,-21.42,816,774,781,873,874,47.61904761904762,-0.627,-0.673,0.291
203235,1755598810596,42.11,-63.3,-21.49,813,765,776,872,870,33.333333333333336,-0.65,-0.688,0.279
203255,1755598810599,42.5,-63.72,-21.41,813,758,776,879,877,50.0,-0.672,-0.703,0.299
203275,1755598810601,42.76,-63.8,-21.27,812,772,778,892,880,50.0,-0.684,-0.705,0.312
203305,1755598810603,42.55,-63.85,-21.03,815,766,780,903,874,33.333333333333336,-0.662,-0.696,0.297
203335,1755598810605,42.25,-64.16,-20.91,809,772,777,911,878,33.333333333333336,-0.648,-0.696,0.289
203364,1755598810607,42.14,-64.54,-20.86,820,764,776,915,877,34.48275862068966,-0.656,-0.708,0.296
203394,1755598810609,42.1,-64.97,-20.69,814,769,780,925,888,33.333333333333336,-0.654,-0.704,0.284
203424,1755598810611,42.22,-65.53,-20.59,810,764,773,0,908,33.333333333333336,-0.661,-0.704,0.278
203454,1755598810613,42.47,-66.2,-20.44,819,768,783,0,892,33.333333333333336,-0.668,-0.709,0.276
203484,1755598810615,42.62,-66.58,-20.15,807,775,781,1,910,33.333333333333336,-0.681,-0.71,0.273
203504,1755598810617,42.55,-66.7,-19.94,805,773,782,0,908,50.0,-0.676,-0.703,0.261
203534,1755598810619,42.52,-66.78,-19.75,808,768,777,10,910,33.333333333333336,-0.673,-0.704,0.26
203564,1755598810621,42.46,-66.59,-19.6,814,771,781,0,923,33.333333333333336,-0.672,-0.7,0.263
203594,1755598810623,42.29,-66.45,-19.56,802,770,780,11,916,33.333333333333336,-0.661,-0.692,0.262
203624,1755598810625,42.27,-66.36,-19.56,807,772,781,8,926,33.333333333333336,-0.661,-0.692,0.262
203654,1755598810627,42.38,-66.35,-19.56,810,779,767,0,925,33.333333333333336,-0.671,-0.695,0.257
203683,1755598810629,42.3,-66.27,-19.52,803,769,780,0,928,34.48275862068966,-0.674,-0.695,0.253
203704,1755598810631,42.2,-66.21,-19.48,810,772,775,1,932,47.61904761904762,-0.67,-0.689,0.254
203724,1755598810633,42.47,-66.16,-19.48,809,775,777,7,927,50.0,-0.666,-0.682,0.256
203754,1755598810635,42.71,-66.02,-19.45,807,778,778,0,920,33.333333333333336,-0.675,-0.684,0.254
203783,1755598810637,42.72,-65.8,-19.42,808,775,781,1,933,34.48275862068966,-0.685,-0.685,0.25
203813,1755598810638,42.4,-65.52,-19.45,816,779,787,0,931,33.333333333333336,-0.679,-0.678,0.26
203843,1755598810641,42.21,-65.52,-19.55,814,783,773,0,926,33.333333333333336,-0.669,-0.679,0.26
203863,1755598810643,42.18,-65.61,-19.6,815,779,785,0,928,50.0,-0.676,-0.688,0.262
203883,1755598810645,42.18,-65.66,-19.54,812,779,771,3,927,50.0,-0.687,-0.699,0.267
203913,1755598810646,42.05,-65.7,-19.35,803,783,775,0,926,33.333333333333336,-0.685,-0.696,0.27
203943,1755598810649,41.85,-65.8,-19.26,816,773,779,0,916,33.333333333333336,-0.679,-0.685,0.275
203963,1755598810651,41.79,-65.78,-19.08,807,775,775,8,918,50.0,-0.678,-0.682,0.282
203993,1755598810653,41.94,-65.54,-18.68,804,773,773,0,917,33.333333333333336,-0.676,-0.678,0.276
204013,1755598810655,42.0,-65.34,-18.38,811,773,780,5,924,50.0,-0.675,-0.68,0.28
204043,1755598810657,42.13,-65.49,-18.04,809,778,775,17,933,33.333333333333336,-0.681,-0.676,0.284
204063,1755598810660,42.17,-65.93,-17.86,813,782,783,1,932,50.0,-0.682,-0.671,0.278
204093,1755598810662,41.98,-66.73,-17.71,798,779,776,2,923,33.333333333333336,-0.679,-0.666,0.278
204123,1755598810664,42.27,-67.42,-17.61,799,779,785,0,921,33.333333333333336,-0.681,-0.655,0.271
204153,1755598810666,42.55,-68.1,-17.81,795,770,778,0,929,33.333333333333336,-0.697,-0.658,0.27
204182,1755598810667,42.58,-68.69,-17.86,795,785,777,0,940,34.48275862068966,-0.707,-0.67,0.273
204203,1755598810669,42.75,-68.95,-17.81,780,779,777,0,929,47.61904761904762,-0.713,-0.669,0.271
204232,1755598810671,42.7,-68.99,-17.91,787,779,788,6,939,34.48275862068966,-0.716,-0.67,0.263
204262,1755598810673,42.39,-68.71,-18.08,800,782,782,8,939,33.333333333333336,-0.703,-0.657,0.268
204292,1755598810675,42.62,-68.51,-18.25,791,781,776,1,939,33.333333333333336,-0.71,-0.655,0.277
204322,1755598810678,42.54,-68.35,-18.31,795,794,780,6,935,33.333333333333336,-0.705,-0.659,0.271
204352,1755598810680,42.43,-68.53,-18.59,798,784,782,10,951,33.333333333333336,-0.699,-0.674,0.258
204382,1755598810682,42.36,-68.45,-18.65,792,789,780,7,933,33.333333333333336,-0.699,-0.679,0.253
204411,1755598810684,42.25,-68.27,-18.71,801,778,781,0,939,34.48275862068966,-0.701,-0.68,0.246
204441,1755598810686,42.16,-68.05,-18.87,790,782,777,10,939,33.333333333333336,-0.69,-0.667,0.245
204471,1755598810687,42.14,-68.17,-19.15,791,773,783,2,936,33.333333333333336,-0.675,-0.659,0.245
204501,1755598810690,42.42,-69.19,-19.61,794,783,779,1,935,33.333333333333336,-0.666,-0.657,0.246
204531,1755598810691,42.83,-70.15,-20.02,802,777,778,0,924,33.333333333333336,-0.672,-0.671,0.265
204560,1755598810693,42.58,-70.37,-20.17,791,769,773,0,925,34.48275862068966,-0.68,-0.677,0.268
204590,1755598810695,42.22,-70.52,-20.03,803,776,779,8,924,33.333333333333336,-0.703,-0.698,0.279
204611,1755598810697,41.84,-70.15,-19.85,800,786,774,0,923,47.61904761904762,-0.711,-0.7,0.274
204641,1755598810700,41.28,-69.46,-19.38,803,778,778,4,929,33.333333333333336,-0.694,-0.684,0.237
204671,1755598810701,42.21,-69.11,-18.7,795,769,780,6,922,33.333333333333336,-0.712,-0.689,0.228
204701,1755598810704,43.06,-68.22,-17.6,796,775,781,3,922,33.333333333333336,-0.719,-0.706,0.239
204731,1755598810706,43.53,-67.66,-16.68,800,773,783,3,921,33.333333333333336,-0.72,-0.701,0.238
204751,1755598810708,43.92,-67.08,-15.88,803,776,787,6,922,50.0,-0.706,-0.681,0.247
204781,1755598810710,44.77,-65.62,-14.36,797,773,782,21,919,33.333333333333336,-0.729,-0.679,0.254
204811,1755598810712,45.9,-64.68,-13.49,798,766,786,4,914,33.333333333333336,-0.742,-0.664,0.259
204840,1755598810714,45.87,-64.75,-13.44,801,772,786,0,925,34.48275862068966,-0.699,-0.638,0.254
204861,1755598810716,45.89,-65.14,-13.58,795,771,782,0,926,47.61904761904762,-0.712,-0.63,0.261
204891,1755598810718,46.15,-66.16,-13.69,799,781,786,0,923,33.333333333333336,-0.755,-0.632,0.261
204920,1755598810720,45.61,-67.02,-13.63,794,780,788,1,924,34.48275862068966,-0.755,-0.614,0.244
204950,1755598810722,45.85,-67.97,-13.88,800,778,786,0,923,33.333333333333336,-0.766,-0.613,0.241
204980,1755598810724,45.9,-68.16,-14.23,795,787,796,0,917,33.333333333333336,-0.78,-0.62,0.245
205010,1755598810727,45.18,-67.86,-14.68,794,782,789,11,917,33.333333333333336,-0.757,-0.604,0.238
205040,1755598810728,44.87,-68.17,-15.66,792,783,791,2,937,33.333333333333336,-0.714,-0.593,0.232
205070,1755598810730,45.12,-68.35,-16.73,789,781,793,0,922,33.333333333333336,-0.724,-0.603,0.236
205100,1755598810732,45.44,-68.46,-17.89,798,780,788,0,930,33.333333333333336,-0.748,-0.622,0.247
205130,1755598810734,44.97,-68.1,-18.35,798,780,780,0,948,33.333333333333336,-0.71,-0.624,0.235
205150,1755598810736,45.16,-68.71,-18.99,795,779,786,0,932,50.0,-0.709,-0.64,0.23
205170,1755598810738,45.67,-69.44,-19.66,798,799,790,2,933,50.0,-0.732,-0.655,0.222
205200,1755598810741,46.19,-69.91,-19.93,797,776,781,2,931,33.333333333333336,-0.736,-0.662,0.226
205230,1755598810742,46.38,-70.63,-20.13,796,782,780,6,938,33.333333333333336,-0.707,-0.666,0.212
205260,1755598810745,46.91,-71.34,-20.38,806,772,787,11,954,33.333333333333336,-0.715,-0.679,0.21
205290,1755598810747,46.46,-71.76,-20.32,811,769,778,5,939,33.333333333333336,-0.733,-0.686,0.196
205310,1755598810749,46.0,-71.7,-20.35,809,779,781,3,934,50.0,-0.724,-0.7,0.214
205340,1755598810751,45.44,-71.01,-20.65,817,772,783,0,927,33.333333333333336,-0.679,-0.685,0.194
205370,1755598810753,46.07,-71.37,-21.51,824,778,774,0,932,33.333333333333336,-0.682,-0.692,0.189
205399,1755598810755,46.52,-71.6,-21.59,820,774,781,12,929,34.48275862068966,-0.705,-0.713,0.182
205429,1755598810758,46.54,-71.98,-21.72,829,776,783,19,937,33.333333333333336,-0.684,-0.712,0.175
205459,1755598810760,47.0,-72.51,-21.99,828,773,788,0,936,33.333333333333336,-0.67,-0.708,0.166
205489,1755598810762,47.53,-73.24,-22.21,829,773,779,20,933,33.333333333333336,-0.678,-0.716,0.165
205509,1755598810764,47.67,-73.45,-22.23,830,777,784,0,947,50.0,-0.695,-0.731,0.168
205539,1755598810766,46.89,-73.38,-22.17,826,770,775,10,929,33.333333333333336,-0.661,-0.72,0.159
205569,1755598810768,46.19,-73.65,-21.97,829,775,786,0,922,33.333333333333336,-0.659,-0.722,0.156
205598,1755598810770,45.95,-74.02,-21.61,827,785,782,0,932,34.48275862068966,-0.676,-0.732,0.15
205628,1755598810772,45.74,-74.8,-21.47,824,775,787,0,942,33.333333333333336,-0.676,-0.73,0.155
205658,1755598810774,45.49,-75.49,-21.25,825,786,787,6,932,33.333333333333336,-0.667,-0.731,0.159
205688,1755598810776,45.48,-75.86,-21.13,823,781,781,17,947,33.333333333333336,-0.64,-0.718,0.141
205718,1755598810778,46.16,-76.4,-21.31,821,784,786,16,942,33.333333333333336,-0.675,-0.734,0.14
205748,1755598810780,45.98,-76.16,-21.32,832,780,785,2,930,33.333333333333336,-0.665,-0.723,0.127
205778,1755598810781,46.35,-76.29,-21.6,834,788,776,0,933,33.333333333333336,-0.668,-0.727,0.115
205798,1755598810783,46.71,-75.98,-21.88,818,783,784,7,933,50.0,-0.675,-0.735,0.108
205828,1755598810785,47.45,-75.55,-22.44,824,782,783,0,943,33.333333333333336,-0.666,-0.729,0.11
205848,1755598810787,48.0,-75.14,-22.85,824,785,778,0,935,50.0,-0.661,-0.726,0.118
205878,1755598810789,48.53,-75.31,-23.51,826,784,788,12,926,33.333333333333336,-0.665,-0.74,0.11
205908,1755598810791,48.62,-75.83,-23.81,827,776,789,0,914,33.333333333333336,-0.689,-0.767,0.095
205928,1755598810793,48.48,-76.03,-23.79,828,781,792,0,934,50.0,-0.708,-0.778,0.097
205958,1755598810795,47.72,-75.44,-23.71,831,783,788,0,932,33.333333333333336,-0.68,-0.75,0.1
205988,1755598810797,47.13,-75.0,-23.79,827,780,788,38,924,33.333333333333336,-0.668,-0.753,0.106
206018,1755598810799,46.31,-74.84,-24.14,830,779,782,0,921,33.333333333333336,-0.658,-0.753,0.117
206048,1755598810801,45.0,-74.09,-24.38,833,781,786,0,912,33.333333333333336,-0.653,-0.752,0.128
206077,1755598810803,43.64,-72.92,-24.74,835,774,784,0,923,34.48275862068966,-0.648,-0.759,0.148
206107,1755598810805,42.62,-70.96,-24.75,836,770,787,0,913,33.333333333333336,-0.642,-0.748,0.177
206128,1755598810806,42.1,-70.18,-24.87,835,774,791,9,913,47.61904761904762,-0.633,-0.737,0.161
206158,1755598810809,42.16,-70.3,-24.87,831,781,789,3,904,33.333333333333336,-0.649,-0.756,0.15
206187,1755598810811,42.46,-70.15,-24.69,833,776,783,936,910,34.48275862068966,-0.635,-0.754,0.172
206217,1755598810813,42.09,-69.65,-24.64,833,772,779,933,918,33.333333333333336,-0.62,-0.741,0.192
206247,1755598810815,42.03,-69.57,-24.69,831,774,787,933,914,33.333333333333336,-0.622,-0.745,0.198
206277,1755598810817,42.21,-69.51,-24.57,837,778,786,923,920,33.333333333333336,-0.63,-0.751,0.212
206297,1755598810819,42.21,-69.6,-24.49,832,767,779,936,904,50.0,-0.624,-0.743,0.219
206327,1755598810821,42.26,-69.79,-24.58,839,770,778,934,903,33.333333333333336,-0.613,-0.736,0.221
206357,1755598810822,42.16,-69.82,-24.74,835,768,785,937,903,33.333333333333336,-0.61,-0.735,0.224
206377,1755598810825,42.04,-69.89,-24.86,837,776,786,931,909,50.0,-0.614,-0.739,0.234
206407,1755598810826,41.7,-70.25,-25.12,841,775,784,936,911,33.333333333333336,-0.609,-0.743,0.232
206437,1755598810829,41.73,-70.54,-25.29,838,769,783,931,896,33.333333333333336,-0.61,-0.75,0.235
206457,1755598810831,41.75,-70.65,-25.41,838,765,784,936,903,50.0,-0.613,-0.755,0.246
206477,1755598810833,41.63,-70.7,-25.49,834,772,776,932,911,50.0,-0.612,-0.752,0.258
206507,1755598810834,41.28,-70.49,-25.73,833,774,783,938,905,33.333333333333336,-0.61,-0.746,0.26
206537,1755598810836,41.14,-70.35,-25.94,830,775,780,927,903,33.333333333333336,-0.599,-0.749,0.271
206567,1755598810839,40.76,-70.35,-26.2,839,773,777,938,906,33.333333333333336,-0.603,-0.758,0.275
206597,1755598810841,40.4,-70.39,-26.49,839,776,782,932,904,33.333333333333336,-0.594,-0.756,0.254
206627,1755598810842,40.25,-70.06,-26.68,836,769,779,923,922,33.333333333333336,-0.595,-0.75,0.232
206657,1755598810845,40.27,-69.87,-26.8,836,768,774,923,904,33.333333333333336,-0.605,-0.752,0.229
206677,1755598810847,40.22,-69.88,-26.84,835,769,779,932,900,50.0,-0.618,-0.757,0.238
206707,1755598810850,40.34,-69.94,-26.82,840,772,774,935,905,33.333333333333336,-0.612,-0.763,0.255
206737,1755598810851,40.66,-69.55,-26.62,842,770,786,939,904,33.333333333333336,-0.604,-0.768,0.262
206767,1755598810854,40.65,-69.32,-26.54,833,774,776,937,893,33.333333333333336,-0.59,-0.759,0.253
206796,1755598810856,40.53,-69.57,-26.61,843,760,770,933,904,34.48275862068966,-0.584,-0.756,0.24
206826,1755598810857,40.54,-69.43,-26.68,847,770,779,925,893,33.333333333333336,-0.584,-0.76,0.264
206846,1755598810859,40.48,-69.3,-26.74,847,775,782,938,895,50.0,-0.579,-0.76,0.282
206867,1755598810861,40.47,-69.35,-26.8,844,771,780,942,930,47.61904761904762,-0.579,-0.758,0.275
206897,1755598810864,40.9,-70.12,-27.11,844,759,779,935,899,33.333333333333336,-0.582,-0.759,0.253
206927,1755598810866,41.41,-70.48,-27.08,842,770,785,931,903,33.333333333333336,-0.61,-0.772,0.292
206957,1755598810868,41.17,-70.25,-26.98,841,768,783,930,901,33.333333333333336,-0.59,-0.76,0.266
206986,1755598810870,40.9,-70.51,-27.15,841,766,774,934,901,34.48275862068966,-0.574,-0.755,0.253
207016,1755598810871,41.05,-71.07,-27.41,845,765,775,926,909,33.333333333333336,-0.583,-0.765,0.25
207046,1755598810873,41.26,-71.19,-27.42,850,762,773,936,896,33.333333333333336,-0.593,-0.771,0.258
207076,1755598810875,41.29,-71.04,-27.37,846,775,775,925,904,33.333333333333336,-0.59,-0.769,0.257
207106,1755598810878,41.14,-70.96,-27.5,846,771,784,925,905,33.333333333333336,-0.582,-0.767,0.25
207136,1755598810880,40.89,-71.16,-27.72,842,768,786,933,897,33.333333333333336,-0.582,-0.77,0.246
207156,1755598810882,40.67,-71.2,-27.8,840,771,777,935,901,50.0,-0.583,-0.775,0.244
207186,1755598810884,40.55,-71.17,-27.95,842,773,784,942,901,33.333333333333336,-0.586,-0.774,0.247
207216,1755598810886,40.31,-71.02,-28.02,846,771,774,931,907,33.333333333333336,-0.587,-0.776,0.248
207245,1755598810888,40.01,-70.95,-28.08,840,770,780,934,906,34.48275862068966,-0.584,-0.778,0.243
207275,1755598810890,39.95,-71.13,-28.13,841,776,780,934,911,33.333333333333336,-0.578,-0.777,0.237
207295,1755598810892,39.8,-71.32,-28.2,848,769,777,923,899,50.0,-0.574,-0.779,0.241
207325,1755598810894,39.57,-71.65,-28.29,842,781,774,933,899,33.333333333333336,-0.575,-0.782,0.236
207355,1755598810896,39.46,-72.07,-28.43,836,771,778,928,904,33.333333333333336,-0.569,-0.779,0.234
207385,1755598810898,39.4,-72.53,-28.52,837,770,775,937,903,33.333333333333336,-0.577,-0.787,0.239
207415,1755598810900,39.35,-72.64,-28.45,835,772,771,937,907,33.333333333333336,-0.574,-0.79,0.238
207445,1755598810902,39.28,-72.98,-28.49,841,777,790,938,900,33.333333333333336,-0.565,-0.789,0.235
207474,1755598810904,39.23,-73.44,-28.58,832,772,781,931,906,34.48275862068966,-0.556,-0.784,0.23
207504,1755598810906,39.09,-74.27,-29.02,830,771,776,938,904,33.333333333333336,-0.557,-0.776,0.222
207534,1755598810908,39.03,-74.12,-29.02,825,777,775,931,902,33.333333333333336,-0.585,-0.808,0.233
207564,1755598810910,38.61,-73.9,-28.78,825,770,779,934,888,33.333333333333336,-0.594,-0.812,0.23
207594,1755598810912,38.12,-73.8,-28.55,830,772,776,933,893,33.333333333333336,-0.572,-0.803,0.216
207624,1755598810914,38.19,-73.28,-28.27,829,777,793,937,905,33.333333333333336,-0.562,-0.795,0.215
207644,1755598810916,38.17,-73.03,-28.21,826,776,777,932,900,50.0,-0.551,-0.791,0.207
207674,1755598810918,37.71,-73.25,-28.37,815,763,782,928,897,33.333333333333336,-0.557,-0.793,0.211
207704,1755598810920,37.16,-73.95,-28.55,817,773,778,940,900,33.333333333333336,-0.544,-0.79,0.203
207724,1755598810922,36.97,-74.52,-28.74,815,776,779,932,913,50.0,-0.555,-0.796,0.198
207744,1755598810924,36.83,-75.04,-28.79,810,768,778,926,898,50.0,-0.574,-0.805,0.198
207764,1755598810926,36.71,-75.21,-28.68,817,765,782,923,900,50.0,-0.56,-0.803,0.202
207784,1755598810928,36.72,-75.22,-28.62,812,778,781,923,900,50.0,-0.534,-0.784,0.202
207814,1755598810931,36.84,-75.84,-28.99,813,759,785,924,900,33.333333333333336,-0.539,-0.795,0.202
207844,1755598810933,36.38,-76.22,-29.17,821,771,775,937,910,33.333333333333336,-0.554,-0.812,0.206
207864,1755598810935,36.14,-76.16,-29.19,809,774,779,921,906,50.0,-0.558,-0.818,0.201
207884,1755598810937,36.08,-75.93,-29.13,813,768,784,917,897,50.0,-0.556,-0.816,0.195
207914,1755598810939,36.04,-75.62,-29.0,812,767,778,928,902,33.333333333333336,-0.555,-0.818,0.209
207944,1755598810941,36.19,-75.01,-28.77,811,760,779,919,905,33.333333333333336,-0.549,-0.809,0.206
207964,1755598810943,36.26,-74.61,-28.8,806,766,776,925,899,50.0,-0.539,-0.802,0.205
207984,1755598810946,36.25,-74.18,-28.88,816,777,774,930,910,50.0,-0.528,-0.8,0.199
208014,1755598810947,36.46,-73.87,-29.01,811,772,778,917,906,33.333333333333336,-0.537,-0.808,0.193
208044,1755598810949,36.73,-73.55,-29.08,819,769,778,928,912,33.333333333333336,-0.541,-0.81,0.203
208064,1755598810951,36.91,-73.41,-29.21,815,768,776,922,904,50.0,-0.539,-0.807,0.208
208084,1755598810954,37.07,-73.3,-29.31,818,769,777,930,899,50.0,-0.532,-0.795,0.216
208114,1755598810956,37.35,-73.26,-29.5,817,776,783,928,903,33.333333333333336,-0.538,-0.791,0.217
208134,1755598810958,37.31,-73.28,-29.68,824,766,781,933,906,50.0,-0.548,-0.796,0.222
208154,1755598810959,37.03,-73.19,-29.8,823,767,777,929,902,50.0,-0.543,-0.801,0.223
