timestamp_ms,recv_timestamp_ms,pitch,roll,yaw,flex1,flex2,flex3,flex4,flex5,sampling_hz,accel_x,accel_y,accel_z
150852,1755597947526,23.69,-44.53,2.67,761,771,826,872,831,33.333333333333336,-0.401,-0.645,0.65
150881,1755597947528,23.65,-44.54,2.64,773,766,815,868,845,34.48275862068966,-0.401,-0.644,0.65
150911,1755597947530,23.63,-44.55,2.63,769,767,817,868,836,33.333333333333336,-0.401,-0.646,0.651
150940,1755597947532,23.65,-44.54,2.65,772,772,814,873,837,34.48275862068966,-0.402,-0.646,0.652
150970,1755597947534,23.64,-44.54,2.65,771,770,822,866,835,33.333333333333336,-0.402,-0.645,0.651
151000,1755597947536,23.64,-44.54,2.65,779,769,822,869,841,33.333333333333336,-0.401,-0.645,0.651
151030,1755597947538,23.63,-44.54,2.65,767,766,826,869,844,33.333333333333336,-0.401,-0.645,0.651
151059,1755597947540,23.62,-44.53,2.65,769,775,825,871,843,34.48275862068966,-0.401,-0.646,0.652
151089,1755597947542,23.61,-44.52,2.66,769,764,819,873,834,33.333333333333336,-0.4,-0.645,0.652
151118,1755597947544,23.61,-44.51,2.67,771,769,823,874,831,34.48275862068966,-0.399,-0.644,0.654
151148,1755597947546,23.61,-44.48,2.66,772,774,805,868,830,33.333333333333336,-0.398,-0.645,0.653
151177,1755597947548,23.61,-44.45,2.65,765,774,808,868,830,34.48275862068966,-0.399,-0.645,0.651
151207,1755597947550,23.61,-44.47,2.65,773,772,816,868,833,33.333333333333336,-0.4,-0.646,0.651
151236,1755597947553,23.63,-44.46,2.68,767,769,817,865,842,34.48275862068966,-0.4,-0.644,0.653
151265,1755597947555,23.65,-44.43,2.67,769,771,816,872,847,34.48275862068966,-0.4,-0.641,0.653
151295,1755597947557,23.61,-44.44,2.63,767,763,818,866,841,33.333333333333336,-0.401,-0.643,0.652
151325,1755597947559,23.61,-44.45,2.63,772,767,821,869,837,33.333333333333336,-0.402,-0.646,0.652
151354,1755597947561,23.67,-44.45,2.66,770,767,820,867,838,34.48275862068966,-0.402,-0.645,0.652
151384,1755597947563,23.63,-44.42,2.64,771,779,811,874,835,33.333333333333336,-0.402,-0.645,0.652
151414,1755597947565,23.6,-44.4,2.63,766,769,818,868,835,33.333333333333336,-0.4,-0.647,0.652
151444,1755597947567,23.67,-44.42,2.66,772,775,817,871,840,33.333333333333336,-0.399,-0.645,0.651
151473,1755597947569,23.65,-44.45,2.63,764,770,811,871,833,34.48275862068966,-0.4,-0.645,0.651
151503,1755597947571,23.62,-44.44,2.62,773,766,820,865,837,33.333333333333336,-0.401,-0.647,0.652
151532,1755597947573,23.68,-44.4,2.65,768,767,822,873,833,34.48275862068966,-0.401,-0.644,0.652
151562,1755597947575,23.68,-44.42,2.64,770,764,815,864,839,33.333333333333336,-0.4,-0.644,0.65
151591,1755597947577,23.64,-44.44,2.63,769,767,812,868,838,34.48275862068966,-0.401,-0.645,0.65
151621,1755597947579,23.66,-44.43,2.65,774,764,821,868,841,33.333333333333336,-0.403,-0.646,0.652
151650,1755597947581,23.68,-44.41,2.67,767,773,828,869,838,34.48275862068966,-0.402,-0.646,0.651
151680,1755597947583,23.68,-44.42,2.68,767,772,827,866,847,33.333333333333336,-0.4,-0.644,0.648
151709,1755597947585,23.66,-44.45,2.66,771,764,820,873,840,34.48275862068966,-0.4,-0.644,0.65
151739,1755597947587,23.66,-44.47,2.66,767,772,820,869,841,33.333333333333336,-0.401,-0.646,0.653
151768,1755597947589,23.68,-44.43,2.7,769,770,825,872,838,34.48275862068966,-0.401,-0.645,0.65
151798,1755597947592,23.67,-44.44,2.7,770,771,813,865,837,33.333333333333336,-0.4,-0.643,0.647
151828,1755597947593,23.63,-44.51,2.67,766,772,815,865,846,33.333333333333336,-0.4,-0.644,0.649
151857,1755597947596,23.64,-44.49,2.67,774,769,818,868,835,34.48275862068966,-0.4,-0.645,0.652
151887,1755597947598,23.67,-44.44,2.7,771,776,818,866,837,33.333333333333336,-0.4,-0.645,0.651
151916,1755597947600,23.66,-44.47,2.69,766,773,822,870,839,34.48275862068966,-0.399,-0.644,0.647
151946,1755597947602,23.64,-44.51,2.66,767,769,819,868,843,33.333333333333336,-0.399,-0.644,0.647
151975,1755597947603,23.65,-44.53,2.66,772,768,819,868,835,34.48275862068966,-0.401,-0.646,0.65
152005,1755597947606,23.67,-44.5,2.68,766,772,824,872,833,33.333333333333336,-0.4,-0.645,0.65
152035,1755597947609,23.65,-44.48,2.67,768,770,819,874,848,33.333333333333336,-0.398,-0.645,0.648
152064,1755597947611,23.64,-44.51,2.64,768,768,815,869,838,34.48275862068966,-0.399,-0.646,0.647
152093,1755597947613,23.66,-44.54,2.64,769,764,826,874,842,34.48275862068966,-0.399,-0.645,0.648
152123,1755597947615,23.67,-44.53,2.65,764,770,818,872,842,33.333333333333336,-0.4,-0.645,0.65
152152,1755597947618,23.65,-44.5,2.64,771,758,814,869,830,34.48275862068966,-0.402,-0.646,0.649
152182,1755597947619,23.65,-44.52,2.65,768,764,812,872,843,33.333333333333336,-0.401,-0.645,0.645
152211,1755597947622,23.68,-44.57,2.66,772,765,819,869,839,34.48275862068966,-0.401,-0.646,0.647
152241,1755597947624,23.67,-44.55,2.66,771,764,814,864,839,33.333333333333336,-0.399,-0.647,0.65
152270,1755597947625,23.64,-44.52,2.65,773,766,821,873,835,34.48275862068966,-0.398,-0.647,0.65
152300,1755597947628,23.66,-44.52,2.65,769,774,810,871,835,33.333333333333336,-0.4,-0.646,0.648
152330,1755597947630,23.7,-44.52,2.68,766,765,805,870,850,33.333333333333336,-0.402,-0.647,0.647
152359,1755597947632,23.69,-44.52,2.69,771,768,821,866,838,34.48275862068966,-0.4,-0.645,0.646
152389,1755597947634,23.65,-44.54,2.67,769,772,824,873,837,33.333333333333336,-0.399,-0.646,0.648
152419,1755597947636,23.66,-44.52,2.68,770,769,805,868,840,33.333333333333336,-0.401,-0.647,0.649
152449,1755597947638,23.68,-44.5,2.71,768,767,812,871,841,33.333333333333336,-0.4,-0.644,0.647
152478,1755597947641,23.64,-44.53,2.7,773,764,819,868,836,34.48275862068966,-0.399,-0.644,0.646
152508,1755597947643,23.63,-44.55,2.69,771,763,826,869,836,33.333333333333336,-0.4,-0.646,0.649
152537,1755597947645,23.63,-44.5,2.7,771,770,823,869,843,34.48275862068966,-0.399,-0.647,0.652
152567,1755597947647,23.64,-44.49,2.72,774,776,824,874,843,33.333333333333336,-0.399,-0.646,0.648
152597,1755597947649,23.64,-44.53,2.72,772,774,817,871,829,33.333333333333336,-0.4,-0.644,0.645
152617,1755597947651,23.62,-44.57,2.71,770,769,822,867,838,50.0,-0.401,-0.644,0.645
152646,1755597947653,23.62,-44.58,2.73,765,767,818,874,840,34.48275862068966,-0.401,-0.646,0.651
152676,1755597947655,23.65,-44.53,2.76,768,760,817,870,833,33.333333333333336,-0.398,-0.647,0.652
152696,1755597947657,23.65,-44.52,2.76,771,771,815,870,843,50.0,-0.396,-0.645,0.65
152726,1755597947659,23.6,-44.55,2.72,771,775,822,870,836,33.333333333333336,-0.396,-0.643,0.647
152755,1755597947661,23.6,-44.55,2.71,769,772,822,869,845,34.48275862068966,-0.4,-0.644,0.649
152785,1755597947663,23.65,-44.52,2.75,770,774,820,871,850,33.333333333333336,-0.402,-0.646,0.648
152814,1755597947665,23.68,-44.52,2.78,767,770,836,867,836,34.48275862068966,-0.4,-0.645,0.647
152844,1755597947667,23.68,-44.54,2.77,772,764,826,861,839,33.333333333333336,-0.398,-0.644,0.648
152873,1755597947669,23.65,-44.54,2.73,773,774,818,871,840,34.48275862068966,-0.399,-0.644,0.649
152903,1755597947671,23.62,-44.53,2.73,769,765,813,873,837,33.333333333333336,-0.401,-0.644,0.649
152923,1755597947673,23.63,-44.53,2.72,768,771,806,868,827,50.0,-0.402,-0.644,0.648
152952,1755597947675,23.64,-44.53,2.73,770,762,811,876,841,34.48275862068966,-0.402,-0.645,0.649
152982,1755597947677,23.65,-44.53,2.73,768,772,822,868,837,33.333333333333336,-0.401,-0.645,0.648
153012,1755597947679,23.64,-44.53,2.72,767,773,819,874,840,33.333333333333336,-0.4,-0.644,0.648
153041,1755597947681,23.65,-44.55,2.71,770,771,818,868,838,34.48275862068966,-0.4,-0.645,0.649
153071,1755597947683,23.66,-44.54,2.72,771,773,818,871,841,33.333333333333336,-0.401,-0.646,0.65
153100,1755597947685,23.65,-44.49,2.74,767,772,816,874,843,34.48275862068966,-0.4,-0.646,0.65
153130,1755597947687,23.65,-44.47,2.75,764,768,824,870,841,33.333333333333336,-0.4,-0.645,0.649
153160,1755597947689,23.65,-44.45,2.77,763,764,816,870,833,33.333333333333336,-0.4,-0.644,0.648
153180,1755597947691,23.65,-44.45,2.77,769,762,819,868,844,50.0,-0.401,-0.644,0.648
153209,1755597947693,23.65,-44.47,2.78,771,770,817,878,844,34.48275862068966,-0.402,-0.643,0.648
153239,1755597947696,23.64,-44.48,2.8,769,768,823,878,828,33.333333333333336,-0.402,-0.645,0.651
153268,1755597947698,23.68,-44.44,2.84,773,765,825,872,845,34.48275862068966,-0.401,-0.645,0.652
153298,1755597947700,23.66,-44.4,2.84,771,769,822,865,838,33.333333333333336,-0.398,-0.642,0.65
153327,1755597947702,23.63,-44.43,2.81,772,767,820,879,846,34.48275862068966,-0.399,-0.643,0.649
153357,1755597947704,23.66,-44.4,2.83,771,766,824,870,844,33.333333333333336,-0.399,-0.643,0.652
153386,1755597947706,23.69,-44.3,2.86,778,766,819,874,839,34.48275862068966,-0.401,-0.645,0.654
153416,1755597947708,23.67,-44.25,2.87,774,766,828,876,836,33.333333333333336,-0.4,-0.643,0.652
153445,1755597947710,23.71,-44.22,2.92,765,769,818,877,846,34.48275862068966,-0.403,-0.643,0.653
153475,1755597947713,23.69,-44.11,2.96,767,767,827,883,841,33.333333333333336,-0.404,-0.641,0.655
153504,1755597947715,23.76,-44.02,3.02,767,773,839,883,835,34.48275862068966,-0.408,-0.644,0.659
153534,1755597947717,23.81,-43.9,3.09,774,764,834,890,844,33.333333333333336,-0.408,-0.639,0.657
153563,1755597947719,23.84,-43.9,3.12,765,764,824,874,838,34.48275862068966,-0.406,-0.636,0.656
153593,1755597947721,23.83,-43.98,3.11,767,770,833,894,839,33.333333333333336,-0.405,-0.637,0.654
153622,1755597947723,23.89,-43.96,3.14,767,774,833,896,843,34.48275862068966,-0.405,-0.637,0.656
153652,1755597947725,23.97,-43.94,3.21,771,764,843,898,837,33.333333333333336,-0.407,-0.637,0.661
153681,1755597947727,24.05,-43.89,3.19,769,769,845,898,844,34.48275862068966,-0.408,-0.635,0.659
153711,1755597947729,23.93,-43.86,3.13,770,776,851,896,847,33.333333333333336,-0.409,-0.63,0.657
153740,1755597947731,23.87,-43.84,3.05,766,769,848,902,848,34.48275862068966,-0.404,-0.632,0.658
153770,1755597947733,23.82,-43.87,3.02,767,773,854,914,846,33.333333333333336,-0.406,-0.63,0.657
153799,1755597947735,23.92,-44.0,3.06,768,770,866,911,853,34.48275862068966,-0.408,-0.633,0.656
153829,1755597947737,24.11,-44.07,3.12,767,771,858,920,859,33.333333333333336,-0.409,-0.633,0.657
153859,1755597947739,24.07,-44.09,3.11,766,773,861,912,858,33.333333333333336,-0.407,-0.632,0.657
153888,1755597947741,23.97,-44.07,3.05,767,768,855,914,861,34.48275862068966,-0.402,-0.631,0.655
153918,1755597947743,23.91,-44.18,2.92,765,772,850,922,877,33.333333333333336,-0.399,-0.631,0.653
153947,1755597947745,23.87,-44.33,2.8,769,766,849,921,895,34.48275862068966,-0.402,-0.633,0.654
153977,1755597947748,23.88,-44.29,2.89,774,775,848,917,893,33.333333333333336,-0.405,-0.637,0.658
154006,1755597947750,24.06,-44.31,3.01,771,766,855,918,906,34.48275862068966,-0.406,-0.637,0.655
154036,1755597947751,24.29,-44.49,3.1,769,764,860,925,911,33.333333333333336,-0.407,-0.635,0.646
154065,1755597947753,24.44,-44.52,3.22,772,763,861,941,895,34.48275862068966,-0.415,-0.637,0.652
154095,1755597947756,24.47,-44.34,3.31,766,769,852,917,915,33.333333333333336,-0.413,-0.639,0.655
154125,1755597947757,24.46,-44.21,3.43,771,772,855,928,907,33.333333333333336,-0.408,-0.635,0.652
154154,1755597947759,24.69,-44.26,3.54,767,767,864,924,911,34.48275862068966,-0.406,-0.633,0.648
154184,1755597947762,24.91,-44.26,3.64,776,766,869,932,909,33.333333333333336,-0.414,-0.636,0.65
154213,1755597947763,24.84,-44.21,3.64,772,767,869,940,916,34.48275862068966,-0.418,-0.638,0.647
154243,1755597947766,24.7,-44.24,3.61,770,771,868,939,908,33.333333333333336,-0.416,-0.635,0.641
154272,1755597947768,24.79,-44.34,3.64,767,769,863,942,917,34.48275862068966,-0.418,-0.634,0.64
154292,1755597947770,24.92,-44.37,3.69,769,768,867,934,907,50.0,-0.421,-0.636,0.645
154322,1755597947771,25.0,-44.35,3.71,766,769,868,938,912,33.333333333333336,-0.424,-0.637,0.648
154351,1755597947774,25.02,-44.33,3.76,766,770,880,939,907,34.48275862068966,-0.425,-0.635,0.644
154381,1755597947776,25.09,-44.34,3.78,765,768,874,938,909,33.333333333333336,-0.426,-0.636,0.641
154401,1755597947778,25.19,-44.35,3.82,769,772,884,934,905,50.0,-0.429,-0.636,0.642
154430,1755597947779,25.29,-44.3,3.89,767,769,866,941,913,34.48275862068966,-0.43,-0.637,0.644
154460,1755597947781,25.28,-44.23,3.98,770,767,872,937,901,33.333333333333336,-0.431,-0.635,0.642
154490,1755597947783,25.34,-44.24,4.04,769,766,874,939,903,33.333333333333336,-0.43,-0.634,0.639
154519,1755597947785,25.4,-44.31,4.03,768,772,867,935,909,34.48275862068966,-0.428,-0.632,0.638
154549,1755597947787,25.44,-44.34,4.0,772,764,879,927,914,33.333333333333336,-0.431,-0.634,0.639
154578,1755597947789,25.46,-44.38,4.01,775,766,874,941,903,34.48275862068966,-0.433,-0.632,0.634
154608,1755597947791,25.49,-44.55,3.97,768,772,875,936,906,33.333333333333336,-0.434,-0.63,0.634
154628,1755597947794,25.54,-44.61,3.96,768,764,878,935,903,50.0,-0.437,-0.632,0.638
154658,1755597947796,25.55,-44.66,3.96,770,764,880,940,904,33.333333333333336,-0.438,-0.633,0.639
154687,1755597947798,25.65,-44.71,3.97,773,767,866,933,906,34.48275862068966,-0.438,-0.634,0.638
154717,1755597947800,25.74,-44.81,3.96,770,765,866,935,905,33.333333333333336,-0.437,-0.636,0.636
154747,1755597947802,25.74,-44.96,3.94,765,773,873,940,908,33.333333333333336,-0.438,-0.637,0.632
154776,1755597947804,25.77,-45.04,3.96,774,775,878,936,900,34.48275862068966,-0.442,-0.638,0.635
154806,1755597947805,25.85,-45.07,3.99,769,763,880,937,909,33.333333333333336,-0.444,-0.64,0.635
154835,1755597947808,25.92,-45.11,4.03,767,767,872,939,905,34.48275862068966,-0.443,-0.639,0.631
154865,1755597947809,25.99,-45.08,4.14,769,761,866,937,905,33.333333333333336,-0.441,-0.639,0.628
154894,1755597947811,26.04,-45.05,4.16,772,772,879,939,907,34.48275862068966,-0.441,-0.64,0.629
154914,1755597947814,26.08,-45.02,4.17,768,765,874,945,908,50.0,-0.441,-0.64,0.629
154944,1755597947815,26.06,-45.01,4.21,771,766,876,936,908,33.333333333333336,-0.442,-0.639,0.628
154974,1755597947817,26.2,-44.93,4.31,769,777,860,938,903,33.333333333333336,-0.444,-0.638,0.628
155003,1755597947820,26.31,-44.91,4.36,762,776,866,938,911,34.48275862068966,-0.444,-0.638,0.628
155033,1755597947822,26.32,-44.9,4.39,763,771,875,940,912,33.333333333333336,-0.442,-0.637,0.624
155062,1755597947823,26.37,-44.91,4.42,769,768,870,935,910,34.48275862068966,-0.444,-0.636,0.623
155092,1755597947826,26.4,-44.94,4.42,769,774,870,935,905,33.333333333333336,-0.446,-0.636,0.622
155121,1755597947828,26.41,-44.98,4.41,772,766,866,934,900,34.48275862068966,-0.447,-0.635,0.622
155151,1755597947830,26.45,-44.95,4.4,770,756,875,930,914,33.333333333333336,-0.449,-0.636,0.623
155180,1755597947832,26.4,-44.94,4.36,770,769,870,924,906,34.48275862068966,-0.45,-0.636,0.621
155210,1755597947834,26.39,-45.01,4.34,769,768,871,932,903,33.333333333333336,-0.45,-0.636,0.621
155239,1755597947836,26.42,-45.15,4.31,767,768,871,938,910,34.48275862068966,-0.452,-0.637,0.621
155269,1755597947837,26.43,-45.25,4.32,770,766,869,933,904,33.333333333333336,-0.45,-0.637,0.62
155299,1755597947840,26.37,-45.38,4.27,767,766,865,941,905,33.333333333333336,-0.449,-0.637,0.622
155328,1755597947841,26.35,-45.42,4.24,772,763,871,938,909,34.48275862068966,-0.451,-0.639,0.624
155358,1755597947843,26.3,-45.47,4.21,770,764,873,935,899,33.333333333333336,-0.453,-0.64,0.622
155388,1755597947845,26.32,-45.44,4.24,767,760,873,938,906,33.333333333333336,-0.453,-0.642,0.623
155417,1755597947847,26.38,-45.39,4.31,782,774,875,943,908,34.48275862068966,-0.451,-0.644,0.623
155437,1755597947849,26.42,-45.4,4.35,762,778,866,941,905,50.0,-0.449,-0.642,0.621
155467,1755597947851,26.57,-45.47,4.4,767,766,876,938,900,33.333333333333336,-0.449,-0.64,0.617
155496,1755597947853,26.74,-45.58,4.44,768,772,862,928,909,34.48275862068966,-0.454,-0.642,0.619
155526,1755597947855,26.94,-45.68,4.62,767,772,871,935,903,33.333333333333336,-0.458,-0.644,0.618
155555,1755597947857,27.21,-45.88,4.87,770,766,860,936,911,34.48275862068966,-0.463,-0.645,0.618
155585,1755597947859,27.4,-45.95,5.06,767,767,884,940,912,33.333333333333336,-0.463,-0.646,0.617
155614,1755597947861,27.43,-45.89,5.17,767,768,873,940,901,34.48275862068966,-0.457,-0.642,0.612
155644,1755597947863,27.41,-45.77,5.21,767,772,869,929,907,33.333333333333336,-0.456,-0.64,0.61
155674,1755597947865,27.39,-45.76,5.19,768,776,869,936,907,33.333333333333336,-0.46,-0.64,0.61
155703,1755597947867,27.36,-45.72,5.16,767,766,867,931,899,34.48275862068966,-0.464,-0.64,0.609
155733,1755597947870,27.3,-45.64,5.13,769,763,863,934,913,33.333333333333336,-0.465,-0.639,0.608
155762,1755597947872,27.15,-45.57,5.04,769,778,861,935,916,34.48275862068966,-0.466,-0.638,0.607
155792,1755597947874,26.94,-45.54,4.9,770,768,867,938,908,33.333333333333336,-0.461,-0.636,0.607
155821,1755597947876,26.75,-45.65,4.69,774,775,871,935,904,34.48275862068966,-0.459,-0.635,0.608
155851,1755597947878,26.67,-45.81,4.53,768,768,860,935,903,33.333333333333336,-0.461,-0.639,0.611
155880,1755597947880,26.65,-45.88,4.44,770,768,863,940,903,34.48275862068966,-0.463,-0.641,0.61
155910,1755597947882,26.64,-45.96,4.4,776,769,862,929,904,33.333333333333336,-0.462,-0.642,0.611
155940,1755597947884,26.69,-46.06,4.36,762,767,873,956,906,33.333333333333336,-0.459,-0.643,0.614
155969,1755597947886,26.75,-46.07,4.35,772,776,861,931,908,34.48275862068966,-0.457,-0.645,0.615
155999,1755597947888,26.77,-46.09,4.34,771,758,861,933,905,33.333333333333336,-0.455,-0.648,0.613
156028,1755597947890,26.78,-46.19,4.34,770,765,868,935,910,34.48275862068966,-0.455,-0.649,0.61
156058,1755597947892,26.84,-46.21,4.38,774,768,861,931,919,33.333333333333336,-0.456,-0.649,0.612
156087,1755597947894,26.9,-46.21,4.43,764,772,871,938,903,34.48275862068966,-0.458,-0.649,0.611
156117,1755597947896,26.9,-46.21,4.45,774,760,873,939,905,33.333333333333336,-0.457,-0.648,0.608
156146,1755597947898,26.85,-46.28,4.44,771,769,863,933,909,34.48275862068966,-0.454,-0.646,0.605
156176,1755597947900,26.84,-46.38,4.43,768,763,863,932,901,33.333333333333336,-0.452,-0.648,0.61
156205,1755597947902,26.86,-46.37,4.43,767,770,868,933,899,34.48275862068966,-0.453,-0.652,0.614
156235,1755597947904,26.85,-46.32,4.41,773,766,858,936,902,33.333333333333336,-0.454,-0.652,0.609
156264,1755597947906,26.69,-46.3,4.34,769,771,869,933,896,34.48275862068966,-0.452,-0.65,0.605
156294,1755597947908,26.61,-46.36,4.31,771,775,873,925,900,33.333333333333336,-0.451,-0.652,0.608
156323,1755597947910,26.67,-46.31,4.36,765,770,860,936,903,34.48275862068966,-0.453,-0.655,0.613
156353,1755597947912,26.71,-46.24,4.42,765,773,865,928,907,33.333333333333336,-0.452,-0.653,0.611
156383,1755597947913,26.68,-46.27,4.4,768,766,868,939,901,33.333333333333336,-0.451,-0.649,0.607
156412,1755597947915,26.71,-46.34,4.39,775,771,866,940,907,34.48275862068966,-0.451,-0.648,0.605
156442,1755597947918,26.73,-46.38,4.39,771,771,857,937,904,33.333333333333336,-0.452,-0.649,0.609
156471,1755597947920,26.74,-46.37,4.39,758,770,867,926,909,34.48275862068966,-0.45,-0.649,0.611
156501,1755597947922,26.75,-46.37,4.36,767,771,869,932,904,33.333333333333336,-0.449,-0.651,0.608
156530,1755597947924,26.73,-46.4,4.35,769,766,864,935,898,34.48275862068966,-0.451,-0.653,0.605
156560,1755597947926,26.74,-46.46,4.34,763,771,864,927,903,33.333333333333336,-0.451,-0.653,0.604
156589,1755597947928,26.71,-46.49,4.34,769,762,863,930,901,34.48275862068966,-0.45,-0.652,0.608
156619,1755597947930,26.69,-46.51,4.32,771,774,863,930,916,33.333333333333336,-0.448,-0.654,0.609
156648,1755597947932,26.66,-46.63,4.25,771,773,869,931,896,34.48275862068966,-0.446,-0.654,0.605
156678,1755597947935,26.52,-46.79,4.13,774,764,866,932,904,33.333333333333336,-0.447,-0.654,0.603
156707,1755597947937,26.3,-46.86,4.0,771,770,865,930,907,34.48275862068966,-0.446,-0.655,0.606
156737,1755597947940,26.13,-46.86,3.91,770,768,860,928,909,33.333333333333336,-0.447,-0.658,0.609
156766,1755597947941,26.2,-46.87,3.94,767,762,859,933,910,34.48275862068966,-0.449,-0.661,0.611
156796,1755597947944,26.29,-46.78,4.04,771,771,860,928,906,33.333333333333336,-0.446,-0.661,0.608
156825,1755597947945,26.33,-46.75,4.11,771,768,870,932,912,34.48275862068966,-0.444,-0.66,0.606
156855,1755597947947,26.35,-46.76,4.14,764,772,866,930,915,33.333333333333336,-0.443,-0.659,0.605
156884,1755597947966,26.42,-46.73,4.21,769,766,865,930,899,34.48275862068966,-0.443,-0.659,0.608
156914,1755597947996,26.47,-46.7,4.24,767,768,864,932,920,33.333333333333336,-0.443,-0.659,0.608
156943,1755597948025,26.43,-46.75,4.22,764,766,866,932,894,34.48275862068966,-0.441,-0.658,0.605
156973,1755597948055,26.41,-46.77,4.21,768,771,858,933,906,33.333333333333336,-0.442,-0.659,0.603
157002,1755597948084,26.43,-46.77,4.24,769,776,884,931,909,34.48275862068966,-0.444,-0.659,0.604
157032,1755597948114,26.43,-46.8,4.27,764,774,858,926,916,33.333333333333336,-0.445,-0.658,0.606
157061,1755597948143,26.43,-46.81,4.29,769,773,851,931,902,34.48275862068966,-0.444,-0.656,0.606
157091,1755597948173,26.45,-46.79,4.3,770,776,868,931,909,33.333333333333336,-0.445,-0.657,0.606
157121,1755597948202,26.46,-46.78,4.34,769,773,866,931,910,33.333333333333336,-0.445,-0.659,0.606
157150,1755597948232,26.46,-46.8,4.37,768,764,870,928,914,34.48275862068966,-0.443,-0.659,0.605
157180,1755597948261,26.44,-46.82,4.35,768,771,865,935,927,33.333333333333336,-0.443,-0.658,0.605
157209,1755597948291,26.39,-46.83,4.33,770,768,865,931,905,34.48275862068966,-0.445,-0.658,0.606
157239,1755597948320,26.46,-46.79,4.38,772,764,865,927,907,33.333333333333336,-0.446,-0.659,0.607
157268,1755597948350,26.51,-46.79,4.4,764,767,874,933,906,34.48275862068966,-0.447,-0.658,0.606
157298,1755597948379,26.47,-46.75,4.4,768,759,859,935,914,33.333333333333336,-0.446,-0.655,0.604
157327,1755597948409,26.47,-46.69,4.42,773,772,860,928,909,34.48275862068966,-0.446,-0.656,0.606
157357,1755597948439,26.52,-46.66,4.47,774,770,862,938,913,33.333333333333336,-0.447,-0.658,0.607
157387,1755597948468,26.47,-46.65,4.48,762,771,865,928,918,33.333333333333336,-0.445,-0.655,0.604
157416,1755597948498,26.39,-46.66,4.47,770,776,866,934,912,34.48275862068966,-0.446,-0.653,0.603
157446,1755597948528,26.38,-46.69,4.47,770,769,876,931,914,33.333333333333336,-0.446,-0.653,0.606
157476,1755597948557,26.41,-46.7,4.49,768,768,859,927,910,33.333333333333336,-0.447,-0.656,0.609
157505,1755597948587,26.47,-46.67,4.55,771,764,860,933,906,34.48275862068966,-0.447,-0.655,0.609
157535,1755597948617,26.47,-46.64,4.57,767,765,859,930,908,33.333333333333336,-0.444,-0.653,0.609
157565,1755597948646,26.47,-46.63,4.55,767,771,867,924,901,33.333333333333336,-0.443,-0.652,0.609
157594,1755597948676,26.45,-46.64,4.53,772,764,868,929,909,34.48275862068966,-0.447,-0.652,0.606
157624,1755597948705,26.47,-46.65,4.54,769,766,865,934,904,33.333333333333336,-0.449,-0.653,0.608
157653,1755597948735,26.92,-46.63,4.57,771,768,860,933,901,34.48275862068966,-0.447,-0.653,0.612
157682,1755597948764,26.97,-46.53,4.62,767,769,869,944,912,34.48275862068966,-0.448,-0.652,0.612
157712,1755597948794,27.01,-46.45,4.67,764,767,866,925,911,33.333333333333336,-0.447,-0.653,0.608
157741,1755597948824,26.99,-46.46,4.69,770,770,861,929,902,34.48275862068966,-0.448,-0.651,0.606
157771,1755597948853,26.97,-46.44,4.72,765,765,856,932,912,33.333333333333336,-0.449,-0.651,0.608
157801,1755597948883,27.0,-46.41,4.74,768,762,867,934,913,33.333333333333336,-0.45,-0.651,0.609
157831,1755597948913,26.99,-46.4,4.76,770,766,873,932,905,33.333333333333336,-0.451,-0.652,0.609
157851,1755597948932,26.99,-46.39,4.78,767,775,873,922,906,50.0,-0.451,-0.652,0.61
157880,1755597948962,27.02,-46.36,4.8,769,779,860,928,929,34.48275862068966,-0.45,-0.649,0.61
157909,1755597948991,27.0,-46.37,4.78,770,770,867,932,911,34.48275862068966,-0.45,-0.648,0.609
157939,1755597949021,26.96,-46.4,4.76,767,773,874,930,899,33.333333333333336,-0.452,-0.649,0.609
157969,1755597949050,26.97,-46.38,4.78,770,766,856,929,911,33.333333333333336,-0.454,-0.65,0.61
157998,1755597949080,26.97,-46.37,4.81,768,766,862,928,918,34.48275862068966,-0.452,-0.649,0.61
158027,1755597949109,26.94,-46.34,4.83,771,771,866,929,900,34.48275862068966,-0.45,-0.647,0.611
158057,1755597949139,26.94,-46.31,4.83,765,766,852,931,907,33.333333333333336,-0.45,-0.648,0.612
158087,1755597949169,26.93,-46.34,4.83,771,767,859,927,903,33.333333333333336,-0.451,-0.649,0.611
158116,1755597949198,26.95,-46.31,4.85,771,768,867,930,903,34.48275862068966,-0.45,-0.648,0.612
158146,1755597949227,26.97,-46.27,4.86,770,777,865,924,907,33.333333333333336,-0.449,-0.646,0.612
158175,1755597949257,26.94,-46.3,4.84,766,767,873,935,908,34.48275862068966,-0.45,-0.646,0.611
158205,1755597949286,26.94,-46.32,4.83,772,774,869,926,920,33.333333333333336,-0.45,-0.647,0.611
158234,1755597949316,26.98,-46.3,4.85,767,764,865,927,914,34.48275862068966,-0.451,-0.646,0.611
158264,1755597949346,26.99,-46.26,4.87,769,767,858,933,909,33.333333333333336,-0.452,-0.647,0.613
158294,1755597949376,26.99,-46.27,4.86,770,772,869,927,907,33.333333333333336,-0.451,-0.647,0.614
158323,1755597949405,27.0,-46.26,4.85,762,773,853,932,913,34.48275862068966,-0.45,-0.646,0.612
158353,1755597949435,27.0,-46.28,4.85,771,772,863,931,909,33.333333333333336,-0.452,-0.646,0.611
158382,1755597949464,26.99,-46.26,4.87,768,764,862,932,908,34.48275862068966,-0.454,-0.646,0.61
158412,1755597949494,26.98,-46.25,4.9,764,773,874,928,907,33.333333333333336,-0.453,-0.647,0.611
158441,1755597949523,26.97,-46.21,4.94,771,773,857,929,909,34.48275862068966,-0.451,-0.645,0.613
158471,1755597949553,26.95,-46.13,4.94,772,766,863,931,910,33.333333333333336,-0.449,-0.646,0.616
158500,1755597949582,26.95,-46.04,4.95,775,768,865,922,907,34.48275862068966,-0.451,-0.648,0.615
158530,1755597949611,26.99,-45.98,4.98,768,769,870,932,903,33.333333333333336,-0.453,-0.646,0.612
158559,1755597949641,27.02,-45.93,5.04,763,765,865,925,916,34.48275862068966,-0.455,-0.643,0.613
158589,1755597949671,27.02,-45.89,5.07,768,768,859,930,902,33.333333333333336,-0.455,-0.642,0.616
158618,1755597949700,27.05,-45.86,5.09,770,762,858,931,901,34.48275862068966,-0.453,-0.643,0.618
158648,1755597949730,27.09,-45.82,5.12,769,771,863,930,904,33.333333333333336,-0.452,-0.642,0.617
158678,1755597949760,27.1,-45.81,5.1,768,771,859,925,916,33.333333333333336,-0.452,-0.641,0.618
158707,1755597949789,27.1,-45.76,5.09,769,762,864,928,901,34.48275862068966,-0.453,-0.64,0.619
158737,1755597949819,27.12,-45.74,5.08,769,771,860,924,902,33.333333333333336,-0.454,-0.639,0.618
158766,1755597949848,27.13,-45.74,5.09,767,757,864,922,899,34.48275862068966,-0.457,-0.639,0.617
158796,1755597949878,27.12,-45.72,5.1,772,775,859,938,918,33.333333333333336,-0.458,-0.639,0.617
158825,1755597949907,27.13,-45.7,5.13,773,763,866,927,909,34.48275862068966,-0.458,-0.64,0.618
158855,1755597949937,27.15,-45.71,5.15,761,772,860,925,904,33.333333333333336,-0.457,-0.64,0.619
158885,1755597949967,27.14,-45.7,5.14,770,766,865,930,907,33.333333333333336,-0.456,-0.638,0.618
158915,1755597949996,27.12,-45.68,5.14,773,770,866,933,895,33.333333333333336,-0.456,-0.639,0.619
158944,1755597950026,27.15,-45.68,5.15,769,766,864,928,907,34.48275862068966,-0.456,-0.64,0.619
158974,1755597950055,27.16,-45.69,5.14,769,765,848,925,906,33.333333333333336,-0.456,-0.638,0.618
159003,1755597950085,27.14,-45.69,5.11,770,768,863,921,903,34.48275862068966,-0.456,-0.637,0.619
159032,1755597950114,27.14,-45.7,5.1,771,767,862,926,901,34.48275862068966,-0.457,-0.638,0.621
159062,1755597950144,27.15,-45.7,5.08,765,770,864,925,901,33.333333333333336,-0.458,-0.638,0.621
159091,1755597950173,27.18,-45.7,5.09,768,769,861,926,898,34.48275862068966,-0.457,-0.638,0.62
159121,1755597950202,27.18,-45.65,5.1,768,774,862,924,897,33.333333333333336,-0.456,-0.638,0.62
159150,1755597950232,27.18,-45.65,5.08,772,768,861,931,895,34.48275862068966,-0.456,-0.637,0.618
159180,1755597950261,27.16,-45.69,5.05,762,761,866,930,907,33.333333333333336,-0.457,-0.637,0.617
159209,1755597950291,27.18,-45.67,5.06,771,772,862,927,903,34.48275862068966,-0.457,-0.638,0.62
159239,1755597950321,27.23,-45.65,5.07,770,772,863,931,893,33.333333333333336,-0.457,-0.64,0.622
159268,1755597950350,27.28,-45.64,5.08,765,775,863,925,912,34.48275862068966,-0.456,-0.639,0.619
159298,1755597950380,27.29,-45.67,5.07,773,762,861,928,899,33.333333333333336,-0.454,-0.637,0.617
159318,1755597950400,27.29,-45.7,5.06,773,765,859,925,902,50.0,-0.456,-0.637,0.617
159348,1755597950429,27.26,-45.7,5.04,771,757,862,924,896,33.333333333333336,-0.457,-0.638,0.619
159377,1755597950459,27.26,-45.66,5.05,766,766,863,930,903,34.48275862068966,-0.457,-0.639,0.618
159406,1755597950488,27.27,-45.67,5.06,770,774,860,930,900,34.48275862068966,-0.455,-0.638,0.616
159436,1755597950518,27.27,-45.72,5.02,770,766,860,930,909,33.333333333333336,-0.455,-0.638,0.617
159465,1755597950547,27.25,-45.74,4.98,775,771,862,929,903,34.48275862068966,-0.456,-0.637,0.617
159495,1755597950577,27.23,-45.73,4.98,771,766,862,927,891,33.333333333333336,-0.458,-0.64,0.618
159525,1755597950606,27.26,-45.73,5.01,770,762,858,929,905,33.333333333333336,-0.457,-0.641,0.617
159554,1755597950636,27.26,-45.72,5.01,768,774,863,927,902,34.48275862068966,-0.455,-0.639,0.615
159584,1755597950666,27.2,-45.74,4.99,768,775,859,933,907,33.333333333333336,-0.454,-0.638,0.616
