timestamp_ms,recv_timestamp_ms,pitch,roll,yaw,flex1,flex2,flex3,flex4,flex5,sampling_hz,accel_x,accel_y,accel_z
13275,1755598313720,18.48,20.09,7.94,765,774,784,816,830,34.48275862068966,-0.429,0.233,0.916
13304,1755598313750,18.39,22.07,9.42,766,771,781,819,834,34.48275862068966,-0.389,0.278,0.89
13334,1755598313778,19.05,23.36,10.54,769,769,782,814,832,33.333333333333336,-0.354,0.315,0.861
13363,1755598313808,19.9,23.79,11.1,773,775,779,810,833,34.48275862068966,-0.313,0.349,0.828
13392,1755598313837,20.64,23.49,11.08,772,765,788,822,821,34.48275862068966,-0.283,0.378,0.802
13422,1755598313867,21.08,22.59,10.95,769,769,781,812,831,33.333333333333336,-0.267,0.405,0.793
13451,1755598313896,20.83,21.7,10.87,765,772,776,815,830,34.48275862068966,-0.256,0.421,0.802
13481,1755598313926,20.35,20.98,10.68,768,766,789,815,826,33.333333333333336,-0.241,0.438,0.814
13510,1755598313955,20.23,19.82,10.19,771,767,783,817,823,34.48275862068966,-0.231,0.447,0.821
13540,1755598313985,20.33,18.43,9.38,771,767,793,830,830,33.333333333333336,-0.232,0.448,0.82
13569,1755598314014,20.58,16.43,8.3,769,765,793,833,835,34.48275862068966,-0.239,0.426,0.818
13599,1755598314043,20.48,14.53,7.28,762,767,786,844,834,33.333333333333336,-0.249,0.401,0.82
13628,1755598314073,20.4,12.18,5.81,769,772,783,849,837,34.48275862068966,-0.236,0.372,0.816
13657,1755598314103,20.88,8.99,3.2,767,775,787,852,833,34.48275862068966,-0.237,0.334,0.815
13687,1755598314131,21.99,5.53,1.38,769,765,782,851,845,33.333333333333336,-0.262,0.283,0.842
13716,1755598314161,23.39,2.43,-0.27,775,778,789,852,832,34.48275862068966,-0.298,0.216,0.888
13745,1755598314190,24.35,-0.16,-1.93,771,767,789,862,827,34.48275862068966,-0.349,0.153,0.926
13775,1755598314220,24.69,-1.55,-2.57,773,766,791,871,837,33.333333333333336,-0.394,0.101,0.952
13804,1755598314250,25.25,-2.2,-2.7,772,770,780,881,834,34.48275862068966,-0.416,0.05,0.966
13834,1755598314279,26.0,-2.42,-2.8,771,772,791,884,835,33.333333333333336,-0.433,0.008,0.957
13864,1755598314309,26.74,-2.57,-2.83,771,768,781,885,840,33.333333333333336,-0.44,-0.023,0.934
13893,1755598314338,27.42,-3.0,-2.87,766,767,790,891,840,34.48275862068966,-0.442,-0.045,0.907
13923,1755598314368,28.38,-3.76,-3.05,768,773,787,884,836,33.333333333333336,-0.442,-0.065,0.883
13952,1755598314397,29.57,-4.43,-3.23,770,765,784,883,843,34.48275862068966,-0.451,-0.084,0.87
13982,1755598314427,31.6,-5.46,-3.43,764,769,793,890,837,33.333333333333336,-0.45,-0.096,0.862
14012,1755598314457,34.96,-7.13,-3.78,767,765,785,891,831,33.333333333333336,-0.476,-0.112,0.861
14041,1755598314487,38.32,-8.44,-3.72,770,771,782,892,840,34.48275862068966,-0.513,-0.137,0.854
14062,1755598314506,40.42,-9.13,-3.67,772,768,787,893,844,47.61904761904762,-0.548,-0.156,0.832
14091,1755598314536,43.03,-10.11,-3.61,770,761,792,897,836,34.48275862068966,-0.578,-0.175,0.798
14121,1755598314565,45.0,-11.04,-3.72,766,756,787,896,834,33.333333333333336,-0.606,-0.196,0.758
14150,1755598314595,46.16,-11.95,-3.89,765,769,783,896,836,34.48275862068966,-0.633,-0.213,0.72
14180,1755598314625,46.95,-12.75,-4.11,767,765,796,898,825,33.333333333333336,-0.658,-0.228,0.685
14209,1755598314654,47.73,-13.7,-4.43,768,769,790,906,845,34.48275862068966,-0.68,-0.241,0.653
14239,1755598314684,48.81,-14.77,-4.78,769,770,794,906,848,33.333333333333336,-0.709,-0.258,0.63
14268,1755598314714,49.76,-15.59,-5.0,765,772,792,908,855,34.48275862068966,-0.735,-0.272,0.613
14298,1755598314743,50.94,-16.37,-5.08,771,772,799,908,849,33.333333333333336,-0.748,-0.287,0.591
14328,1755598314773,53.23,-17.25,-5.13,767,776,806,906,855,33.333333333333336,-0.766,-0.298,0.572
14357,1755598314802,55.84,-18.06,-5.05,771,770,806,918,848,34.48275862068966,-0.794,-0.313,0.553
14387,1755598314832,57.42,-18.22,-4.68,769,773,812,918,861,33.333333333333336,-0.817,-0.324,0.531
14417,1755598314861,58.41,-17.79,-4.2,767,771,807,913,871,33.333333333333336,-0.825,-0.329,0.504
14446,1755598314891,59.04,-17.28,-3.75,769,771,812,917,870,34.48275862068966,-0.837,-0.326,0.475
14476,1755598314920,58.62,-16.92,-3.43,764,769,824,920,858,33.333333333333336,-0.847,-0.322,0.456
14505,1755598314950,58.31,-16.42,-3.01,762,768,829,917,858,34.48275862068966,-0.848,-0.318,0.428
14534,1755598314979,58.6,-16.19,-2.84,770,772,832,914,865,34.48275862068966,-0.852,-0.311,0.413
14564,1755598315009,59.22,-16.05,-2.73,771,776,840,921,850,33.333333333333336,-0.862,-0.303,0.405
14593,1755598315038,59.91,-16.12,-2.64,771,792,852,927,857,34.48275862068966,-0.865,-0.295,0.389
14623,1755598315068,60.97,-16.72,-2.72,773,772,857,930,875,33.333333333333336,-0.863,-0.291,0.366
14653,1755598315098,62.26,-17.55,-2.97,769,763,865,927,870,33.333333333333336,-0.869,-0.289,0.347
14682,1755598315128,63.52,-18.42,-3.3,772,769,868,932,869,34.48275862068966,-0.87,-0.285,0.322
14702,1755598315147,64.48,-19.3,-3.52,764,767,870,941,889,50.0,-0.89,-0.288,0.307
14732,1755598315177,65.93,-20.13,-3.64,772,776,873,943,893,33.333333333333336,-0.911,-0.289,0.291
14761,1755598315206,67.0,-20.96,-3.51,765,766,869,933,898,34.48275862068966,-0.93,-0.294,0.279
14791,1755598315236,68.09,-21.64,-3.29,767,784,878,937,898,33.333333333333336,-0.93,-0.296,0.262
14820,1755598315265,69.24,-22.19,-2.96,769,769,880,936,896,34.48275862068966,-0.941,-0.297,0.249
14850,1755598315295,69.98,-22.9,-2.59,767,769,878,936,898,33.333333333333336,-0.935,-0.289,0.227
14880,1755598315324,70.8,-23.99,-2.66,762,764,878,931,892,33.333333333333336,-0.923,-0.281,0.202
14909,1755598315354,70.9,-25.21,-2.95,769,771,865,939,905,34.48275862068966,-0.919,-0.279,0.185
14939,1755598315384,70.65,-26.44,-3.35,772,777,875,923,905,33.333333333333336,-0.925,-0.28,0.165
14968,1755598315413,70.26,-27.9,-3.85,771,767,883,931,911,34.48275862068966,-0.927,-0.287,0.152
14998,1755598315443,70.01,-29.28,-4.33,764,769,885,935,910,33.333333333333336,-0.937,-0.295,0.15
15028,1755598315472,69.75,-30.45,-4.65,767,772,886,936,906,33.333333333333336,-0.944,-0.303,0.152
15057,1755598315502,69.73,-31.56,-4.86,767,774,871,933,910,34.48275862068966,-0.949,-0.313,0.161
15086,1755598315531,69.92,-32.31,-4.88,769,768,884,944,902,34.48275862068966,-0.952,-0.319,0.169
15116,1755598315561,70.22,-32.98,-4.86,768,773,879,929,909,33.333333333333336,-0.946,-0.322,0.166
15146,1755598315590,70.87,-33.66,-4.86,766,773,875,944,924,33.333333333333336,-0.945,-0.324,0.16
15175,1755598315620,71.22,-34.34,-4.9,767,769,879,943,911,34.48275862068966,-0.94,-0.327,0.148
15205,1755598315650,71.45,-34.95,-4.97,766,773,877,927,908,33.333333333333336,-0.94,-0.329,0.132
15234,1755598315679,71.55,-35.53,-5.0,772,775,873,946,908,34.48275862068966,-0.943,-0.332,0.12
15264,1755598315709,71.69,-36.18,-5.05,773,769,879,933,913,33.333333333333336,-0.942,-0.333,0.112
15294,1755598315738,71.81,-36.85,-5.12,768,765,886,932,908,33.333333333333336,-0.942,-0.337,0.109
15323,1755598315768,71.8,-37.57,-5.2,769,772,875,931,911,34.48275862068966,-0.938,-0.337,0.104
15353,1755598315798,71.84,-38.3,-5.29,769,766,880,931,909,33.333333333333336,-0.941,-0.338,0.1
15373,1755598315818,71.75,-39.01,-5.35,772,771,868,933,904,50.0,-0.94,-0.337,0.094
15402,1755598315847,71.7,-39.71,-5.46,762,769,888,931,901,34.48275862068966,-0.942,-0.339,0.093
15432,1755598315877,71.64,-40.34,-5.55,769,770,875,922,909,33.333333333333336,-0.941,-0.341,0.093
15461,1755598315906,71.57,-40.89,-5.56,767,769,859,933,909,34.48275862068966,-0.944,-0.343,0.094
15491,1755598315936,71.49,-41.56,-5.54,767,765,870,924,912,33.333333333333336,-0.942,-0.344,0.089
15520,1755598315965,71.48,-42.19,-5.52,768,768,871,939,907,34.48275862068966,-0.942,-0.347,0.087
15550,1755598315995,71.3,-42.74,-5.48,769,771,877,932,910,33.333333333333336,-0.94,-0.347,0.084
15579,1755598316024,71.3,-43.38,-5.46,765,771,879,929,911,34.48275862068966,-0.94,-0.346,0.084
15609,1755598316054,71.28,-44.08,-5.46,769,772,873,929,912,33.333333333333336,-0.938,-0.344,0.087
15638,1755598316083,71.15,-44.69,-5.46,768,769,875,927,906,34.48275862068966,-0.937,-0.344,0.089
15668,1755598316113,71.1,-45.2,-5.44,766,766,883,924,911,33.333333333333336,-0.938,-0.343,0.091
15698,1755598316143,71.01,-45.71,-5.39,763,765,884,926,908,33.333333333333336,-0.942,-0.344,0.094
15727,1755598316172,70.74,-46.22,-5.33,766,765,873,927,904,34.48275862068966,-0.936,-0.345,0.092
15757,1755598316202,70.72,-46.77,-5.32,768,768,873,927,898,33.333333333333336,-0.934,-0.344,0.09
15786,1755598316231,70.67,-47.24,-5.27,762,773,867,921,910,34.48275862068966,-0.94,-0.345,0.096
15816,1755598316261,70.45,-47.65,-5.19,770,769,876,919,910,33.333333333333336,-0.937,-0.344,0.096
15846,1755598316290,70.59,-48.07,-5.14,761,769,877,927,911,33.333333333333336,-0.938,-0.343,0.099
15875,1755598316320,70.6,-48.4,-5.05,765,765,876,925,908,34.48275862068966,-0.942,-0.343,0.104
15905,1755598316349,70.5,-48.6,-4.93,767,766,874,928,904,33.333333333333336,-0.938,-0.336,0.099
15934,1755598316379,70.6,-49.02,-4.93,770,761,876,924,909,34.48275862068966,-0.936,-0.334,0.097
15954,1755598316399,70.68,-49.46,-4.93,767,770,870,923,902,50.0,-0.935,-0.335,0.093
15984,1755598316428,70.69,-49.79,-4.9,767,765,873,920,902,33.333333333333336,-0.939,-0.338,0.095
16013,1755598316458,70.57,-50.11,-4.81,767,776,884,925,904,34.48275862068966,-0.94,-0.337,0.094
16043,1755598316487,70.7,-50.48,-4.72,769,765,872,924,906,33.333333333333336,-0.943,-0.339,0.096
16072,1755598316517,70.99,-50.85,-4.59,769,774,875,919,903,34.48275862068966,-0.948,-0.336,0.093
16102,1755598316546,70.94,-51.2,-4.4,769,770,883,924,927,33.333333333333336,-0.945,-0.333,0.092
16131,1755598316576,70.88,-51.41,-4.24,772,772,876,937,907,34.48275862068966,-0.941,-0.332,0.093
16161,1755598316606,70.79,-51.67,-4.14,768,771,876,931,908,33.333333333333336,-0.939,-0.327,0.093
16190,1755598316635,70.76,-52.06,-4.06,769,763,878,926,900,34.48275862068966,-0.943,-0.324,0.099
16220,1755598316665,70.66,-52.39,-3.95,765,765,870,927,900,33.333333333333336,-0.938,-0.319,0.109
16249,1755598316694,70.66,-52.62,-3.9,771,772,875,926,909,34.48275862068966,-0.935,-0.313,0.116
16279,1755598316724,70.68,-52.82,-3.9,767,770,876,928,903,33.333333333333336,-0.936,-0.31,0.119
16309,1755598316753,70.73,-53.05,-3.94,762,767,870,936,901,33.333333333333336,-0.94,-0.31,0.118
16338,1755598316783,70.71,-53.19,-3.93,772,767,863,922,904,34.48275862068966,-0.945,-0.313,0.116
16368,1755598316812,70.68,-53.35,-3.89,767,774,866,922,899,33.333333333333336,-0.946,-0.318,0.112
16397,1755598316842,70.68,-53.6,-3.83,768,774,878,918,908,34.48275862068966,-0.946,-0.317,0.107
16417,1755598316862,70.68,-53.95,-3.8,772,769,870,921,901,50.0,-0.946,-0.314,0.104
16447,1755598316892,70.67,-54.29,-3.76,766,764,868,919,903,33.333333333333336,-0.947,-0.311,0.106
16476,1755598316921,70.61,-54.59,-3.74,763,775,875,923,902,34.48275862068966,-0.946,-0.308,0.108
16506,1755598316951,70.59,-54.87,-3.73,761,764,875,914,918,33.333333333333336,-0.947,-0.308,0.111
16535,1755598316980,70.63,-55.18,-3.71,769,767,873,923,902,34.48275862068966,-0.948,-0.309,0.114
16565,1755598317010,70.71,-55.42,-3.66,773,771,874,920,899,33.333333333333336,-0.949,-0.31,0.115
16594,1755598317039,70.8,-55.65,-3.61,773,761,875,924,901,34.48275862068966,-0.949,-0.31,0.115
16624,1755598317069,70.83,-55.91,-3.56,770,766,870,923,895,33.333333333333336,-0.949,-0.308,0.113
16654,1755598317098,70.82,-56.19,-3.51,768,773,876,927,903,33.333333333333336,-0.948,-0.306,0.11
16683,1755598317128,70.79,-56.48,-3.48,767,767,871,924,901,34.48275862068966,-0.949,-0.303,0.11
16713,1755598317157,70.7,-56.73,-3.46,769,770,871,929,905,33.333333333333336,-0.948,-0.302,0.112
16742,1755598317187,70.71,-56.99,-3.45,771,771,863,925,902,34.48275862068966,-0.948,-0.301,0.115
16772,1755598317216,70.71,-57.18,-3.44,766,767,890,918,908,33.333333333333336,-0.948,-0.301,0.118
16801,1755598317246,70.67,-57.37,-3.44,766,772,874,924,908,34.48275862068966,-0.947,-0.301,0.118
16831,1755598317275,70.69,-57.57,-3.44,765,764,887,917,906,33.333333333333336,-0.949,-0.301,0.117
16860,1755598317305,70.73,-57.76,-3.41,772,764,872,922,900,34.48275862068966,-0.952,-0.301,0.118
16890,1755598317335,70.76,-57.94,-3.38,769,767,872,926,901,33.333333333333336,-0.95,-0.301,0.118
16919,1755598317364,70.79,-58.1,-3.36,769,767,871,938,909,34.48275862068966,-0.948,-0.299,0.118
16949,1755598317394,70.8,-58.27,-3.37,763,768,876,922,899,33.333333333333336,-0.948,-0.298,0.116
16979,1755598317424,70.86,-58.46,-3.39,766,782,877,918,901,33.333333333333336,-0.948,-0.297,0.117
17009,1755598317453,70.83,-58.63,-3.41,769,768,869,917,903,33.333333333333336,-0.948,-0.298,0.116
17038,1755598317483,70.83,-58.83,-3.44,768,773,877,924,896,34.48275862068966,-0.95,-0.298,0.116
17068,1755598317512,70.82,-59.03,-3.44,768,765,867,919,900,33.333333333333336,-0.95,-0.299,0.115
17097,1755598317542,70.85,-59.26,-3.46,769,762,868,921,895,34.48275862068966,-0.95,-0.299,0.115
17127,1755598317572,70.82,-59.47,-3.47,770,771,872,919,899,33.333333333333336,-0.949,-0.299,0.114
17156,1755598317601,70.84,-59.66,-3.47,767,764,865,921,904,34.48275862068966,-0.951,-0.299,0.115
17186,1755598317631,70.82,-59.86,-3.47,769,772,874,929,900,33.333333333333336,-0.951,-0.299,0.116
17215,1755598317660,70.86,-60.06,-3.47,775,762,870,916,904,34.48275862068966,-0.95,-0.299,0.117
17245,1755598317690,70.85,-60.24,-3.47,769,772,863,927,900,33.333333333333336,-0.949,-0.299,0.117
17274,1755598317719,70.87,-60.43,-3.49,767,761,871,923,903,34.48275862068966,-0.948,-0.299,0.116
17304,1755598317749,70.86,-60.62,-3.51,768,765,870,919,900,33.333333333333336,-0.949,-0.299,0.116
17333,1755598317778,70.84,-60.79,-3.52,765,770,862,918,906,34.48275862068966,-0.95,-0.3,0.116
17363,1755598317808,70.86,-60.98,-3.52,768,765,870,921,891,33.333333333333336,-0.95,-0.302,0.116
17393,1755598317837,70.89,-61.18,-3.51,768,766,865,919,900,33.333333333333336,-0.951,-0.302,0.116
17422,1755598317867,70.88,-61.39,-3.49,768,769,863,921,905,34.48275862068966,-0.951,-0.302,0.116
17452,1755598317897,70.88,-61.59,-3.49,768,767,872,928,900,33.333333333333336,-0.951,-0.302,0.115
17482,1755598317926,70.86,-61.82,-3.52,767,771,874,925,903,33.333333333333336,-0.95,-0.3,0.114
17511,1755598317956,70.82,-62.06,-3.57,770,769,869,918,898,34.48275862068966,-0.943,-0.301,0.114
17541,1755598317986,70.73,-62.29,-3.62,765,775,871,920,902,33.333333333333336,-0.943,-0.301,0.114
17571,1755598318015,70.67,-62.49,-3.66,769,767,861,926,904,33.333333333333336,-0.944,-0.301,0.114
17600,1755598318045,70.71,-62.6,-3.66,769,771,880,925,903,34.48275862068966,-0.947,-0.302,0.12
17630,1755598318074,70.71,-62.65,-3.65,769,768,871,912,897,33.333333333333336,-0.945,-0.302,0.123
17659,1755598318104,70.81,-62.65,-3.64,769,767,871,922,899,34.48275862068966,-0.945,-0.303,0.124
17688,1755598318133,70.85,-62.72,-3.65,763,765,864,920,907,34.48275862068966,-0.945,-0.304,0.121
17718,1755598318163,70.91,-62.81,-3.67,769,770,865,917,899,33.333333333333336,-0.945,-0.304,0.118
17747,1755598318193,70.88,-62.87,-3.67,773,763,870,921,900,34.48275862068966,-0.946,-0.304,0.117
17777,1755598318223,70.88,-62.96,-3.68,767,764,867,923,913,33.333333333333336,-0.947,-0.304,0.115
17797,1755598318242,70.89,-63.07,-3.69,769,770,863,913,895,50.0,-0.948,-0.304,0.115
17827,1755598318272,70.92,-63.15,-3.7,767,773,870,923,895,33.333333333333336,-0.95,-0.305,0.119
17857,1755598318301,70.89,-63.16,-3.69,772,764,862,920,898,33.333333333333336,-0.948,-0.305,0.121
17886,1755598318331,70.91,-63.13,-3.68,768,767,867,918,899,34.48275862068966,-0.948,-0.305,0.12
17916,1755598318360,70.94,-63.22,-3.68,773,762,865,922,893,33.333333333333336,-0.95,-0.306,0.119
17945,1755598318390,70.91,-63.29,-3.64,773,766,867,918,894,34.48275862068966,-0.951,-0.305,0.117
17975,1755598318419,70.89,-63.42,-3.63,760,772,876,918,899,33.333333333333336,-0.95,-0.304,0.115
18004,1755598318449,70.92,-63.6,-3.63,769,776,870,915,905,34.48275862068966,-0.949,-0.304,0.115
18034,1755598318478,70.86,-63.75,-3.63,771,764,877,923,898,33.333333333333336,-0.949,-0.304,0.117
18063,1755598318508,70.83,-63.89,-3.64,767,751,861,921,897,34.48275862068966,-0.948,-0.304,0.118
18083,1755598318528,70.85,-64.02,-3.65,768,773,861,924,897,50.0,-0.949,-0.303,0.119
18113,1755598318558,70.82,-64.17,-3.65,761,775,862,916,897,33.333333333333336,-0.948,-0.303,0.121
18142,1755598318587,70.85,-64.26,-3.64,768,762,862,921,894,34.48275862068966,-0.948,-0.304,0.122
18172,1755598318617,70.85,-64.32,-3.62,770,773,865,934,897,33.333333333333336,-0.949,-0.304,0.122
18201,1755598318646,70.86,-64.39,-3.61,773,772,864,918,897,34.48275862068966,-0.949,-0.304,0.122
18231,1755598318676,70.83,-64.47,-3.6,768,765,878,920,895,33.333333333333336,-0.948,-0.303,0.12
18260,1755598318705,70.87,-64.57,-3.6,767,770,868,918,899,34.48275862068966,-0.948,-0.304,0.12
18290,1755598318735,70.91,-64.63,-3.59,762,767,866,919,896,33.333333333333336,-0.95,-0.304,0.121
18320,1755598318765,70.88,-64.69,-3.57,768,769,865,918,891,33.333333333333336,-0.949,-0.304,0.121
18349,1755598318794,70.91,-64.77,-3.57,768,765,867,915,896,34.48275862068966,-0.948,-0.304,0.12
18379,1755598318824,70.86,-64.86,-3.56,770,767,869,925,886,33.333333333333336,-0.948,-0.304,0.119
18408,1755598318853,70.89,-64.94,-3.55,762,763,859,924,894,34.48275862068966,-0.949,-0.303,0.121
18438,1755598318883,70.87,-64.99,-3.54,770,777,868,915,913,33.333333333333336,-0.95,-0.303,0.122
18468,1755598318913,70.86,-65.06,-3.54,766,768,858,919,905,33.333333333333336,-0.948,-0.303,0.121
18497,1755598318942,70.9,-65.11,-3.54,768,765,868,917,893,34.48275862068966,-0.948,-0.303,0.122
18527,1755598318972,70.86,-65.16,-3.53,770,765,864,914,891,33.333333333333336,-0.948,-0.303,0.121
18557,1755598319002,70.88,-65.21,-3.52,764,767,864,921,898,33.333333333333336,-0.948,-0.302,0.121
18586,1755598319031,70.86,-65.29,-3.53,769,762,878,924,903,34.48275862068966,-0.949,-0.301,0.121
18616,1755598319061,70.85,-65.33,-3.52,772,764,867,924,901,33.333333333333336,-0.948,-0.301,0.122
18645,1755598319090,70.84,-65.41,-3.54,767,767,877,915,903,34.48275862068966,-0.948,-0.302,0.121
18675,1755598319120,70.84,-65.48,-3.54,769,770,865,924,891,33.333333333333336,-0.949,-0.302,0.122
18705,1755598319149,70.86,-65.52,-3.53,767,772,866,912,895,33.333333333333336,-0.95,-0.302,0.122
18734,1755598319179,70.84,-65.57,-3.53,765,774,870,920,896,34.48275862068966,-0.95,-0.301,0.123
18763,1755598319209,70.79,-65.62,-3.54,769,766,866,920,889,34.48275862068966,-0.947,-0.301,0.122
18793,1755598319238,70.82,-65.66,-3.55,766,769,865,923,892,33.333333333333336,-0.949,-0.302,0.123
18823,1755598319268,70.8,-65.71,-3.54,767,768,868,918,895,33.333333333333336,-0.95,-0.303,0.123
18853,1755598319298,70.82,-65.74,-3.53,770,768,870,922,893,33.333333333333336,-0.95,-0.302,0.123
18883,1755598319327,70.8,-65.78,-3.53,769,770,869,920,888,33.333333333333336,-0.949,-0.302,0.123
18912,1755598319357,70.8,-65.81,-3.52,763,769,866,922,887,34.48275862068966,-0.949,-0.302,0.123
18942,1755598319386,70.76,-65.83,-3.51,769,773,877,914,898,33.333333333333336,-0.949,-0.302,0.123
18971,1755598319416,70.76,-65.85,-3.5,767,767,852,922,899,34.48275862068966,-0.949,-0.302,0.123
19001,1755598319445,70.73,-65.89,-3.49,766,773,861,920,906,33.333333333333336,-0.948,-0.301,0.123
19030,1755598319475,70.75,-65.96,-3.5,762,768,872,920,905,34.48275862068966,-0.949,-0.301,0.123
19059,1755598319504,70.72,-65.99,-3.49,769,765,861,923,892,34.48275862068966,-0.95,-0.301,0.124
19089,1755598319534,70.68,-65.98,-3.47,769,765,859,919,891,33.333333333333336,-0.948,-0.301,0.125
19118,1755598319563,70.67,-66.03,-3.47,766,765,867,917,893,34.48275862068966,-0.948,-0.301,0.125
19148,1755598319593,70.67,-66.08,-3.47,771,767,865,919,892,33.333333333333336,-0.949,-0.301,0.126
19178,1755598319622,70.6,-66.08,-3.46,772,767,869,921,891,33.333333333333336,-0.95,-0.302,0.128
19207,1755598319652,70.57,-66.07,-3.45,764,777,871,916,916,34.48275862068966,-0.948,-0.3,0.128
19237,1755598319682,70.61,-66.08,-3.45,762,773,877,919,890,33.333333333333336,-0.948,-0.299,0.128
19266,1755598319711,70.58,-66.09,-3.45,767,765,871,918,886,34.48275862068966,-0.947,-0.3,0.128
19296,1755598319741,70.61,-66.12,-3.46,766,770,865,916,897,33.333333333333336,-0.948,-0.302,0.128
19326,1755598319771,70.56,-66.12,-3.44,765,766,871,919,897,33.333333333333336,-0.949,-0.302,0.128
19355,1755598319800,70.56,-66.12,-3.42,773,775,866,916,902,34.48275862068966,-0.949,-0.302,0.128
19385,1755598319830,70.55,-66.1,-3.4,771,763,865,912,891,33.333333333333336,-0.947,-0.3,0.13
19414,1755598319859,70.55,-66.1,-3.4,765,761,864,918,890,34.48275862068966,-0.947,-0.3,0.131
19444,1755598319889,70.52,-66.1,-3.4,770,766,873,920,888,33.333333333333336,-0.947,-0.3,0.13
19474,1755598319919,70.53,-66.11,-3.39,771,768,862,918,888,33.333333333333336,-0.948,-0.3,0.131
19503,1755598319948,70.56,-66.09,-3.37,763,774,864,919,890,34.48275862068966,-0.949,-0.3,0.132
19533,1755598319978,70.56,-66.08,-3.35,767,775,865,926,890,33.333333333333336,-0.948,-0.299,0.133
19563,1755598320007,70.6,-66.1,-3.36,770,770,873,914,886,33.333333333333336,-0.947,-0.299,0.132
19592,1755598320037,70.61,-66.09,-3.36,772,773,874,914,889,34.48275862068966,-0.948,-0.299,0.132
19622,1755598320067,70.61,-66.08,-3.36,764,763,874,921,888,33.333333333333336,-0.948,-0.299,0.132
19651,1755598320096,70.61,-66.08,-3.36,772,768,870,912,883,34.48275862068966,-0.948,-0.298,0.131
19681,1755598320126,70.66,-66.09,-3.37,771,770,872,919,893,33.333333333333336,-0.948,-0.298,0.132
19710,1755598320155,70.65,-66.07,-3.37,770,767,869,919,897,34.48275862068966,-0.949,-0.298,0.133
19740,1755598320185,70.64,-66.06,-3.37,760,770,868,919,892,33.333333333333336,-0.949,-0.299,0.131
19770,1755598320214,70.68,-66.03,-3.37,768,762,868,914,888,33.333333333333336,-0.948,-0.298,0.131
19799,1755598320244,70.63,-66.01,-3.37,768,770,866,918,891,34.48275862068966,-0.948,-0.298,0.131
19829,1755598320273,70.63,-66.01,-3.37,764,771,880,921,892,33.333333333333336,-0.948,-0.298,0.131
19858,1755598320303,70.67,-66.03,-3.37,766,773,863,924,888,34.48275862068966,-0.95,-0.298,0.132
19888,1755598320332,70.68,-66.04,-3.36,769,771,872,915,890,33.333333333333336,-0.949,-0.298,0.132
19917,1755598320362,70.7,-66.05,-3.38,769,766,861,912,891,34.48275862068966,-0.947,-0.298,0.132
19947,1755598320391,70.72,-66.06,-3.4,768,763,868,918,890,33.333333333333336,-0.948,-0.299,0.132
19976,1755598320421,70.71,-66.07,-3.39,769,775,861,919,879,34.48275862068966,-0.95,-0.301,0.129
20006,1755598320451,70.73,-66.07,-3.36,768,770,863,922,887,33.333333333333336,-0.951,-0.302,0.129
20035,1755598320480,70.74,-66.08,-3.33,770,766,864,912,885,34.48275862068966,-0.95,-0.301,0.13
20065,1755598320510,70.72,-66.1,-3.31,770,771,863,918,893,33.333333333333336,-0.949,-0.3,0.13
20095,1755598320540,70.7,-66.1,-3.29,766,769,876,924,888,33.333333333333336,-0.95,-0.299,0.131
20125,1755598320569,70.63,-66.1,-3.27,769,770,868,919,888,33.333333333333336,-0.947,-0.298,0.13
20154,1755598320599,70.65,-66.11,-3.27,768,771,857,919,887,34.48275862068966,-0.948,-0.297,0.131
20184,1755598320629,70.59,-66.11,-3.25,763,763,878,917,888,33.333333333333336,-0.947,-0.297,0.132
20213,1755598320658,70.61,-66.11,-3.26,770,775,860,920,890,34.48275862068966,-0.947,-0.297,0.132
20243,1755598320688,70.59,-66.11,-3.26,770,774,861,922,884,33.333333333333336,-0.947,-0.296,0.132
20273,1755598320718,70.59,-66.15,-3.27,767,784,861,916,885,33.333333333333336,-0.947,-0.296,0.133
20302,1755598320747,70.59,-66.16,-3.28,768,773,865,923,891,34.48275862068966,-0.947,-0.296,0.133
20332,1755598320777,70.6,-66.15,-3.29,770,771,864,922,890,33.333333333333336,-0.948,-0.297,0.135
20361,1755598320806,70.59,-66.14,-3.28,771,771,859,920,879,34.48275862068966,-0.948,-0.297,0.135
20391,1755598320836,70.61,-66.13,-3.29,769,771,868,918,887,33.333333333333336,-0.948,-0.296,0.134
20420,1755598320866,70.59,-66.14,-3.29,772,774,869,919,890,34.48275862068966,-0.947,-0.296,0.133
20450,1755598320895,70.58,-66.15,-3.31,766,770,859,927,887,33.333333333333336,-0.947,-0.296,0.134
20480,1755598320925,70.56,-66.13,-3.32,767,766,869,916,892,33.333333333333336,-0.949,-0.297,0.135
20509,1755598320954,70.52,-66.1,-3.31,771,764,869,919,884,34.48275862068966,-0.949,-0.298,0.135
20539,1755598320984,70.56,-66.1,-3.31,763,772,870,913,878,33.333333333333336,-0.949,-0.298,0.136
20569,1755598321014,70.55,-66.1,-3.3,771,763,868,909,892,33.333333333333336,-0.947,-0.298,0.136
20598,1755598321043,70.58,-66.07,-3.3,772,768,861,916,886,34.48275862068966,-0.948,-0.298,0.136
20628,1755598321073,70.57,-66.05,-3.31,762,763,865,915,880,33.333333333333336,-0.948,-0.298,0.137
20657,1755598321103,70.57,-66.04,-3.31,765,768,866,918,887,34.48275862068966,-0.948,-0.298,0.137
20687,1755598321132,70.54,-66.04,-3.31,770,761,868,917,887,33.333333333333336,-0.947,-0.297,0.136
20717,1755598321162,70.51,-66.04,-3.32,771,772,864,912,890,33.333333333333336,-0.946,-0.297,0.137
20746,1755598321191,70.49,-66.01,-3.34,767,767,858,924,893,34.48275862068966,-0.945,-0.296,0.138
20776,1755598321221,70.53,-65.99,-3.37,766,768,861,917,887,33.333333333333336,-0.947,-0.297,0.14
20805,1755598321250,70.56,-65.94,-3.38,772,768,868,919,881,34.48275862068966,-0.949,-0.299,0.14
20835,1755598321280,70.61,-65.92,-3.37,761,768,866,916,877,33.333333333333336,-0.949,-0.301,0.139
20864,1755598321309,70.63,-65.91,-3.35,769,760,861,915,887,34.48275862068966,-0.947,-0.3,0.136
20894,1755598321339,70.65,-65.92,-3.36,764,769,859,921,890,33.333333333333336,-0.947,-0.299,0.135
20923,1755598321368,70.6,-65.93,-3.37,776,765,870,912,885,34.48275862068966,-0.946,-0.298,0.135
20953,1755598321398,70.6,-65.92,-3.39,767,764,866,917,879,33.333333333333336,-0.947,-0.299,0.137
20983,1755598321427,70.56,-65.91,-3.39,769,766,865,911,890,33.333333333333336,-0.947,-0.3,0.138
21012,1755598321457,70.58,-65.89,-3.38,764,760,862,917,890,34.48275862068966,-0.947,-0.301,0.138
21042,1755598321487,70.58,-65.88,-3.37,761,764,858,920,885,33.333333333333336,-0.948,-0.3,0.138
21071,1755598321517,70.59,-65.87,-3.36,769,775,868,916,882,34.48275862068966,-0.948,-0.299,0.137
21092,1755598321537,70.59,-65.86,-3.36,772,769,869,914,891,47.61904761904762,-0.948,-0.299,0.138
21122,1755598321567,70.55,-65.82,-3.35,766,772,864,920,882,33.333333333333336,-0.947,-0.299,0.138
21151,1755598321596,70.58,-65.8,-3.35,765,777,864,913,887,34.48275862068966,-0.947,-0.299,0.139
21181,1755598321626,70.55,-65.77,-3.35,771,774,870,921,880,33.333333333333336,-0.947,-0.299,0.139
21211,1755598321655,70.58,-65.74,-3.35,770,772,866,919,895,33.333333333333336,-0.947,-0.299,0.14
21240,1755598321685,70.58,-65.68,-3.34,768,768,861,911,885,34.48275862068966,-0.948,-0.299,0.14
21270,1755598321715,70.55,-65.68,-3.34,772,767,867,921,888,33.333333333333336,-0.948,-0.3,0.14
21299,1755598321744,70.6,-65.67,-3.34,770,777,864,919,879,34.48275862068966,-0.949,-0.3,0.141
21329,1755598321774,70.58,-65.63,-3.32,762,766,866,912,882,33.333333333333336,-0.949,-0.299,0.141
21359,1755598321803,70.58,-65.58,-3.3,764,763,872,916,882,33.333333333333336,-0.948,-0.298,0.14
21388,1755598321834,70.56,-65.57,-3.3,763,771,873,916,883,34.48275862068966,-0.948,-0.298,0.141
21408,1755598321853,70.56,-65.56,-3.29,769,773,869,918,882,50.0,-0.948,-0.298,0.141
21438,1755598321883,70.58,-65.51,-3.27,762,770,864,927,892,33.333333333333336,-0.948,-0.298,0.142
21467,1755598321912,70.56,-65.47,-3.27,771,765,864,918,884,34.48275862068966,-0.947,-0.298,0.141
21497,1755598321942,70.56,-65.47,-3.27,766,771,861,913,888,33.333333333333336,-0.947,-0.297,0.14
21526,1755598321971,70.54,-65.48,-3.27,765,763,861,915,884,34.48275862068966,-0.948,-0.297,0.14
21556,1755598322001,70.53,-65.47,-3.27,771,775,871,916,881,33.333333333333336,-0.948,-0.298,0.14
21585,1755598322030,70.53,-65.46,-3.26,764,768,858,914,881,34.48275862068966,-0.947,-0.297,0.141
21615,1755598322060,70.51,-65.42,-3.26,768,764,863,917,885,33.333333333333336,-0.946,-0.297,0.142
21645,1755598322090,70.48,-65.38,-3.26,770,772,861,912,884,33.333333333333336,-0.946,-0.297,0.142
21674,1755598322119,70.49,-65.36,-3.25,768,768,869,915,880,34.48275862068966,-0.948,-0.297,0.142
21704,1755598322149,70.48,-65.34,-3.25,771,770,866,912,891,33.333333333333336,-0.948,-0.297,0.142
21734,1755598322179,70.47,-65.31,-3.24,768,762,866,917,877,33.333333333333336,-0.947,-0.297,0.142
21764,1755598322208,70.46,-65.27,-3.24,767,769,859,916,888,33.333333333333336,-0.946,-0.297,0.143
21793,1755598322238,70.46,-65.24,-3.24,768,771,868,913,881,34.48275862068966,-0.947,-0.297,0.144
21823,1755598322268,70.45,-65.22,-3.23,766,762,858,919,874,33.333333333333336,-0.949,-0.297,0.145
21852,1755598322297,70.46,-65.2,-3.23,776,770,867,909,878,34.48275862068966,-0.948,-0.297,0.144
21882,1755598322327,70.5,-65.18,-3.24,770,773,857,922,885,33.333333333333336,-0.946,-0.297,0.143
21912,1755598322357,70.47,-65.15,-3.23,771,769,861,914,889,33.333333333333336,-0.947,-0.297,0.143
21941,1755598322386,70.44,-65.11,-3.23,770,772,862,906,885,34.48275862068966,-0.948,-0.296,0.143
21971,1755598322416,70.46,-65.09,-3.22,764,773,861,918,881,33.333333333333336,-0.947,-0.296,0.144
22001,1755598322445,70.44,-65.05,-3.21,765,764,862,918,906,33.333333333333336,-0.947,-0.297,0.145
22030,1755598322475,70.45,-65.04,-3.21,771,778,862,921,882,34.48275862068966,-0.948,-0.297,0.145
