timestamp_ms,recv_timestamp_ms,pitch,roll,yaw,flex1,flex2,flex3,flex4,flex5,sampling_hz,accel_x,accel_y,accel_z
22592,1755584708610,44.08,-87.68,-32.94,759,775,835,869,882,34.48275862068966,-0.687,-0.722,0.02
22622,1755584708639,44.06,-87.64,-32.92,763,765,815,863,883,33.333333333333336,-0.689,-0.724,0.016
22651,1755584708669,44.03,-87.7,-32.91,756,768,825,870,885,34.48275862068966,-0.687,-0.723,0.016
22672,1755584708689,44.01,-87.76,-32.91,753,771,826,865,873,47.61904761904762,-0.685,-0.722,0.015
22701,1755584708718,43.98,-87.82,-32.94,762,777,820,863,882,34.48275862068966,-0.685,-0.723,0.015
22731,1755584708748,43.98,-87.87,-32.95,762,760,831,861,876,33.333333333333336,-0.686,-0.723,0.015
22760,1755584708777,43.96,-87.93,-32.93,758,768,822,867,884,34.48275862068966,-0.688,-0.725,0.017
22790,1755584708807,43.94,-87.9,-32.92,755,772,827,857,876,33.333333333333336,-0.688,-0.723,0.015
22819,1755584708837,43.93,-87.9,-32.9,766,772,824,858,881,34.48275862068966,-0.687,-0.723,0.015
22849,1755584708867,43.91,-87.87,-32.89,758,776,832,864,879,33.333333333333336,-0.686,-0.724,0.019
22869,1755584708886,43.91,-87.81,-32.89,756,767,824,872,885,50.0,-0.687,-0.724,0.022
22899,1755584708916,43.9,-87.73,-32.88,755,774,822,867,884,33.333333333333336,-0.687,-0.724,0.019
22928,1755584708945,43.88,-87.76,-32.88,755,775,818,867,877,34.48275862068966,-0.688,-0.725,0.016
22958,1755584708975,43.89,-87.8,-32.88,760,767,834,880,883,33.333333333333336,-0.687,-0.724,0.018
22987,1755584709005,43.87,-87.76,-32.88,759,779,835,860,890,34.48275862068966,-0.686,-0.724,0.018
23017,1755584709034,43.83,-87.69,-32.88,758,766,837,875,879,33.333333333333336,-0.688,-0.725,0.017
23047,1755584709064,43.8,-87.71,-32.88,762,773,810,879,874,33.333333333333336,-0.686,-0.724,0.016
23076,1755584709094,43.82,-87.74,-32.88,758,769,823,871,876,34.48275862068966,-0.685,-0.723,0.021
23106,1755584709123,43.82,-87.67,-32.89,760,761,824,866,876,33.333333333333336,-0.687,-0.724,0.021
23136,1755584709153,43.8,-87.6,-32.88,757,773,814,861,890,33.333333333333336,-0.687,-0.725,0.015
23165,1755584709183,43.8,-87.69,-32.86,755,772,833,862,874,34.48275862068966,-0.687,-0.726,0.014
23195,1755584709212,43.79,-87.76,-32.84,761,767,838,866,879,33.333333333333336,-0.688,-0.725,0.019
23225,1755584709242,43.79,-87.63,-32.82,754,776,831,858,882,33.333333333333336,-0.687,-0.722,0.022
23254,1755584709272,43.79,-87.65,-32.86,759,781,819,871,880,34.48275862068966,-0.685,-0.72,0.014
23284,1755584709301,43.75,-87.78,-32.9,759,775,830,866,883,33.333333333333336,-0.686,-0.721,0.009
23314,1755584709331,43.66,-87.83,-32.93,756,774,828,868,876,33.333333333333336,-0.685,-0.723,0.012
23343,1755584709361,43.54,-87.76,-32.98,761,781,824,862,882,34.48275862068966,-0.68,-0.724,0.02
23373,1755584709391,43.43,-87.65,-33.06,757,779,825,863,881,33.333333333333336,-0.678,-0.725,0.023
23393,1755584709411,43.44,-87.66,-33.11,751,770,814,863,867,50.0,-0.68,-0.726,0.02
23423,1755584709440,43.41,-87.66,-33.1,759,773,824,865,904,33.333333333333336,-0.688,-0.731,0.021
23453,1755584709470,43.41,-87.66,-33.07,763,780,831,863,877,33.333333333333336,-0.685,-0.728,0.021
23482,1755584709500,43.37,-87.54,-33.06,758,770,827,868,883,34.48275862068966,-0.684,-0.727,0.026
23512,1755584709529,43.31,-87.38,-33.13,757,775,811,870,874,33.333333333333336,-0.683,-0.727,0.023
23542,1755584709559,43.25,-87.4,-33.2,762,777,826,866,885,33.333333333333336,-0.681,-0.727,0.015
23572,1755584709588,43.19,-87.47,-33.18,761,768,826,866,874,33.333333333333336,-0.686,-0.734,0.022
23601,1755584709618,43.2,-87.45,-33.15,762,772,829,873,872,34.48275862068966,-0.682,-0.731,0.026
23630,1755584709648,43.27,-87.45,-33.14,760,772,824,868,878,34.48275862068966,-0.682,-0.731,0.027
23660,1755584709677,43.29,-87.45,-33.12,761,769,825,868,877,33.333333333333336,-0.682,-0.731,0.024
23690,1755584709707,43.25,-87.46,-33.13,764,776,821,862,872,33.333333333333336,-0.679,-0.729,0.021
23719,1755584709736,43.27,-87.52,-33.15,761,770,830,863,872,34.48275862068966,-0.682,-0.73,0.021
23749,1755584709766,43.23,-87.51,-33.14,759,777,822,866,877,33.333333333333336,-0.681,-0.732,0.023
23778,1755584709796,43.2,-87.46,-33.12,752,769,852,871,883,34.48275862068966,-0.679,-0.73,0.025
23808,1755584709825,43.17,-87.45,-33.13,758,770,823,872,874,33.333333333333336,-0.68,-0.731,0.023
23838,1755584709855,43.15,-87.52,-33.13,777,775,824,858,872,33.333333333333336,-0.681,-0.73,0.021
23867,1755584709884,43.2,-87.62,-33.1,757,770,827,853,878,34.48275862068966,-0.683,-0.731,0.023
23897,1755584709914,43.21,-87.61,-33.04,756,766,832,866,882,33.333333333333336,-0.682,-0.733,0.025
23926,1755584709944,43.19,-87.59,-33.02,758,763,828,866,879,34.48275862068966,-0.679,-0.731,0.022
23956,1755584709973,43.16,-87.6,-33.03,772,774,825,864,868,33.333333333333336,-0.682,-0.731,0.022
23986,1755584710003,43.08,-87.55,-33.03,757,776,840,865,873,33.333333333333336,-0.681,-0.729,0.02
24015,1755584710033,43.06,-87.59,-33.02,758,772,825,860,879,34.48275862068966,-0.68,-0.73,0.02
24036,1755584710053,43.06,-87.67,-33.03,758,775,821,862,877,47.61904761904762,-0.678,-0.729,0.021
24065,1755584710082,43.01,-87.74,-33.08,769,775,822,869,890,34.48275862068966,-0.677,-0.729,0.025
24095,1755584710112,43.0,-87.68,-33.12,759,768,822,863,878,33.333333333333336,-0.676,-0.728,0.023
24124,1755584710141,43.0,-87.72,-33.18,763,767,826,862,870,34.48275862068966,-0.677,-0.727,0.019
24154,1755584710171,42.96,-87.83,-33.26,767,777,828,860,881,33.333333333333336,-0.678,-0.729,0.019
24184,1755584710201,42.89,-87.76,-33.31,759,776,831,862,885,33.333333333333336,-0.681,-0.734,0.02
24213,1755584710231,42.86,-87.75,-33.3,758,781,823,870,881,34.48275862068966,-0.677,-0.735,0.016
24243,1755584710260,42.86,-87.82,-33.27,755,767,834,864,887,33.333333333333336,-0.677,-0.738,0.022
24272,1755584710289,42.84,-87.72,-33.27,760,762,820,858,881,34.48275862068966,-0.675,-0.736,0.026
24302,1755584710319,42.82,-87.61,-33.31,769,768,819,873,889,33.333333333333336,-0.676,-0.734,0.026
24331,1755584710349,42.77,-87.47,-33.31,751,770,826,856,877,34.48275862068966,-0.678,-0.737,0.023
24361,1755584710379,42.7,-87.36,-33.28,748,773,823,869,877,33.333333333333336,-0.672,-0.735,0.02
24391,1755584710409,42.76,-87.51,-33.29,763,777,828,869,871,33.333333333333336,-0.668,-0.734,0.022
24421,1755584710438,42.73,-87.43,-33.28,761,772,828,861,881,33.333333333333336,-0.67,-0.741,0.024
24450,1755584710467,42.69,-87.35,-33.27,759,775,826,867,871,34.48275862068966,-0.671,-0.739,0.021
24480,1755584710497,42.65,-87.37,-33.28,755,781,837,862,879,33.333333333333336,-0.675,-0.733,0.017
24509,1755584710527,42.54,-87.41,-33.31,760,771,822,876,883,34.48275862068966,-0.678,-0.729,0.017
24539,1755584710556,42.46,-87.49,-33.36,762,772,828,861,879,33.333333333333336,-0.678,-0.73,0.02
24568,1755584710586,42.44,-87.56,-33.38,761,777,821,878,879,34.48275862068966,-0.679,-0.732,0.024
24598,1755584710615,42.42,-87.58,-33.37,753,765,833,863,879,33.333333333333336,-0.678,-0.735,0.027
24628,1755584710645,42.41,-87.59,-33.38,756,776,819,866,875,33.333333333333336,-0.673,-0.734,0.028
24657,1755584710674,42.4,-87.6,-33.41,764,767,825,867,879,34.48275862068966,-0.672,-0.735,0.028
24687,1755584710704,42.4,-87.59,-33.42,760,766,824,865,883,33.333333333333336,-0.675,-0.739,0.029
24716,1755584710733,42.39,-87.54,-33.4,761,776,824,870,875,34.48275862068966,-0.673,-0.739,0.027
24746,1755584710763,42.4,-87.52,-33.4,756,774,831,866,874,33.333333333333336,-0.673,-0.737,0.027
24775,1755584710792,42.38,-87.5,-33.41,756,771,815,860,875,34.48275862068966,-0.673,-0.738,0.021
24805,1755584710822,42.36,-87.53,-33.39,759,768,829,859,877,33.333333333333336,-0.672,-0.739,0.02
24834,1755584710852,42.37,-87.59,-33.37,765,775,816,869,876,34.48275862068966,-0.67,-0.738,0.026
24864,1755584710882,42.35,-87.51,-33.38,762,773,827,866,882,33.333333333333336,-0.669,-0.739,0.029
24894,1755584710911,42.35,-87.47,-33.4,769,762,819,865,875,33.333333333333336,-0.672,-0.739,0.026
24924,1755584710941,42.37,-87.52,-33.39,764,773,825,871,873,33.333333333333336,-0.672,-0.739,0.023
24953,1755584710970,42.34,-87.52,-33.39,759,770,829,861,883,34.48275862068966,-0.672,-0.74,0.025
24983,1755584711000,42.33,-87.46,-33.39,766,758,820,867,898,33.333333333333336,-0.671,-0.739,0.026
25012,1755584711029,42.37,-87.51,-33.39,766,772,820,863,881,34.48275862068966,-0.671,-0.737,0.025
25042,1755584711059,42.36,-87.56,-33.41,762,771,823,865,866,33.333333333333336,-0.673,-0.736,0.024
25071,1755584711088,42.36,-87.54,-33.41,764,773,832,863,873,34.48275862068966,-0.674,-0.737,0.022
25101,1755584711118,42.35,-87.55,-33.42,761,777,822,863,888,33.333333333333336,-0.669,-0.737,0.02
25130,1755584711147,42.31,-87.59,-33.46,764,768,829,859,878,34.48275862068966,-0.666,-0.74,0.022
25160,1755584711177,42.29,-87.62,-33.5,756,772,833,858,879,33.333333333333336,-0.668,-0.74,0.028
25189,1755584711206,42.3,-87.58,-33.53,767,778,816,871,880,34.48275862068966,-0.666,-0.738,0.026
25219,1755584711236,42.36,-87.56,-33.54,761,773,823,874,878,33.333333333333336,-0.669,-0.742,0.022
25248,1755584711265,42.34,-87.55,-33.57,768,765,823,860,866,34.48275862068966,-0.667,-0.741,0.02
25278,1755584711295,42.36,-87.55,-33.58,759,760,827,863,885,33.333333333333336,-0.669,-0.742,0.021
25307,1755584711325,42.34,-87.46,-33.54,758,766,818,857,871,34.48275862068966,-0.672,-0.746,0.021
25337,1755584711354,42.35,-87.37,-33.42,760,771,818,863,878,33.333333333333336,-0.673,-0.746,0.019
25367,1755584711384,42.33,-87.41,-33.36,759,778,827,871,872,33.333333333333336,-0.668,-0.743,0.02
25396,1755584711414,42.34,-87.36,-33.33,761,765,813,874,873,34.48275862068966,-0.668,-0.74,0.025
25416,1755584711433,42.34,-87.29,-33.32,760,776,832,865,881,50.0,-0.669,-0.74,0.025
25446,1755584711463,42.34,-87.26,-33.27,751,769,828,868,887,33.333333333333336,-0.669,-0.742,0.018
25475,1755584711493,42.29,-87.39,-33.28,757,771,815,865,872,34.48275862068966,-0.666,-0.74,0.019
25505,1755584711522,42.23,-87.38,-33.29,752,783,815,876,868,33.333333333333336,-0.668,-0.738,0.025
25534,1755584711551,42.24,-87.3,-33.29,764,775,825,865,871,34.48275862068966,-0.671,-0.737,0.022
25564,1755584711581,42.22,-87.39,-33.28,749,764,799,858,876,33.333333333333336,-0.67,-0.741,0.019
25594,1755584711611,42.22,-87.44,-33.25,754,767,813,863,871,33.333333333333336,-0.669,-0.741,0.025
25623,1755584711641,42.2,-87.35,-33.24,763,772,840,865,882,34.48275862068966,-0.67,-0.737,0.027
25653,1755584711670,42.21,-87.32,-33.24,752,770,810,867,872,33.333333333333336,-0.672,-0.739,0.024
25683,1755584711700,42.19,-87.34,-33.21,761,776,824,864,882,33.333333333333336,-0.672,-0.742,0.024
25712,1755584711729,42.17,-87.28,-33.16,755,770,817,861,878,34.48275862068966,-0.671,-0.742,0.026
25741,1755584711759,42.2,-87.24,-33.08,762,782,818,865,876,34.48275862068966,-0.674,-0.741,0.031
25771,1755584711788,42.25,-87.07,-32.98,758,770,823,864,858,33.333333333333336,-0.676,-0.738,0.034
25801,1755584711818,42.31,-86.94,-32.92,760,773,826,858,868,33.333333333333336,-0.671,-0.736,0.027
25830,1755584711847,42.3,-86.97,-32.92,749,774,842,855,879,34.48275862068966,-0.667,-0.734,0.019
25860,1755584711877,42.26,-87.05,-32.96,759,766,810,865,878,33.333333333333336,-0.668,-0.734,0.025
25889,1755584711906,42.26,-86.97,-32.97,760,772,817,864,876,34.48275862068966,-0.672,-0.738,0.034
25919,1755584711936,42.32,-86.94,-32.95,759,763,827,871,883,33.333333333333336,-0.673,-0.738,0.031
25948,1755584711965,42.35,-87.01,-32.92,762,780,821,859,879,34.48275862068966,-0.673,-0.739,0.025
25978,1755584711995,42.32,-87.04,-32.91,760,777,818,864,878,33.333333333333336,-0.672,-0.736,0.024
26007,1755584712024,42.24,-87.06,-32.95,755,773,827,863,891,34.48275862068966,-0.668,-0.732,0.025
26037,1755584712054,42.25,-87.11,-33.0,757,761,828,867,885,33.333333333333336,-0.671,-0.735,0.03
26066,1755584712083,42.26,-87.11,-33.02,760,772,823,867,861,34.48275862068966,-0.676,-0.738,0.027
26096,1755584712113,42.26,-87.11,-32.96,761,771,832,861,872,33.333333333333336,-0.675,-0.739,0.021
26125,1755584712143,42.23,-87.19,-32.92,757,768,825,864,884,34.48275862068966,-0.674,-0.736,0.022
26155,1755584712172,42.14,-87.21,-32.94,760,777,830,863,871,33.333333333333336,-0.673,-0.734,0.025
26184,1755584712201,42.12,-87.23,-32.98,759,769,830,864,870,34.48275862068966,-0.671,-0.734,0.028
26214,1755584712231,42.14,-87.26,-32.99,763,791,821,872,875,33.333333333333336,-0.672,-0.737,0.03
26244,1755584712261,42.14,-87.27,-32.98,760,771,814,866,863,33.333333333333336,-0.673,-0.739,0.028
26273,1755584712290,42.14,-87.28,-32.97,764,774,827,859,882,34.48275862068966,-0.673,-0.738,0.029
26303,1755584712320,42.17,-87.29,-32.95,762,769,827,862,879,33.333333333333336,-0.672,-0.738,0.028
26332,1755584712349,42.16,-87.28,-32.95,758,768,831,863,868,34.48275862068966,-0.672,-0.739,0.025
26362,1755584712379,42.12,-87.29,-32.94,760,777,816,863,874,33.333333333333336,-0.671,-0.737,0.024
26392,1755584712409,42.11,-87.32,-32.96,754,775,843,861,872,33.333333333333336,-0.672,-0.737,0.027
26421,1755584712439,42.11,-87.36,-32.97,761,774,824,869,874,34.48275862068966,-0.671,-0.737,0.027
26451,1755584712468,42.11,-87.32,-32.95,760,771,823,860,875,33.333333333333336,-0.675,-0.739,0.028
26480,1755584712497,42.09,-87.28,-32.93,758,773,824,869,885,34.48275862068966,-0.672,-0.74,0.025
26510,1755584712527,42.09,-87.33,-32.9,752,774,815,862,876,33.333333333333336,-0.67,-0.739,0.026
26539,1755584712557,42.09,-87.37,-32.91,758,776,819,866,877,34.48275862068966,-0.671,-0.736,0.028
26569,1755584712586,42.07,-87.34,-32.93,760,775,821,863,865,33.333333333333336,-0.674,-0.736,0.026
26599,1755584712616,42.07,-87.39,-32.93,758,767,815,867,875,33.333333333333336,-0.671,-0.739,0.024
26628,1755584712646,42.09,-87.41,-32.92,760,769,814,859,883,34.48275862068966,-0.669,-0.739,0.027
26658,1755584712675,42.1,-87.38,-32.93,758,771,824,867,881,33.333333333333336,-0.67,-0.739,0.028
26688,1755584712705,42.07,-87.34,-32.94,763,776,822,863,878,33.333333333333336,-0.671,-0.738,0.022
26717,1755584712735,42.09,-87.41,-32.95,761,778,829,868,873,34.48275862068966,-0.672,-0.737,0.021
26737,1755584712754,42.07,-87.42,-32.96,761,776,826,873,879,50.0,-0.671,-0.738,0.023
26767,1755584712784,42.06,-87.4,-32.95,761,773,820,869,864,33.333333333333336,-0.67,-0.741,0.025
26796,1755584712814,42.07,-87.39,-32.95,755,772,830,863,873,34.48275862068966,-0.67,-0.741,0.025
26826,1755584712843,42.05,-87.38,-32.94,761,777,825,858,874,33.333333333333336,-0.671,-0.74,0.025
26856,1755584712873,42.09,-87.41,-32.93,758,762,817,867,873,33.333333333333336,-0.673,-0.74,0.026
26885,1755584712903,42.07,-87.34,-32.92,757,775,822,862,874,34.48275862068966,-0.671,-0.741,0.025
26915,1755584712932,42.49,-87.33,-32.91,755,773,832,873,879,33.333333333333336,-0.671,-0.741,0.026
26945,1755584712962,42.5,-87.29,-32.87,762,783,811,867,882,33.333333333333336,-0.673,-0.74,0.029
26974,1755584712992,42.57,-87.25,-32.86,758,766,829,860,866,34.48275862068966,-0.674,-0.739,0.027
27004,1755584713022,42.52,-87.25,-32.85,753,767,829,868,871,33.333333333333336,-0.672,-0.741,0.02
27034,1755584713051,42.49,-87.33,-32.8,759,776,822,866,877,33.333333333333336,-0.67,-0.743,0.021
27063,1755584713080,42.47,-87.29,-32.78,757,769,852,863,876,34.48275862068966,-0.668,-0.742,0.027
27093,1755584713110,42.46,-87.25,-32.77,761,771,822,860,871,33.333333333333336,-0.67,-0.74,0.025
27122,1755584713139,42.47,-87.23,-32.73,764,770,830,866,881,34.48275862068966,-0.673,-0.739,0.025
27152,1755584713169,42.45,-87.24,-32.71,761,772,817,874,878,33.333333333333336,-0.67,-0.739,0.023
27182,1755584713199,42.45,-87.23,-32.7,758,767,818,863,876,33.333333333333336,-0.67,-0.739,0.023
27211,1755584713228,42.42,-87.21,-32.69,758,769,812,867,871,34.48275862068966,-0.671,-0.738,0.023
27241,1755584713258,42.39,-87.2,-32.69,763,775,824,861,873,33.333333333333336,-0.67,-0.737,0.022
27270,1755584713287,42.39,-87.25,-32.67,768,777,821,861,873,34.48275862068966,-0.669,-0.738,0.027
27300,1755584713317,42.4,-87.22,-32.67,761,771,824,866,875,33.333333333333336,-0.67,-0.739,0.031
27329,1755584713346,42.4,-87.11,-32.66,755,775,831,863,882,34.48275862068966,-0.669,-0.738,0.024
27359,1755584713376,42.41,-87.19,-32.67,758,775,821,862,874,33.333333333333336,-0.671,-0.737,0.023
27388,1755584713405,42.38,-87.18,-32.68,762,778,822,865,877,34.48275862068966,-0.672,-0.736,0.026
27418,1755584713435,42.36,-87.12,-32.7,760,772,818,878,876,33.333333333333336,-0.672,-0.737,0.024
27447,1755584713465,42.35,-87.14,-32.67,755,774,822,864,875,34.48275862068966,-0.674,-0.742,0.024
27477,1755584713494,42.35,-87.15,-32.62,756,777,822,859,879,33.333333333333336,-0.673,-0.743,0.028
27507,1755584713525,42.37,-87.07,-32.58,760,772,823,865,878,33.333333333333336,-0.671,-0.74,0.03
27527,1755584713544,42.38,-87.02,-32.55,761,772,828,867,872,50.0,-0.671,-0.738,0.029
27557,1755584713574,42.4,-87.0,-32.53,759,767,822,861,871,33.333333333333336,-0.671,-0.738,0.025
27586,1755584713604,42.4,-87.03,-32.51,755,768,821,874,892,34.48275862068966,-0.673,-0.738,0.023
27616,1755584713633,42.37,-87.03,-32.47,759,769,825,867,869,33.333333333333336,-0.671,-0.738,0.024
27646,1755584713663,42.35,-87.02,-32.47,759,774,822,863,877,33.333333333333336,-0.67,-0.736,0.027
27675,1755584713692,42.37,-87.04,-32.47,754,781,819,871,870,34.48275862068966,-0.672,-0.737,0.028
27705,1755584713722,42.38,-87.01,-32.46,761,774,821,861,866,33.333333333333336,-0.673,-0.739,0.028
27735,1755584713752,42.38,-87.0,-32.41,759,768,824,864,869,33.333333333333336,-0.673,-0.74,0.026
27764,1755584713781,42.37,-86.97,-32.36,753,771,817,864,888,34.48275862068966,-0.671,-0.738,0.025
27793,1755584713811,42.37,-87.01,-32.35,756,774,827,853,878,34.48275862068966,-0.67,-0.736,0.028
27823,1755584713840,42.39,-86.98,-32.37,761,771,823,868,876,33.333333333333336,-0.672,-0.734,0.032
27853,1755584713870,42.41,-86.92,-32.37,764,772,842,863,879,33.333333333333336,-0.675,-0.733,0.028
27882,1755584713899,42.44,-86.94,-32.32,755,767,827,867,882,34.48275862068966,-0.676,-0.736,0.026
27912,1755584713929,42.47,-86.96,-32.29,762,771,817,859,873,33.333333333333336,-0.672,-0.736,0.028
27941,1755584713958,42.44,-86.94,-32.34,764,770,833,869,880,34.48275862068966,-0.671,-0.732,0.028
27971,1755584713988,42.44,-87.0,-32.41,769,766,826,868,884,33.333333333333336,-0.676,-0.732,0.022
28000,1755584714017,42.37,-87.06,-32.4,761,771,821,864,870,34.48275862068966,-0.681,-0.737,0.016
28030,1755584714047,42.29,-87.18,-32.38,757,770,827,859,876,33.333333333333336,-0.674,-0.737,0.019
28059,1755584714077,42.23,-87.2,-32.4,763,767,839,862,874,34.48275862068966,-0.67,-0.736,0.03
28089,1755584714106,42.23,-87.16,-32.46,758,770,826,859,877,33.333333333333336,-0.673,-0.737,0.031
28119,1755584714136,42.24,-87.2,-32.46,756,770,824,860,870,33.333333333333336,-0.671,-0.738,0.027
28149,1755584714166,42.23,-87.27,-32.46,754,771,841,863,875,33.333333333333336,-0.671,-0.738,0.032
28178,1755584714195,42.23,-87.19,-32.48,764,771,822,863,874,34.48275862068966,-0.675,-0.74,0.036
28208,1755584714225,42.28,-87.12,-32.43,762,782,830,861,873,33.333333333333336,-0.677,-0.739,0.03
28237,1755584714254,42.36,-87.19,-32.38,762,776,832,868,872,34.48275862068966,-0.677,-0.738,0.026
28267,1755584714284,42.36,-87.2,-32.36,758,772,820,867,877,33.333333333333336,-0.671,-0.735,0.023
28296,1755584714313,42.32,-87.23,-32.41,757,779,818,867,880,34.48275862068966,-0.667,-0.735,0.021
28326,1755584714343,42.27,-87.26,-32.45,760,775,821,864,886,33.333333333333336,-0.668,-0.738,0.023
28355,1755584714373,42.28,-87.29,-32.47,761,764,821,862,867,34.48275862068966,-0.672,-0.739,0.028
28385,1755584714402,42.31,-87.23,-32.44,766,778,826,871,873,33.333333333333336,-0.675,-0.74,0.029
28415,1755584714432,42.33,-87.18,-32.4,757,763,826,859,872,33.333333333333336,-0.672,-0.738,0.024
28444,1755584714462,42.32,-87.21,-32.4,764,768,828,866,874,34.48275862068966,-0.668,-0.735,0.022
28474,1755584714491,42.26,-87.21,-32.46,766,777,820,863,880,33.333333333333336,-0.668,-0.737,0.023
28503,1755584714521,42.23,-87.18,-32.47,766,768,824,866,871,34.48275862068966,-0.671,-0.74,0.024
28524,1755584714541,42.23,-87.2,-32.46,759,768,816,857,867,47.61904761904762,-0.673,-0.74,0.025
28553,1755584714571,42.25,-87.19,-32.43,762,770,817,872,872,34.48275862068966,-0.67,-0.738,0.026
28583,1755584714600,42.27,-87.2,-32.45,756,772,835,857,874,33.333333333333336,-0.668,-0.737,0.024
28613,1755584714630,42.18,-87.2,-32.48,761,780,830,859,882,33.333333333333336,-0.669,-0.739,0.021
28643,1755584714660,42.19,-87.22,-32.47,760,772,827,856,871,33.333333333333336,-0.672,-0.742,0.026
28672,1755584714690,42.2,-87.2,-32.44,760,764,808,860,868,34.48275862068966,-0.67,-0.739,0.027
28702,1755584714719,42.25,-87.14,-32.39,762,771,826,865,876,33.333333333333336,-0.674,-0.742,0.026
28731,1755584714749,42.28,-87.14,-32.34,755,771,826,863,907,34.48275862068966,-0.668,-0.739,0.02
28761,1755584714778,42.2,-87.15,-32.37,754,768,826,857,882,33.333333333333336,-0.663,-0.736,0.022
28791,1755584714808,42.21,-87.18,-32.44,751,776,828,865,883,33.333333333333336,-0.67,-0.739,0.028
28820,1755584714838,42.22,-87.15,-32.42,770,777,824,864,878,34.48275862068966,-0.674,-0.74,0.025
28850,1755584714867,42.24,-87.14,-32.36,766,780,825,858,873,33.333333333333336,-0.673,-0.742,0.024
28880,1755584714897,42.24,-87.11,-32.32,762,773,817,866,872,33.333333333333336,-0.668,-0.74,0.024
28909,1755584714927,42.18,-87.06,-32.36,758,770,806,867,870,34.48275862068966,-0.666,-0.734,0.024
28939,1755584714956,42.12,-87.06,-32.45,761,783,832,869,876,33.333333333333336,-0.668,-0.734,0.023
28969,1755584714986,42.11,-87.08,-32.49,758,770,826,858,874,33.333333333333336,-0.674,-0.742,0.024
28998,1755584715015,42.09,-87.05,-32.44,759,774,826,870,876,34.48275862068966,-0.677,-0.748,0.029
29028,1755584715045,42.13,-87.0,-32.35,761,777,828,865,883,33.333333333333336,-0.672,-0.746,0.033
29057,1755584715075,42.17,-86.95,-32.34,757,770,820,867,891,34.48275862068966,-0.666,-0.741,0.033
29087,1755584715104,42.11,-86.9,-32.42,758,774,832,862,875,33.333333333333336,-0.664,-0.737,0.027
29117,1755584715134,42.02,-86.86,-32.47,759,770,827,870,884,33.333333333333336,-0.669,-0.739,0.022
29146,1755584715163,42.05,-86.93,-32.47,759,774,808,855,885,34.48275862068966,-0.671,-0.741,0.023
29176,1755584715193,42.07,-86.95,-32.43,756,768,837,871,882,33.333333333333336,-0.671,-0.742,0.028
29205,1755584715222,42.04,-86.91,-32.43,754,777,830,865,892,34.48275862068966,-0.667,-0.739,0.028
29235,1755584715252,42.07,-86.94,-32.45,759,769,827,859,868,33.333333333333336,-0.668,-0.74,0.028
29264,1755584715282,42.04,-86.92,-32.43,759,775,820,862,871,34.48275862068966,-0.669,-0.742,0.027
29294,1755584715311,42.02,-86.93,-32.43,755,765,819,862,887,33.333333333333336,-0.666,-0.741,0.029
29324,1755584715341,42.05,-86.94,-32.44,755,770,821,855,878,33.333333333333336,-0.668,-0.742,0.029
29353,1755584715370,42.01,-86.91,-32.45,755,776,816,867,867,34.48275862068966,-0.669,-0.742,0.026
29383,1755584715400,42.03,-86.95,-32.4,762,775,823,859,879,33.333333333333336,-0.67,-0.745,0.028
29412,1755584715430,42.01,-86.94,-32.38,760,773,837,869,874,34.48275862068966,-0.667,-0.743,0.029
29442,1755584715459,42.0,-86.93,-32.38,762,768,829,852,877,33.333333333333336,-0.666,-0.742,0.03
29472,1755584715489,41.97,-86.91,-32.38,759,767,818,863,872,33.333333333333336,-0.668,-0.742,0.028
29501,1755584715519,41.97,-86.95,-32.37,761,769,824,856,873,34.48275862068966,-0.671,-0.743,0.026
29531,1755584715548,41.95,-87.01,-32.34,758,775,810,861,879,33.333333333333336,-0.668,-0.741,0.026
29561,1755584715578,41.93,-86.98,-32.33,764,771,828,866,887,33.333333333333336,-0.666,-0.741,0.031
29590,1755584715607,41.96,-86.98,-32.35,752,765,822,861,869,34.48275862068966,-0.664,-0.741,0.031
29620,1755584715637,41.95,-86.92,-32.32,760,767,826,873,879,33.333333333333336,-0.669,-0.745,0.032
29650,1755584715667,42.03,-86.9,-32.28,755,773,821,854,882,33.333333333333336,-0.668,-0.743,0.031
29679,1755584715696,42.02,-86.85,-32.26,761,763,825,864,887,34.48275862068966,-0.667,-0.742,0.028
29709,1755584715726,42.05,-86.9,-32.26,755,765,826,857,874,33.333333333333336,-0.665,-0.741,0.025
29739,1755584715757,42.0,-86.98,-32.31,756,777,824,868,881,33.333333333333336,-0.666,-0.741,0.026
29759,1755584715776,41.97,-86.97,-32.32,762,780,834,857,876,50.0,-0.672,-0.743,0.03
29789,1755584715806,41.97,-86.91,-32.29,757,778,811,865,872,33.333333333333336,-0.674,-0.745,0.029
29819,1755584715836,41.96,-86.93,-32.23,754,781,819,864,880,33.333333333333336,-0.669,-0.745,0.027
29848,1755584715865,41.94,-86.91,-32.21,760,781,819,857,875,34.48275862068966,-0.669,-0.744,0.032
29878,1755584715895,41.91,-86.8,-32.18,759,771,825,861,882,33.333333333333336,-0.668,-0.742,0.029
29907,1755584715925,41.92,-86.89,-32.16,763,769,828,863,884,34.48275862068966,-0.666,-0.74,0.021
29937,1755584715954,41.86,-87.0,-32.17,760,768,836,852,872,33.333333333333336,-0.665,-0.74,0.023
29967,1755584715984,41.81,-86.98,-32.2,752,773,825,867,888,33.333333333333336,-0.668,-0.739,0.03
29996,1755584716013,41.81,-86.89,-32.19,764,767,827,864,875,34.48275862068966,-0.67,-0.74,0.033
30026,1755584716043,41.84,-86.88,-32.17,762,771,823,863,878,33.333333333333336,-0.669,-0.743,0.032
30055,1755584716072,41.84,-86.87,-32.16,761,776,815,866,883,34.48275862068966,-0.667,-0.744,0.03
30085,1755584716102,41.81,-86.85,-32.16,759,770,817,863,889,33.333333333333336,-0.667,-0.742,0.03
30114,1755584716132,41.84,-86.86,-32.15,765,766,825,861,879,34.48275862068966,-0.669,-0.741,0.034
30144,1755584716161,41.84,-86.82,-32.14,757,769,830,856,875,33.333333333333336,-0.67,-0.741,0.032
30173,1755584716191,41.75,-86.75,-32.12,753,769,825,865,875,34.48275862068966,-0.668,-0.741,0.026
30203,1755584716220,41.78,-86.83,-32.13,762,763,825,866,871,33.333333333333336,-0.666,-0.743,0.028
30233,1755584716250,41.71,-86.84,-32.16,762,770,830,859,873,33.333333333333336,-0.663,-0.741,0.03
30262,1755584716279,41.75,-86.81,-32.13,759,777,832,868,871,34.48275862068966,-0.669,-0.745,0.032
30292,1755584716309,41.73,-86.79,-32.09,760,772,820,863,873,33.333333333333336,-0.669,-0.743,0.033
30321,1755584716338,41.8,-86.77,-32.04,755,774,823,861,873,34.48275862068966,-0.669,-0.742,0.035
30351,1755584716368,41.72,-86.69,-32.03,759,780,820,866,869,33.333333333333336,-0.667,-0.741,0.03
30380,1755584716398,41.74,-86.78,-32.03,752,767,825,867,868,34.48275862068966,-0.667,-0.74,0.022
30410,1755584716428,41.82,-86.9,-32.02,763,774,826,860,885,33.333333333333336,-0.667,-0.739,0.026
30440,1755584716457,41.79,-86.85,-32.02,759,768,824,865,873,33.333333333333336,-0.668,-0.74,0.033
30469,1755584716487,41.76,-86.8,-32.04,765,765,819,869,874,34.48275862068966,-0.667,-0.739,0.032
30499,1755584716516,41.78,-86.8,-32.03,761,770,823,859,881,33.333333333333336,-0.668,-0.741,0.031
30529,1755584716546,41.79,-86.8,-32.02,764,768,832,861,880,33.333333333333336,-0.669,-0.741,0.035
30558,1755584716575,41.77,-86.67,-31.96,761,772,822,873,865,34.48275862068966,-0.672,-0.742,0.033
30588,1755584716605,41.8,-86.67,-31.94,749,775,836,864,869,33.333333333333336,-0.669,-0.739,0.024
30617,1755584716635,41.78,-86.81,-31.94,758,774,805,881,877,34.48275862068966,-0.668,-0.74,0.026
30647,1755584716664,41.68,-86.76,-31.94,758,770,824,859,878,33.333333333333336,-0.667,-0.741,0.031
30676,1755584716693,41.63,-86.68,-31.96,758,790,822,857,876,34.48275862068966,-0.667,-0.743,0.035
30706,1755584716723,41.65,-86.73,-31.97,759,775,822,866,873,33.333333333333336,-0.667,-0.742,0.034
30736,1755584716753,41.63,-86.7,-31.95,762,776,816,867,873,33.333333333333336,-0.671,-0.743,0.037
30765,1755584716783,41.63,-86.66,-31.92,765,776,822,869,877,34.48275862068966,-0.668,-0.741,0.034
30795,1755584716813,41.62,-86.67,-31.92,763,770,833,864,873,33.333333333333336,-0.666,-0.74,0.033
30825,1755584716842,41.56,-86.65,-31.94,765,764,826,873,871,33.333333333333336,-0.664,-0.741,0.034
30855,1755584716872,41.43,-86.52,-31.97,755,779,822,865,875,33.333333333333336,-0.664,-0.742,0.035
30885,1755584716902,41.45,-86.54,-31.96,756,770,830,878,872,33.333333333333336,-0.665,-0.742,0.035
30914,1755584716931,41.59,-86.57,-31.93,766,780,833,866,876,34.48275862068966,-0.669,-0.743,0.037
30944,1755584716961,41.52,-86.56,-31.94,762,780,826,868,868,33.333333333333336,-0.666,-0.741,0.037
30973,1755584716990,41.53,-86.54,-31.95,754,775,818,855,870,34.48275862068966,-0.665,-0.74,0.038
31003,1755584717020,41.56,-86.53,-31.92,761,772,838,864,879,33.333333333333336,-0.667,-0.742,0.039
31032,1755584717049,41.54,-86.51,-31.91,759,773,817,867,865,34.48275862068966,-0.667,-0.741,0.038
31062,1755584717079,41.56,-86.51,-31.91,764,771,814,863,897,33.333333333333336,-0.668,-0.741,0.035
31091,1755584717109,41.55,-86.51,-31.9,759,781,827,866,871,34.48275862068966,-0.667,-0.741,0.033
31121,1755584717138,41.55,-86.54,-31.9,760,764,821,864,869,33.333333333333336,-0.666,-0.741,0.036
31151,1755584717168,41.56,-86.55,-31.9,756,775,825,857,879,33.333333333333336,-0.668,-0.743,0.039
31180,1755584717197,41.55,-86.49,-31.88,760,785,830,863,879,34.48275862068966,-0.667,-0.742,0.037
31210,1755584717227,41.59,-86.48,-31.86,757,761,823,856,874,33.333333333333336,-0.668,-0.743,0.033
31239,1755584717257,41.57,-86.59,-31.85,750,770,835,864,876,34.48275862068966,-0.666,-0.744,0.031
31269,1755584717286,41.6,-86.61,-31.83,764,783,804,866,876,33.333333333333336,-0.665,-0.743,0.035
31299,1755584717316,41.56,-86.61,-31.81,759,770,824,867,868,33.333333333333336,-0.667,-0.744,0.038
31328,1755584717346,41.59,-86.56,-31.78,752,777,824,865,874,34.48275862068966,-0.666,-0.741,0.037
31358,1755584717375,41.66,-86.6,-31.75,762,766,822,858,871,33.333333333333336,-0.669,-0.742,0.035
