timestamp_ms,recv_timestamp_ms,pitch,roll,yaw,flex1,flex2,flex3,flex4,flex5,sampling_hz,accel_x,accel_y,accel_z
44595,1755587391572,51.25,-79.61,-33.48,766,773,772,819,850,33.333333333333336,-0.778,-0.618,0.111
44625,1755587391602,51.26,-79.59,-33.49,781,776,773,819,848,33.333333333333336,-0.778,-0.616,0.114
44654,1755587391631,51.28,-79.58,-33.49,778,780,764,819,847,34.48275862068966,-0.78,-0.617,0.112
44684,1755587391661,51.29,-79.53,-33.47,775,778,775,812,843,33.333333333333336,-0.779,-0.618,0.111
44713,1755587391690,51.28,-79.5,-33.46,775,783,767,816,862,34.48275862068966,-0.778,-0.62,0.113
44743,1755587391720,51.31,-79.46,-33.45,781,770,769,815,849,33.333333333333336,-0.778,-0.62,0.116
44772,1755587391749,51.35,-79.43,-33.43,775,775,763,824,850,34.48275862068966,-0.779,-0.618,0.111
44802,1755587391779,51.39,-79.45,-33.44,782,781,771,821,848,33.333333333333336,-0.779,-0.616,0.111
44831,1755587391808,51.38,-79.42,-33.45,781,769,773,821,843,34.48275862068966,-0.78,-0.615,0.112
44861,1755587391839,51.37,-79.39,-33.45,777,782,772,815,838,33.333333333333336,-0.781,-0.618,0.11
44881,1755587391859,51.39,-79.4,-33.44,779,784,769,819,836,50.0,-0.781,-0.618,0.109
44911,1755587391888,51.42,-79.5,-33.46,779,783,763,822,826,33.333333333333336,-0.78,-0.613,0.11
44941,1755587391918,51.39,-79.54,-33.51,788,778,775,822,840,33.333333333333336,-0.782,-0.615,0.113
44970,1755587391947,51.32,-79.5,-33.5,771,775,765,822,850,34.48275862068966,-0.782,-0.62,0.11
45000,1755587391977,51.37,-79.57,-33.46,784,771,768,808,854,33.333333333333336,-0.781,-0.621,0.106
45029,1755587392007,51.42,-79.67,-33.48,776,779,768,822,855,34.48275862068966,-0.777,-0.617,0.109
45059,1755587392036,51.37,-79.58,-33.49,775,771,773,825,847,33.333333333333336,-0.78,-0.616,0.114
45089,1755587392066,51.33,-79.51,-33.46,785,771,765,814,849,33.333333333333336,-0.782,-0.619,0.112
45118,1755587392096,51.4,-79.65,-33.43,777,781,776,819,842,34.48275862068966,-0.78,-0.618,0.105
45148,1755587392125,51.41,-79.76,-33.44,775,773,767,825,843,33.333333333333336,-0.779,-0.615,0.108
45177,1755587392155,51.26,-79.76,-33.44,769,773,771,820,844,34.48275862068966,-0.776,-0.619,0.109
45207,1755587392184,51.28,-79.75,-33.41,776,765,763,819,852,33.333333333333336,-0.779,-0.62,0.108
45237,1755587392214,51.32,-79.82,-33.38,778,774,772,823,847,33.333333333333336,-0.779,-0.618,0.11
45266,1755587392244,51.28,-79.8,-33.41,780,776,774,811,847,34.48275862068966,-0.777,-0.614,0.114
45296,1755587392273,51.21,-79.74,-33.43,778,783,767,818,848,33.333333333333336,-0.779,-0.618,0.114
45326,1755587392303,51.29,-79.68,-33.4,778,788,770,821,851,33.333333333333336,-0.779,-0.618,0.11
45355,1755587392332,51.29,-79.71,-33.39,772,774,767,818,850,34.48275862068966,-0.775,-0.616,0.11
45385,1755587392362,51.25,-79.68,-33.42,776,776,768,808,839,33.333333333333336,-0.777,-0.614,0.111
45414,1755587392392,51.22,-79.64,-33.42,781,778,774,808,842,34.48275862068966,-0.782,-0.616,0.111
45444,1755587392421,51.23,-79.69,-33.41,769,774,768,818,843,33.333333333333336,-0.78,-0.617,0.111
45473,1755587392451,51.26,-79.73,-33.41,771,780,779,820,847,34.48275862068966,-0.778,-0.617,0.11
45503,1755587392480,51.2,-79.72,-33.43,771,778,769,822,848,33.333333333333336,-0.778,-0.613,0.111
45532,1755587392510,51.12,-79.68,-33.45,775,770,764,825,852,34.48275862068966,-0.781,-0.613,0.113
45562,1755587392539,51.11,-79.68,-33.44,771,771,769,824,842,33.333333333333336,-0.783,-0.617,0.111
45592,1755587392569,51.18,-79.68,-33.41,778,772,773,821,838,33.333333333333336,-0.78,-0.618,0.112
45621,1755587392598,51.15,-79.7,-33.43,773,772,767,817,840,34.48275862068966,-0.776,-0.615,0.113
45651,1755587392628,51.1,-79.68,-33.46,774,772,775,814,862,33.333333333333336,-0.777,-0.615,0.113
45680,1755587392657,51.14,-79.67,-33.46,771,774,771,820,845,34.48275862068966,-0.782,-0.617,0.113
45710,1755587392687,51.16,-79.66,-33.44,779,774,768,819,846,33.333333333333336,-0.779,-0.616,0.114
45739,1755587392716,51.13,-79.72,-33.45,777,778,768,820,845,34.48275862068966,-0.777,-0.615,0.112
45769,1755587392746,51.15,-79.75,-33.47,779,785,769,819,839,33.333333333333336,-0.779,-0.615,0.113
45789,1755587392766,51.16,-79.76,-33.49,779,776,766,822,840,50.0,-0.781,-0.616,0.114
45818,1755587392795,51.14,-79.71,-33.47,782,772,769,810,842,34.48275862068966,-0.781,-0.618,0.115
45848,1755587392825,51.17,-79.71,-33.45,776,772,766,819,853,33.333333333333336,-0.781,-0.618,0.114
45878,1755587392855,51.17,-79.74,-33.46,775,777,767,824,849,33.333333333333336,-0.778,-0.616,0.113
45898,1755587392875,51.18,-79.75,-33.46,778,769,774,818,853,50.0,-0.78,-0.614,0.113
45927,1755587392905,51.17,-79.73,-33.47,781,773,770,816,841,34.48275862068966,-0.781,-0.615,0.113
45957,1755587392934,51.13,-79.7,-33.46,773,773,773,821,845,33.333333333333336,-0.78,-0.617,0.113
45986,1755587392964,51.16,-79.73,-33.44,773,776,773,813,844,34.48275862068966,-0.779,-0.617,0.113
46016,1755587392993,51.18,-79.8,-33.44,780,775,768,817,845,33.333333333333336,-0.777,-0.618,0.112
46046,1755587393023,51.21,-79.74,-33.44,769,780,768,822,842,33.333333333333336,-0.779,-0.615,0.115
46075,1755587393052,51.19,-79.7,-33.44,774,769,760,828,842,34.48275862068966,-0.78,-0.615,0.115
46105,1755587393082,51.2,-79.71,-33.43,777,770,770,818,846,33.333333333333336,-0.779,-0.617,0.113
46134,1755587393111,51.2,-79.7,-33.42,781,772,767,806,847,34.48275862068966,-0.779,-0.618,0.112
46164,1755587393141,51.24,-79.68,-33.44,779,778,768,838,875,33.333333333333336,-0.781,-0.614,0.113
46193,1755587393171,51.23,-79.68,-33.46,775,765,762,813,833,34.48275862068966,-0.781,-0.614,0.113
46223,1755587393200,51.22,-79.7,-33.46,780,771,773,812,835,33.333333333333336,-0.781,-0.619,0.111
46253,1755587393230,51.21,-79.67,-33.44,773,773,767,817,841,33.333333333333336,-0.779,-0.619,0.111
46283,1755587393260,51.22,-79.69,-33.46,777,772,763,828,864,33.333333333333336,-0.778,-0.616,0.112
46312,1755587393290,51.2,-79.71,-33.47,780,769,771,820,841,34.48275862068966,-0.78,-0.615,0.113
46342,1755587393319,51.22,-79.67,-33.46,771,775,765,814,846,33.333333333333336,-0.782,-0.618,0.115
46371,1755587393349,51.23,-79.64,-33.47,776,770,771,819,845,34.48275862068966,-0.778,-0.618,0.114
46401,1755587393378,51.27,-79.61,-33.46,776,779,775,822,850,33.333333333333336,-0.777,-0.616,0.113
46431,1755587393408,51.26,-79.67,-33.48,778,777,770,814,845,33.333333333333336,-0.779,-0.615,0.111
46451,1755587393428,51.25,-79.69,-33.48,778,770,768,821,839,50.0,-0.782,-0.616,0.111
46480,1755587393457,51.23,-79.62,-33.48,783,766,774,822,846,34.48275862068966,-0.783,-0.616,0.113
46510,1755587393488,51.23,-79.64,-33.48,778,769,760,817,847,33.333333333333336,-0.78,-0.617,0.11
46530,1755587393507,51.25,-79.69,-33.48,767,777,760,827,840,50.0,-0.78,-0.618,0.11
46560,1755587393537,51.22,-79.7,-33.48,779,768,770,825,855,33.333333333333336,-0.78,-0.617,0.112
46589,1755587393566,51.68,-79.68,-33.49,780,770,770,820,853,34.48275862068966,-0.78,-0.617,0.114
46619,1755587393596,51.64,-79.63,-33.48,777,770,773,819,846,33.333333333333336,-0.779,-0.616,0.113
46648,1755587393625,51.67,-79.7,-33.48,773,778,770,818,846,34.48275862068966,-0.779,-0.617,0.11
46678,1755587393655,51.65,-79.68,-33.47,775,773,773,811,848,33.333333333333336,-0.78,-0.617,0.11
46708,1755587393685,51.61,-79.66,-33.48,777,778,768,818,837,33.333333333333336,-0.779,-0.615,0.11
46737,1755587393714,51.61,-79.68,-33.48,778,778,773,822,843,34.48275862068966,-0.78,-0.616,0.111
46767,1755587393744,51.62,-79.69,-33.46,774,784,766,813,836,33.333333333333336,-0.78,-0.618,0.11
46796,1755587393773,51.62,-79.69,-33.45,776,776,764,822,837,34.48275862068966,-0.778,-0.618,0.11
46826,1755587393803,51.63,-79.68,-33.45,780,776,765,816,852,33.333333333333336,-0.778,-0.616,0.111
46855,1755587393832,51.6,-79.7,-33.45,784,773,772,814,842,34.48275862068966,-0.779,-0.616,0.111
46885,1755587393862,51.63,-79.71,-33.45,784,766,772,821,851,33.333333333333336,-0.78,-0.616,0.109
46914,1755587393892,51.64,-79.68,-33.45,772,776,765,820,835,34.48275862068966,-0.78,-0.615,0.111
46944,1755587393921,51.6,-79.7,-33.46,777,779,774,819,843,33.333333333333336,-0.781,-0.615,0.11
46974,1755587393951,51.58,-79.77,-33.46,776,767,774,822,840,33.333333333333336,-0.78,-0.618,0.108
47004,1755587393981,51.62,-79.32,-33.46,774,766,770,824,846,33.333333333333336,-0.78,-0.616,0.112
47033,1755587394010,51.56,-79.29,-33.47,780,772,779,820,836,34.48275862068966,-0.78,-0.615,0.113
47063,1755587394040,51.56,-79.33,-33.48,780,770,766,819,851,33.333333333333336,-0.779,-0.616,0.109
47092,1755587394070,51.55,-79.34,-33.48,778,771,764,814,856,34.48275862068966,-0.781,-0.618,0.11
47112,1755587394089,51.53,-79.31,-33.47,779,769,776,821,845,50.0,-0.779,-0.618,0.111
47142,1755587394119,51.5,-79.3,-33.46,779,772,763,818,837,33.333333333333336,-0.776,-0.617,0.11
47171,1755587394149,51.55,-79.33,-33.46,781,761,766,816,848,34.48275862068966,-0.778,-0.617,0.109
47201,1755587394178,51.54,-79.35,-33.46,769,770,769,816,837,33.333333333333336,-0.78,-0.615,0.109
47231,1755587394208,51.53,-79.38,-33.48,776,774,772,821,850,33.333333333333336,-0.779,-0.616,0.11
47260,1755587394237,51.52,-79.4,-33.46,777,771,770,815,837,34.48275862068966,-0.778,-0.619,0.109
47290,1755587394267,51.56,-79.45,-33.45,776,779,775,814,841,33.333333333333336,-0.777,-0.618,0.108
47319,1755587394296,51.55,-79.47,-33.46,778,777,767,817,847,34.48275862068966,-0.776,-0.615,0.11
47349,1755587394326,51.52,-79.47,-33.45,780,774,768,825,840,33.333333333333336,-0.78,-0.617,0.11
47378,1755587394355,51.53,-79.5,-33.43,775,776,758,826,849,34.48275862068966,-0.78,-0.619,0.108
47408,1755587394385,51.56,-79.56,-33.43,774,776,765,817,836,33.333333333333336,-0.778,-0.618,0.109
47437,1755587394415,51.54,-79.55,-33.43,774,771,767,822,840,34.48275862068966,-0.78,-0.616,0.111
47467,1755587394444,51.53,-79.57,-33.42,770,780,775,810,859,33.333333333333336,-0.782,-0.616,0.109
47496,1755587394474,51.55,-79.59,-33.41,784,767,772,823,845,34.48275862068966,-0.78,-0.616,0.107
47526,1755587394504,51.52,-79.64,-33.41,785,772,771,817,841,33.333333333333336,-0.778,-0.618,0.106
47556,1755587394533,51.48,-79.63,-33.41,780,772,770,816,843,33.333333333333336,-0.779,-0.617,0.108
47585,1755587394563,51.49,-79.63,-33.42,780,775,767,817,838,34.48275862068966,-0.781,-0.617,0.11
47615,1755587394592,51.5,-79.6,-33.41,778,772,772,820,847,33.333333333333336,-0.78,-0.617,0.108
47645,1755587394622,51.5,-79.62,-33.42,774,773,769,820,858,33.333333333333336,-0.778,-0.616,0.106
47674,1755587394651,51.45,-79.63,-33.44,785,779,766,816,850,34.48275862068966,-0.779,-0.616,0.106
47703,1755587394681,51.46,-79.67,-33.44,779,776,774,817,865,34.48275862068966,-0.779,-0.619,0.107
47733,1755587394710,51.46,-79.67,-33.41,778,773,765,822,831,33.333333333333336,-0.779,-0.618,0.107
47763,1755587394740,51.48,-79.7,-33.42,778,771,770,814,824,33.333333333333336,-0.778,-0.616,0.107
47793,1755587394770,51.4,-79.68,-33.43,776,775,769,819,836,33.333333333333336,-0.78,-0.617,0.106
47822,1755587394799,51.38,-79.69,-33.43,777,777,771,818,841,34.48275862068966,-0.782,-0.62,0.107
47852,1755587394829,51.42,-79.71,-33.41,770,769,764,818,842,33.333333333333336,-0.779,-0.619,0.109
47881,1755587394858,51.39,-79.72,-33.42,775,777,766,818,852,34.48275862068966,-0.777,-0.617,0.106
47911,1755587394888,51.39,-79.72,-33.43,778,779,769,826,833,33.333333333333336,-0.78,-0.616,0.105
47940,1755587394917,51.38,-79.74,-33.44,775,774,768,820,844,34.48275862068966,-0.78,-0.617,0.107
47970,1755587394947,51.44,-79.72,-33.43,780,774,773,814,851,33.333333333333336,-0.779,-0.618,0.108
48000,1755587394977,51.43,-79.75,-33.42,776,774,769,818,859,33.333333333333336,-0.777,-0.619,0.107
48029,1755587395007,51.46,-79.74,-33.43,775,770,771,827,847,34.48275862068966,-0.779,-0.617,0.108
48059,1755587395036,51.43,-79.73,-33.44,773,769,772,821,846,33.333333333333336,-0.78,-0.615,0.109
48089,1755587395066,51.46,-79.71,-33.44,775,770,767,822,842,33.333333333333336,-0.782,-0.616,0.108
48118,1755587395095,51.45,-79.76,-33.44,771,770,765,815,841,34.48275862068966,-0.78,-0.618,0.105
48148,1755587395125,51.46,-79.77,-33.44,783,776,762,819,845,33.333333333333336,-0.778,-0.617,0.106
48177,1755587395154,51.43,-79.76,-33.44,777,778,770,825,838,34.48275862068966,-0.78,-0.617,0.108
48207,1755587395184,51.47,-79.79,-33.43,781,769,770,823,842,33.333333333333336,-0.781,-0.619,0.107
48236,1755587395213,51.5,-79.77,-33.42,780,780,769,820,844,34.48275862068966,-0.778,-0.615,0.107
48266,1755587395243,51.43,-79.78,-33.44,779,770,776,817,852,33.333333333333336,-0.778,-0.615,0.106
48295,1755587395272,51.46,-79.84,-33.45,763,770,769,824,837,34.48275862068966,-0.78,-0.618,0.105
48325,1755587395302,51.54,-79.88,-33.43,779,777,765,819,858,33.333333333333336,-0.779,-0.621,0.104
48354,1755587395332,51.56,-79.87,-33.43,772,776,769,825,851,34.48275862068966,-0.777,-0.618,0.108
48384,1755587395361,51.52,-79.87,-33.43,774,780,769,821,843,33.333333333333336,-0.779,-0.616,0.107
48414,1755587395391,51.51,-79.93,-33.45,775,772,771,820,843,33.333333333333336,-0.781,-0.616,0.103
48444,1755587395421,51.55,-79.96,-33.44,774,765,769,820,850,33.333333333333336,-0.779,-0.619,0.104
48474,1755587395451,51.51,-79.92,-33.43,777,777,763,822,838,33.333333333333336,-0.778,-0.62,0.105
48503,1755587395480,51.52,-79.98,-33.44,782,773,774,817,846,34.48275862068966,-0.778,-0.62,0.104
48533,1755587395510,51.51,-79.96,-33.42,773,780,764,831,846,33.333333333333336,-0.78,-0.619,0.104
48562,1755587395539,51.49,-79.96,-33.41,780,769,773,817,845,34.48275862068966,-0.78,-0.617,0.103
48592,1755587395569,51.5,-79.97,-33.4,777,777,771,808,835,33.333333333333336,-0.781,-0.619,0.104
48621,1755587395598,51.48,-79.99,-33.38,776,772,771,817,847,34.48275862068966,-0.779,-0.614,0.104
48651,1755587395629,51.48,-80.0,-33.37,781,777,765,804,843,33.333333333333336,-0.779,-0.612,0.105
48671,1755587395649,51.45,-80.0,-33.37,764,775,770,823,842,50.0,-0.78,-0.61,0.105
48701,1755587395679,51.48,-80.03,-33.39,773,776,761,816,843,33.333333333333336,-0.783,-0.612,0.103
48731,1755587395708,51.48,-80.03,-33.38,770,773,773,810,842,33.333333333333336,-0.783,-0.614,0.103
48760,1755587395738,51.43,-80.07,-33.4,775,784,774,823,867,34.48275862068966,-0.779,-0.615,0.103
48790,1755587395767,51.46,-80.06,-33.39,783,770,767,818,840,33.333333333333336,-0.78,-0.617,0.105
48819,1755587395797,51.44,-80.07,-33.4,777,775,771,818,837,34.48275862068966,-0.78,-0.615,0.103
48849,1755587395826,51.51,-80.13,-33.41,776,779,769,824,845,33.333333333333336,-0.779,-0.616,0.104
48879,1755587395856,51.46,-80.07,-33.4,774,772,773,822,845,33.333333333333336,-0.78,-0.618,0.105
48909,1755587395886,51.43,-80.06,-33.39,775,768,777,814,866,33.333333333333336,-0.78,-0.62,0.103
48938,1755587395915,51.48,-80.1,-33.37,774,774,776,820,845,34.48275862068966,-0.78,-0.619,0.105
48968,1755587395945,51.5,-80.13,-33.36,776,776,763,813,847,33.333333333333336,-0.778,-0.616,0.106
48998,1755587395975,51.52,-80.08,-33.38,780,775,765,820,859,33.333333333333336,-0.781,-0.614,0.107
49027,1755587396004,51.46,-80.05,-33.39,779,773,774,826,852,34.48275862068966,-0.781,-0.616,0.103
49057,1755587396034,51.52,-80.19,-33.39,780,773,768,818,847,33.333333333333336,-0.779,-0.617,0.099
49086,1755587396064,51.47,-80.25,-33.39,773,773,771,813,846,34.48275862068966,-0.779,-0.616,0.101
49116,1755587396093,51.42,-80.19,-33.43,772,775,768,824,839,33.333333333333336,-0.781,-0.614,0.104
49145,1755587396123,51.43,-80.19,-33.45,786,766,770,824,836,34.48275862068966,-0.781,-0.617,0.106
49175,1755587396152,51.42,-80.17,-33.42,772,777,784,827,842,33.333333333333336,-0.78,-0.623,0.104
49205,1755587396182,51.39,-80.18,-33.39,779,770,767,821,840,33.333333333333336,-0.775,-0.621,0.1
49234,1755587396211,51.35,-80.19,-33.43,774,771,779,815,837,34.48275862068966,-0.776,-0.616,0.102
49264,1755587396241,51.28,-80.15,-33.46,777,777,767,823,850,33.333333333333336,-0.781,-0.616,0.104
49293,1755587396270,51.3,-80.12,-33.44,780,769,762,821,853,34.48275862068966,-0.782,-0.62,0.103
49322,1755587396300,51.28,-80.18,-33.43,778,777,772,815,845,34.48275862068966,-0.777,-0.619,0.1
49352,1755587396329,51.23,-80.25,-33.44,779,775,771,817,848,33.333333333333336,-0.775,-0.616,0.102
49382,1755587396359,51.21,-80.23,-33.46,763,772,768,823,823,33.333333333333336,-0.78,-0.617,0.104
49411,1755587396389,51.17,-80.19,-33.44,779,778,772,809,845,34.48275862068966,-0.781,-0.62,0.104
49431,1755587396409,51.18,-80.17,-33.42,776,773,771,818,840,50.0,-0.78,-0.621,0.103
49451,1755587396429,50.9,-80.19,-33.41,774,774,763,832,849,50.0,-0.776,-0.619,0.1
49481,1755587396458,50.91,-80.22,-33.43,773,779,769,819,846,33.333333333333336,-0.776,-0.616,0.103
49511,1755587396488,50.91,-80.16,-33.43,777,771,775,818,835,33.333333333333336,-0.781,-0.617,0.107
49540,1755587396518,50.88,-80.14,-33.4,773,774,773,821,849,34.48275862068966,-0.781,-0.62,0.104
49570,1755587396547,50.95,-80.23,-33.38,784,762,764,818,837,33.333333333333336,-0.777,-0.618,0.101
49599,1755587396577,50.89,-80.27,-33.4,781,769,771,823,838,34.48275862068966,-0.776,-0.615,0.105
49629,1755587396606,50.86,-80.22,-33.43,779,777,766,832,861,33.333333333333336,-0.781,-0.616,0.105
49658,1755587396635,50.87,-80.22,-33.4,775,771,769,833,845,34.48275862068966,-0.781,-0.619,0.102
49688,1755587396665,50.91,-80.32,-33.39,778,777,768,817,842,33.333333333333336,-0.777,-0.618,0.103
49717,1755587396694,50.88,-80.27,-33.42,781,766,771,811,848,34.48275862068966,-0.776,-0.615,0.108
49747,1755587396724,50.85,-80.22,-33.46,774,774,768,816,846,33.333333333333336,-0.779,-0.615,0.106
49776,1755587396754,50.89,-80.24,-33.45,774,774,768,812,847,34.48275862068966,-0.782,-0.619,0.102
49806,1755587396783,50.86,-80.3,-33.43,773,779,772,823,851,33.333333333333336,-0.777,-0.622,0.099
49836,1755587396813,50.83,-80.28,-33.44,780,775,766,821,854,33.333333333333336,-0.773,-0.619,0.103
49865,1755587396842,50.79,-80.24,-33.46,777,768,763,814,848,34.48275862068966,-0.779,-0.622,0.106
49895,1755587396872,50.78,-80.24,-33.42,775,769,764,811,848,33.333333333333336,-0.78,-0.622,0.105
49924,1755587396901,50.81,-80.27,-33.41,773,773,768,819,845,34.48275862068966,-0.776,-0.616,0.107
49954,1755587396931,50.74,-80.22,-33.46,778,772,772,813,851,33.333333333333336,-0.776,-0.612,0.11
49983,1755587396961,50.65,-80.16,-33.5,776,772,771,821,842,34.48275862068966,-0.781,-0.616,0.108
50013,1755587396990,50.7,-80.2,-33.47,772,779,760,823,840,33.333333333333336,-0.781,-0.621,0.105
50042,1755587397020,50.71,-80.25,-33.44,778,772,770,817,844,34.48275862068966,-0.774,-0.621,0.107
50072,1755587397049,50.69,-80.16,-33.44,778,773,779,819,876,33.333333333333336,-0.774,-0.619,0.112
50102,1755587397079,50.62,-80.12,-33.43,774,770,767,817,849,33.333333333333336,-0.777,-0.62,0.109
50131,1755587397109,50.68,-80.15,-33.4,772,772,772,813,854,34.48275862068966,-0.779,-0.62,0.108
50161,1755587397138,50.73,-80.16,-33.39,770,781,771,821,855,33.333333333333336,-0.777,-0.618,0.11
50191,1755587397168,50.72,-80.06,-33.43,774,776,769,819,840,33.333333333333336,-0.775,-0.614,0.111
50221,1755587397198,50.62,-80.03,-33.45,763,778,771,818,858,33.333333333333336,-0.778,-0.616,0.108
50250,1755587397227,50.6,-80.11,-33.43,768,779,771,820,863,34.48275862068966,-0.775,-0.618,0.106
50280,1755587397257,50.73,-80.16,-33.43,772,776,773,818,841,33.333333333333336,-0.776,-0.617,0.111
50310,1755587397287,50.66,-80.08,-33.45,772,770,767,816,841,33.333333333333336,-0.775,-0.616,0.113
50339,1755587397317,50.7,-80.07,-33.45,780,776,762,821,846,34.48275862068966,-0.777,-0.62,0.11
50369,1755587397346,50.74,-80.11,-33.4,776,773,770,814,847,33.333333333333336,-0.778,-0.622,0.106
50398,1755587397375,50.75,-80.15,-33.38,781,772,775,822,838,34.48275862068966,-0.774,-0.618,0.106
50428,1755587397405,50.74,-80.1,-33.4,776,771,784,817,849,33.333333333333336,-0.776,-0.614,0.109
50457,1755587397434,50.73,-80.12,-33.43,774,773,769,816,844,34.48275862068966,-0.78,-0.614,0.108
50487,1755587397464,50.77,-80.14,-33.42,773,767,774,814,846,33.333333333333336,-0.781,-0.618,0.108
50516,1755587397494,50.73,-80.14,-33.41,776,767,772,813,856,34.48275862068966,-0.777,-0.621,0.108
50546,1755587397523,50.73,-80.15,-33.39,777,774,768,806,861,33.333333333333336,-0.775,-0.62,0.109
50576,1755587397553,50.79,-80.18,-33.4,772,770,769,827,844,33.333333333333336,-0.778,-0.616,0.112
50605,1755587397582,50.77,-80.16,-33.39,783,774,769,817,840,34.48275862068966,-0.779,-0.617,0.113
50635,1755587397612,50.8,-80.1,-33.37,775,776,769,812,838,33.333333333333336,-0.781,-0.62,0.11
50664,1755587397641,50.81,-80.14,-33.35,778,776,772,817,843,34.48275862068966,-0.778,-0.618,0.105
50694,1755587397671,50.83,-80.21,-33.37,778,771,765,820,842,33.333333333333336,-0.778,-0.615,0.107
50723,1755587397701,50.77,-80.2,-33.38,785,770,768,823,840,34.48275862068966,-0.782,-0.616,0.112
50753,1755587397730,50.8,-80.14,-33.36,778,773,767,818,848,33.333333333333336,-0.781,-0.621,0.112
50783,1755587397760,50.88,-80.16,-33.33,776,777,771,837,842,33.333333333333336,-0.778,-0.622,0.108
50812,1755587397789,50.85,-80.22,-33.34,773,781,766,806,844,34.48275862068966,-0.775,-0.618,0.106
50842,1755587397819,50.86,-80.19,-33.36,770,769,763,820,842,33.333333333333336,-0.779,-0.617,0.111
50871,1755587397849,50.87,-80.11,-33.34,776,771,762,821,853,34.48275862068966,-0.782,-0.617,0.111
50901,1755587397878,50.93,-80.16,-33.33,774,773,762,813,847,33.333333333333336,-0.778,-0.618,0.108
50930,1755587397908,50.95,-80.18,-33.34,773,772,768,820,840,34.48275862068966,-0.776,-0.618,0.108
50960,1755587397937,50.91,-80.15,-33.35,783,784,760,817,841,33.333333333333336,-0.777,-0.617,0.108
50990,1755587397967,50.9,-80.16,-33.36,775,769,764,808,841,33.333333333333336,-0.78,-0.616,0.108
51019,1755587397996,50.9,-80.18,-33.37,780,764,768,822,858,34.48275862068966,-0.78,-0.619,0.109
51049,1755587398026,50.88,-80.17,-33.36,781,778,774,815,843,33.333333333333336,-0.778,-0.62,0.108
51078,1755587398056,50.94,-80.15,-33.37,780,778,758,817,859,34.48275862068966,-0.778,-0.618,0.11
51108,1755587398085,50.92,-80.18,-33.4,771,780,774,824,843,33.333333333333336,-0.779,-0.618,0.11
51138,1755587398115,50.94,-80.15,-33.41,778,777,773,817,858,33.333333333333336,-0.781,-0.622,0.109
51167,1755587398144,50.95,-80.16,-33.39,777,773,768,817,837,34.48275862068966,-0.777,-0.622,0.106
51197,1755587398174,51.0,-80.19,-33.4,774,777,769,818,847,33.333333333333336,-0.776,-0.619,0.107
51226,1755587398203,50.95,-80.2,-33.43,767,773,762,814,846,34.48275862068966,-0.777,-0.617,0.108
51256,1755587398233,50.99,-80.19,-33.43,782,765,771,815,843,33.333333333333336,-0.78,-0.619,0.108
51285,1755587398262,51.01,-80.18,-33.41,782,780,768,823,857,34.48275862068966,-0.779,-0.621,0.108
51315,1755587398292,51.04,-80.21,-33.41,775,772,767,819,847,33.333333333333336,-0.774,-0.621,0.108
51344,1755587398322,51.0,-80.18,-33.43,776,768,770,819,838,34.48275862068966,-0.776,-0.62,0.108
51374,1755587398351,51.01,-80.18,-33.42,778,778,762,820,854,33.333333333333336,-0.781,-0.62,0.106
51404,1755587398381,51.09,-80.2,-33.4,777,773,773,816,850,33.333333333333336,-0.78,-0.62,0.106
51433,1755587398410,51.04,-80.2,-33.42,779,772,772,817,843,34.48275862068966,-0.776,-0.62,0.106
51463,1755587398440,51.03,-80.16,-33.42,772,768,766,816,843,33.333333333333336,-0.777,-0.62,0.105
51492,1755587398469,51.06,-80.2,-33.41,778,772,765,822,851,34.48275862068966,-0.779,-0.619,0.104
51522,1755587398499,51.11,-80.24,-33.41,777,771,772,815,845,33.333333333333336,-0.777,-0.617,0.106
51551,1755587398528,51.06,-80.22,-33.42,776,773,777,822,842,34.48275862068966,-0.778,-0.619,0.104
51581,1755587398558,51.02,-80.26,-33.42,781,760,769,820,847,33.333333333333336,-0.779,-0.623,0.104
51610,1755587398587,51.06,-80.29,-33.38,776,766,757,819,843,34.48275862068966,-0.778,-0.622,0.104
51640,1755587398617,51.06,-80.32,-33.37,778,778,772,813,843,33.333333333333336,-0.778,-0.62,0.104
51669,1755587398647,51.0,-80.32,-33.37,775,769,770,818,847,34.48275862068966,-0.78,-0.62,0.102
51689,1755587398666,50.91,-80.33,-33.36,779,774,768,816,840,50.0,-0.779,-0.623,0.099
51719,1755587398696,50.96,-80.43,-33.31,778,768,765,820,835,33.333333333333336,-0.779,-0.627,0.097
51748,1755587398726,51.02,-80.6,-33.25,773,773,765,814,844,34.48275862068966,-0.777,-0.624,0.101
51778,1755587398756,51.01,-80.56,-33.22,775,775,798,818,846,33.333333333333336,-0.777,-0.618,0.11
51808,1755587398785,50.97,-80.48,-33.22,780,778,763,824,841,33.333333333333336,-0.78,-0.617,0.109
51837,1755587398814,51.05,-80.51,-33.21,779,771,770,824,841,34.48275862068966,-0.782,-0.618,0.104
51867,1755587398844,51.04,-80.55,-33.2,777,777,766,812,847,33.333333333333336,-0.778,-0.618,0.1
51896,1755587398874,50.98,-80.57,-33.23,777,770,765,820,851,34.48275862068966,-0.777,-0.615,0.101
51926,1755587398903,50.86,-80.71,-33.31,779,779,764,822,845,33.333333333333336,-0.776,-0.613,0.1
51956,1755587398933,50.8,-80.89,-33.34,771,777,765,818,842,33.333333333333336,-0.778,-0.617,0.101
51985,1755587398963,50.81,-80.84,-33.33,779,779,768,824,841,34.48275862068966,-0.775,-0.615,0.105
52015,1755587398992,50.73,-80.76,-33.37,770,780,771,824,847,33.333333333333336,-0.775,-0.616,0.104
52044,1755587399022,50.77,-80.79,-33.4,772,768,779,820,838,34.48275862068966,-0.778,-0.619,0.102
52074,1755587399051,50.74,-80.77,-33.41,779,772,770,821,837,33.333333333333336,-0.776,-0.62,0.101
52103,1755587399081,50.74,-80.75,-33.44,777,772,769,818,845,34.48275862068966,-0.774,-0.619,0.101
52133,1755587399110,50.73,-80.72,-33.46,772,780,765,824,843,33.333333333333336,-0.777,-0.62,0.102
52163,1755587399140,50.75,-80.76,-33.47,778,773,774,817,837,33.333333333333336,-0.78,-0.621,0.102
52192,1755587399170,50.73,-80.79,-33.47,783,770,774,826,839,34.48275862068966,-0.777,-0.622,0.099
52222,1755587399199,50.73,-80.82,-33.51,776,772,768,816,841,33.333333333333336,-0.775,-0.622,0.097
52251,1755587399229,50.64,-80.92,-33.55,777,778,771,822,838,34.48275862068966,-0.776,-0.621,0.097
52281,1755587399258,50.6,-81.1,-33.63,779,765,762,818,845,33.333333333333336,-0.774,-0.623,0.096
52311,1755587399288,50.59,-81.04,-33.63,781,776,769,818,842,33.333333333333336,-0.774,-0.625,0.101
52340,1755587399317,50.62,-80.9,-33.63,774,773,760,818,843,34.48275862068966,-0.775,-0.623,0.105
52370,1755587399347,50.64,-80.94,-33.62,789,766,790,822,843,33.333333333333336,-0.772,-0.624,0.103
52399,1755587399376,50.6,-80.93,-33.61,777,775,763,822,834,34.48275862068966,-0.772,-0.626,0.099
52428,1755587399406,50.58,-80.88,-33.63,778,769,773,828,830,34.48275862068966,-0.775,-0.623,0.102
52458,1755587399436,50.54,-80.87,-33.63,778,771,772,823,842,33.333333333333336,-0.775,-0.623,0.105
52488,1755587399465,50.58,-80.84,-33.6,773,774,768,834,843,33.333333333333336,-0.775,-0.626,0.105
52518,1755587399495,50.62,-80.84,-33.6,774,766,766,822,841,33.333333333333336,-0.772,-0.625,0.105
52547,1755587399525,50.61,-80.79,-33.62,776,771,771,824,843,34.48275862068966,-0.772,-0.624,0.105
52577,1755587399554,50.62,-80.8,-33.63,778,768,777,814,843,33.333333333333336,-0.773,-0.624,0.103
52607,1755587399584,50.64,-80.75,-33.61,777,774,771,821,845,33.333333333333336,-0.775,-0.623,0.105
52636,1755587399614,50.64,-80.7,-33.59,773,771,765,818,843,34.48275862068966,-0.774,-0.624,0.105
52666,1755587399644,50.66,-80.7,-33.59,778,767,770,817,841,33.333333333333336,-0.773,-0.626,0.103
52686,1755587399664,50.65,-80.71,-33.59,775,765,770,822,841,50.0,-0.773,-0.626,0.103
52707,1755587399684,50.65,-80.71,-33.58,779,778,770,814,848,47.61904761904762,-0.773,-0.624,0.104
52736,1755587399714,50.69,-80.71,-33.58,774,767,771,818,838,34.48275862068966,-0.775,-0.624,0.106
52766,1755587399743,50.71,-80.66,-33.57,779,775,768,814,844,33.333333333333336,-0.776,-0.624,0.106
52795,1755587399772,50.72,-80.64,-33.55,779,764,765,822,843,34.48275862068966,-0.776,-0.626,0.105
52825,1755587399802,50.72,-80.62,-33.53,774,770,770,817,844,33.333333333333336,-0.773,-0.625,0.105
52855,1755587399832,50.74,-80.57,-33.51,776,777,766,819,839,33.333333333333336,-0.774,-0.625,0.106
52884,1755587399862,50.72,-80.51,-33.48,782,778,767,817,848,34.48275862068966,-0.775,-0.625,0.107
52914,1755587399891,50.75,-80.46,-33.44,768,769,764,828,846,33.333333333333336,-0.775,-0.624,0.107
52943,1755587399921,50.76,-80.47,-33.41,784,776,772,812,843,34.48275862068966,-0.775,-0.624,0.106
52973,1755587399950,50.79,-80.45,-33.39,773,771,774,820,846,33.333333333333336,-0.774,-0.622,0.107
53003,1755587399980,50.77,-80.42,-33.4,780,778,755,818,841,33.333333333333336,-0.773,-0.618,0.108
53032,1755587400010,50.8,-80.38,-33.41,770,767,761,824,839,34.48275862068966,-0.779,-0.619,0.108
53062,1755587400039,50.8,-80.35,-33.4,771,774,768,820,855,33.333333333333336,-0.778,-0.62,0.105
53092,1755587400069,50.81,-80.38,-33.4,782,767,766,821,844,33.333333333333336,-0.776,-0.622,0.103
53122,1755587400099,50.8,-80.4,-33.4,773,766,771,815,844,33.333333333333336,-0.775,-0.622,0.105
53151,1755587400129,50.84,-80.38,-33.4,783,779,766,820,849,34.48275862068966,-0.778,-0.62,0.11
53171,1755587400149,50.85,-80.34,-33.4,779,775,770,817,848,50.0,-0.777,-0.62,0.111
53201,1755587400178,50.88,-80.27,-33.38,775,767,769,817,847,33.333333333333336,-0.777,-0.621,0.108
53231,1755587400208,50.92,-80.3,-33.38,784,769,784,812,850,33.333333333333336,-0.776,-0.619,0.105
53260,1755587400238,50.92,-80.35,-33.4,773,774,770,815,845,34.48275862068966,-0.776,-0.618,0.105
53290,1755587400267,50.9,-80.3,-33.42,777,775,770,816,845,33.333333333333336,-0.777,-0.619,0.107
53320,1755587400297,50.87,-80.28,-33.41,779,767,772,818,848,33.333333333333336,-0.777,-0.622,0.107
