timestamp_ms,recv_timestamp_ms,pitch,roll,yaw,flex1,flex2,flex3,flex4,flex5,sampling_hz,accel_x,accel_y,accel_z
40045,1755587467885,25.53,2.92,-122.04,775,769,771,826,843,34.48275862068966,-0.27,0.317,0.916
40074,1755587467914,25.55,2.87,-122.14,765,781,773,814,835,34.48275862068966,-0.271,0.314,0.921
40104,1755587467943,25.59,2.89,-122.25,769,769,774,810,839,33.333333333333336,-0.271,0.314,0.921
40133,1755587467973,25.57,2.86,-122.34,766,776,768,816,837,34.48275862068966,-0.271,0.313,0.917
40163,1755587468002,25.5,2.78,-122.41,769,775,761,811,840,33.333333333333336,-0.27,0.313,0.916
40192,1755587468031,25.45,2.76,-122.48,771,772,765,818,837,34.48275862068966,-0.267,0.312,0.922
40221,1755587468061,25.5,2.75,-122.57,765,780,780,813,841,34.48275862068966,-0.271,0.314,0.928
40251,1755587468091,25.47,2.88,-122.62,769,769,773,810,841,33.333333333333336,-0.267,0.314,0.925
40280,1755587468120,25.51,2.99,-122.72,767,774,768,811,832,34.48275862068966,-0.264,0.313,0.921
40310,1755587468149,25.51,2.99,-122.79,770,770,770,813,836,33.333333333333336,-0.267,0.317,0.915
40339,1755587468179,25.44,2.88,-122.88,765,779,768,809,846,34.48275862068966,-0.266,0.317,0.913
40368,1755587468208,25.4,2.78,-122.96,768,778,770,819,831,34.48275862068966,-0.264,0.315,0.919
40398,1755587468237,25.43,2.8,-123.06,763,781,775,815,843,33.333333333333336,-0.264,0.316,0.926
40427,1755587468267,25.47,2.9,-123.17,770,766,772,808,835,34.48275862068966,-0.265,0.316,0.927
40457,1755587468297,25.51,2.94,-123.26,768,775,767,818,841,33.333333333333336,-0.265,0.315,0.921
40487,1755587468326,25.39,2.96,-123.27,768,773,765,814,836,33.333333333333336,-0.263,0.317,0.916
40516,1755587468355,25.32,2.86,-123.4,776,767,764,822,850,34.48275862068966,-0.259,0.32,0.914
40545,1755587468385,25.31,2.79,-123.56,776,769,768,815,833,34.48275862068966,-0.26,0.318,0.921
40575,1755587468415,25.34,2.76,-123.7,776,771,770,810,839,33.333333333333336,-0.264,0.313,0.929
40605,1755587468444,25.37,2.84,-123.78,769,778,772,818,833,33.333333333333336,-0.263,0.315,0.928
40634,1755587468474,25.42,2.81,-123.92,770,765,768,817,834,34.48275862068966,-0.26,0.315,0.922
40664,1755587468503,25.39,2.8,-124.05,772,768,770,806,842,33.333333333333336,-0.257,0.313,0.92
40693,1755587468533,25.41,2.79,-124.21,768,768,770,807,833,34.48275862068966,-0.259,0.317,0.919
40722,1755587468562,25.46,2.83,-124.37,772,767,773,823,841,34.48275862068966,-0.264,0.321,0.92
40752,1755587468591,25.43,2.86,-124.49,767,776,762,810,835,33.333333333333336,-0.268,0.322,0.921
40781,1755587468621,25.35,2.88,-124.58,772,770,771,810,836,34.48275862068966,-0.268,0.319,0.915
40811,1755587468651,25.32,2.83,-124.67,772,765,767,820,843,33.333333333333336,-0.268,0.317,0.915
40840,1755587468680,25.32,2.73,-124.79,769,778,773,816,837,34.48275862068966,-0.267,0.317,0.915
40870,1755587468709,25.26,2.71,-124.9,768,774,774,816,842,33.333333333333336,-0.264,0.316,0.919
40899,1755587468739,25.2,2.76,-125.0,768,772,772,813,841,34.48275862068966,-0.262,0.317,0.925
40929,1755587468768,25.24,2.77,-125.15,771,777,770,825,833,33.333333333333336,-0.263,0.317,0.924
40958,1755587468798,25.22,2.72,-125.28,769,778,769,807,839,34.48275862068966,-0.264,0.314,0.919
40987,1755587468828,25.18,2.68,-125.36,766,769,768,815,841,34.48275862068966,-0.263,0.316,0.919
41017,1755587468857,25.21,2.64,-125.49,771,775,771,820,840,33.333333333333336,-0.263,0.318,0.921
41047,1755587468886,25.18,2.64,-125.57,768,780,766,808,845,33.333333333333336,-0.261,0.316,0.921
41076,1755587468916,25.18,2.65,-125.69,768,772,771,816,843,34.48275862068966,-0.262,0.317,0.921
41106,1755587468946,25.18,2.62,-125.79,769,775,767,813,841,33.333333333333336,-0.262,0.317,0.921
41126,1755587468966,25.1,2.66,-125.86,768,765,772,812,839,50.0,-0.262,0.315,0.92
41156,1755587468995,25.09,2.6,-125.95,771,772,759,816,839,33.333333333333336,-0.26,0.314,0.922
41185,1755587469025,25.14,2.61,-126.07,773,768,766,812,841,34.48275862068966,-0.261,0.316,0.927
41214,1755587469054,25.1,2.65,-126.15,772,776,766,820,838,34.48275862068966,-0.261,0.316,0.926
41244,1755587469083,25.09,2.56,-126.26,767,770,774,812,838,33.333333333333336,-0.259,0.313,0.92
41273,1755587469113,25.12,2.54,-126.38,769,773,767,810,843,34.48275862068966,-0.26,0.313,0.923
41303,1755587469143,25.14,2.6,-126.5,769,764,774,809,841,33.333333333333336,-0.261,0.315,0.925
41332,1755587469172,25.15,2.57,-126.63,770,768,766,807,838,34.48275862068966,-0.262,0.315,0.921
41362,1755587469202,25.09,2.54,-126.73,769,769,775,821,836,33.333333333333336,-0.263,0.313,0.92
41391,1755587469231,25.07,2.53,-126.83,766,772,764,817,839,34.48275862068966,-0.261,0.311,0.922
41421,1755587469260,25.11,2.49,-126.96,779,756,767,819,848,33.333333333333336,-0.262,0.314,0.922
41450,1755587469290,25.06,2.43,-127.09,768,776,766,813,837,34.48275862068966,-0.259,0.313,0.919
41480,1755587469319,25.03,2.46,-127.19,760,774,767,813,846,33.333333333333336,-0.259,0.311,0.925
41509,1755587469349,25.1,2.51,-127.32,772,770,772,814,843,34.48275862068966,-0.261,0.313,0.924
41539,1755587469378,25.08,2.5,-127.43,765,779,767,822,833,33.333333333333336,-0.26,0.311,0.919
41568,1755587469408,25.06,2.41,-127.56,771,772,785,819,839,34.48275862068966,-0.26,0.308,0.919
41598,1755587469438,25.09,2.35,-127.69,772,769,768,816,845,33.333333333333336,-0.261,0.309,0.922
41627,1755587469467,25.04,2.36,-127.79,770,763,768,810,843,34.48275862068966,-0.26,0.309,0.925
41657,1755587469496,25.08,2.39,-127.91,770,787,768,814,841,33.333333333333336,-0.26,0.308,0.928
41686,1755587469526,25.1,2.45,-128.02,771,770,767,813,843,34.48275862068966,-0.26,0.308,0.924
41716,1755587469555,25.08,2.37,-128.14,767,775,771,811,834,33.333333333333336,-0.262,0.308,0.92
41745,1755587469585,25.07,2.29,-128.25,760,773,772,818,847,34.48275862068966,-0.261,0.307,0.921
41774,1755587469614,25.06,2.3,-128.35,770,773,770,815,832,34.48275862068966,-0.26,0.309,0.925
41804,1755587469644,25.06,2.3,-128.47,769,783,776,805,835,33.333333333333336,-0.261,0.31,0.924
41833,1755587469673,25.05,2.25,-128.6,768,770,767,816,842,34.48275862068966,-0.26,0.305,0.922
41863,1755587469702,25.06,2.26,-128.69,768,766,773,817,842,33.333333333333336,-0.262,0.307,0.925
41892,1755587469732,25.1,2.24,-128.8,767,768,763,816,848,34.48275862068966,-0.264,0.307,0.925
41922,1755587469761,25.08,2.31,-128.85,759,769,771,817,847,33.333333333333336,-0.265,0.306,0.926
41951,1755587469791,25.07,2.33,-128.93,767,770,769,809,844,34.48275862068966,-0.262,0.307,0.927
41981,1755587469820,25.0,2.29,-129.02,764,769,765,814,843,33.333333333333336,-0.261,0.307,0.927
42010,1755587469850,24.92,2.34,-129.11,773,766,765,820,853,34.48275862068966,-0.262,0.307,0.927
42039,1755587469879,24.91,2.37,-129.16,770,778,772,818,832,34.48275862068966,-0.259,0.311,0.923
42069,1755587469909,24.88,2.21,-129.26,765,769,770,821,873,33.333333333333336,-0.257,0.308,0.921
42098,1755587469938,24.82,2.23,-129.34,776,771,771,802,839,34.48275862068966,-0.255,0.308,0.927
42128,1755587469967,24.92,2.3,-129.45,764,775,765,815,842,33.333333333333336,-0.256,0.311,0.93
42157,1755587469997,24.9,2.27,-129.58,773,775,780,814,840,34.48275862068966,-0.254,0.312,0.924
42186,1755587470026,24.78,2.23,-129.68,766,765,772,815,834,34.48275862068966,-0.254,0.309,0.922
42216,1755587470056,24.8,2.18,-129.81,770,766,772,811,838,33.333333333333336,-0.253,0.305,0.926
42245,1755587470085,24.82,2.2,-129.9,768,778,770,810,830,34.48275862068966,-0.257,0.309,0.929
42275,1755587470115,24.83,2.16,-130.01,768,776,760,812,842,33.333333333333336,-0.256,0.307,0.926
42305,1755587470145,24.82,2.15,-130.09,771,778,768,813,835,33.333333333333336,-0.257,0.308,0.926
42334,1755587470175,24.77,2.14,-130.18,767,772,768,820,841,34.48275862068966,-0.252,0.307,0.925
42354,1755587470194,24.68,2.21,-130.27,765,780,770,817,836,50.0,-0.252,0.308,0.926
42384,1755587470224,24.76,2.24,-130.41,767,771,774,815,840,33.333333333333336,-0.254,0.309,0.929
42414,1755587470254,24.76,2.26,-130.5,763,770,767,815,834,33.333333333333336,-0.256,0.307,0.929
42443,1755587470283,24.73,2.23,-130.58,772,771,769,810,840,34.48275862068966,-0.255,0.305,0.926
42473,1755587470313,24.73,2.18,-130.68,765,774,766,814,827,33.333333333333336,-0.254,0.305,0.925
42503,1755587470342,24.74,2.14,-130.8,765,774,772,822,836,33.333333333333336,-0.255,0.306,0.93
42532,1755587470371,24.78,2.15,-130.92,766,779,773,805,843,34.48275862068966,-0.252,0.305,0.929
42561,1755587470401,24.76,2.12,-131.03,771,773,773,809,843,34.48275862068966,-0.253,0.304,0.927
42591,1755587470430,24.74,2.09,-131.15,768,779,770,818,839,33.333333333333336,-0.254,0.307,0.926
42620,1755587470460,24.77,2.19,-131.26,768,767,771,815,838,34.48275862068966,-0.254,0.308,0.929
42650,1755587470489,24.78,2.17,-131.36,773,775,768,812,857,33.333333333333336,-0.253,0.307,0.927
42679,1755587470518,24.76,2.13,-131.48,768,778,763,817,838,34.48275862068966,-0.255,0.308,0.925
42708,1755587470548,24.72,2.09,-131.58,769,770,771,814,843,34.48275862068966,-0.252,0.307,0.924
42738,1755587470577,24.73,2.14,-131.67,772,767,771,822,840,33.333333333333336,-0.253,0.308,0.93
42767,1755587470607,24.75,2.13,-131.77,768,769,764,826,845,34.48275862068966,-0.252,0.308,0.927
42796,1755587470636,24.74,2.06,-131.87,763,798,771,820,841,34.48275862068966,-0.252,0.304,0.924
42826,1755587470666,24.72,2.02,-131.95,769,776,772,805,838,33.333333333333336,-0.251,0.302,0.929
42855,1755587470695,24.72,2.07,-132.05,775,776,764,814,843,34.48275862068966,-0.251,0.309,0.931
42885,1755587470725,24.72,2.03,-132.21,767,772,769,807,844,33.333333333333336,-0.25,0.308,0.925
42914,1755587470754,24.71,2.06,-132.32,769,777,772,811,842,34.48275862068966,-0.251,0.303,0.926
42944,1755587470783,24.71,2.12,-132.37,771,777,765,811,840,33.333333333333336,-0.258,0.302,0.932
42973,1755587470813,24.58,2.19,-132.41,768,775,773,813,834,34.48275862068966,-0.252,0.307,0.925
43003,1755587470842,24.6,2.06,-132.53,779,774,771,811,838,33.333333333333336,-0.253,0.305,0.924
43032,1755587470872,24.55,2.04,-132.62,775,764,766,812,837,34.48275862068966,-0.248,0.306,0.925
43061,1755587470901,24.51,2.04,-132.71,767,772,775,812,844,34.48275862068966,-0.247,0.308,0.925
43091,1755587470931,24.53,2.02,-132.85,773,772,765,814,846,33.333333333333336,-0.25,0.308,0.927
43120,1755587470960,24.47,2.02,-132.94,766,772,769,808,836,34.48275862068966,-0.251,0.308,0.926
43150,1755587470990,24.47,2.03,-133.03,770,768,767,813,838,33.333333333333336,-0.249,0.307,0.927
43180,1755587471020,24.52,2.07,-133.13,768,775,764,811,843,33.333333333333336,-0.248,0.309,0.93
43209,1755587471049,24.48,2.08,-133.22,771,763,768,812,832,34.48275862068966,-0.247,0.307,0.929
43239,1755587471079,24.46,2.1,-133.33,776,767,768,813,838,33.333333333333336,-0.246,0.308,0.927
43269,1755587471108,24.53,2.11,-133.46,767,775,769,821,833,33.333333333333336,-0.246,0.31,0.928
43298,1755587471138,24.51,2.09,-133.57,771,780,770,820,837,34.48275862068966,-0.247,0.309,0.926
43328,1755587471167,24.45,2.03,-133.67,770,770,773,813,836,33.333333333333336,-0.247,0.308,0.926
43357,1755587471196,24.45,2.05,-133.78,772,768,772,817,845,34.48275862068966,-0.247,0.308,0.93
43386,1755587471226,24.46,2.08,-133.88,768,770,777,823,842,34.48275862068966,-0.248,0.309,0.93
43416,1755587471255,24.47,2.08,-133.98,763,777,767,816,837,33.333333333333336,-0.248,0.31,0.928
43445,1755587471285,24.46,2.03,-134.09,769,779,762,815,842,34.48275862068966,-0.246,0.307,0.927
43475,1755587471315,24.41,2.07,-134.18,768,775,770,807,839,33.333333333333336,-0.245,0.307,0.927
43505,1755587471344,24.44,2.02,-134.32,762,771,774,823,836,33.333333333333336,-0.246,0.308,0.927
43534,1755587471373,24.44,1.96,-134.46,769,769,766,819,839,34.48275862068966,-0.248,0.305,0.93
43563,1755587471403,24.43,2.01,-134.54,768,771,769,818,843,34.48275862068966,-0.245,0.306,0.93
43593,1755587471432,24.43,2.01,-134.66,767,772,759,814,841,33.333333333333336,-0.246,0.309,0.929
43622,1755587471462,24.37,1.99,-134.75,768,772,766,823,837,34.48275862068966,-0.25,0.308,0.929
43651,1755587471491,24.21,2.08,-134.78,766,768,769,823,841,34.48275862068966,-0.246,0.31,0.928
43681,1755587471521,24.26,2.01,-134.93,766,776,763,814,839,33.333333333333336,-0.245,0.309,0.927
43711,1755587471551,24.21,1.97,-135.02,766,776,770,821,839,33.333333333333336,-0.245,0.305,0.929
43740,1755587471580,24.22,1.95,-135.12,770,774,764,811,839,34.48275862068966,-0.245,0.305,0.93
43770,1755587471609,24.24,2.01,-135.22,763,775,771,813,841,33.333333333333336,-0.244,0.31,0.93
43799,1755587471639,24.2,1.97,-135.33,771,773,771,814,842,34.48275862068966,-0.241,0.31,0.929
43829,1755587471668,24.14,1.93,-135.45,768,775,771,812,848,33.333333333333336,-0.242,0.308,0.929
43858,1755587471698,24.12,1.95,-135.53,770,769,770,824,846,34.48275862068966,-0.242,0.304,0.93
43887,1755587471727,24.16,1.95,-135.63,767,772,766,814,848,34.48275862068966,-0.245,0.308,0.933
43917,1755587471757,24.14,2.0,-135.71,767,777,770,811,833,33.333333333333336,-0.242,0.31,0.932
43947,1755587471786,24.14,2.01,-135.82,764,779,772,818,842,33.333333333333336,-0.239,0.31,0.931
43976,1755587471816,24.16,2.0,-135.94,765,798,769,815,839,34.48275862068966,-0.237,0.308,0.933
44005,1755587471845,24.13,2.05,-136.04,771,768,769,815,843,34.48275862068966,-0.237,0.31,0.93
44035,1755587471875,24.11,2.02,-136.17,759,774,771,818,842,33.333333333333336,-0.24,0.309,0.928
44065,1755587471904,24.09,1.97,-136.28,776,774,775,811,839,33.333333333333336,-0.242,0.308,0.93
44094,1755587471934,24.09,2.03,-136.36,772,771,774,816,841,34.48275862068966,-0.243,0.309,0.933
44123,1755587471964,24.13,2.05,-136.46,770,775,770,816,835,34.48275862068966,-0.241,0.309,0.933
44144,1755587471984,24.08,2.15,-136.54,770,767,765,820,839,47.61904761904762,-0.239,0.31,0.931
44164,1755587472004,24.02,2.26,-136.61,771,777,777,813,847,50.0,-0.237,0.309,0.929
44194,1755587472033,23.97,2.25,-136.72,772,769,768,823,832,33.333333333333336,-0.236,0.307,0.928
44223,1755587472063,23.98,2.21,-136.85,761,774,770,824,845,34.48275862068966,-0.239,0.309,0.931
44253,1755587472093,23.99,2.2,-136.98,766,770,772,815,839,33.333333333333336,-0.241,0.31,0.931
44283,1755587472122,23.96,2.23,-137.06,772,773,772,811,843,33.333333333333336,-0.242,0.309,0.93
44312,1755587472152,23.95,2.24,-137.16,771,773,768,809,842,34.48275862068966,-0.242,0.308,0.93
44342,1755587472182,23.97,2.22,-137.28,764,765,781,820,844,33.333333333333336,-0.241,0.308,0.93
44371,1755587472211,23.97,2.21,-137.38,767,772,781,815,847,34.48275862068966,-0.241,0.307,0.931
44401,1755587472240,24.01,2.23,-137.51,777,772,765,814,837,33.333333333333336,-0.241,0.306,0.931
44430,1755587472270,24.02,2.25,-137.61,777,774,768,812,843,34.48275862068966,-0.242,0.308,0.928
44460,1755587472299,23.98,2.19,-137.71,773,785,777,815,843,33.333333333333336,-0.242,0.308,0.927
44489,1755587472329,24.01,2.19,-137.82,768,774,771,810,846,34.48275862068966,-0.241,0.308,0.931
44518,1755587472358,24.03,2.22,-137.91,769,764,762,814,841,34.48275862068966,-0.241,0.31,0.932
44548,1755587472387,24.01,2.18,-138.02,775,775,767,799,840,33.333333333333336,-0.241,0.31,0.929
44577,1755587472417,23.98,2.18,-138.13,769,767,769,811,840,34.48275862068966,-0.24,0.308,0.927
44607,1755587472447,23.97,2.22,-138.21,770,778,769,815,819,33.333333333333336,-0.241,0.309,0.93
44637,1755587472476,23.99,2.19,-138.32,766,787,763,810,857,33.333333333333336,-0.241,0.308,0.931
44666,1755587472506,24.01,2.22,-138.42,773,775,767,813,838,34.48275862068966,-0.241,0.308,0.932
44696,1755587472535,23.98,2.27,-138.49,771,775,767,810,833,33.333333333333336,-0.239,0.309,0.931
44725,1755587472564,23.96,2.24,-138.61,774,774,764,814,841,34.48275862068966,-0.237,0.309,0.927
44754,1755587472594,23.97,2.19,-138.74,769,767,769,818,836,34.48275862068966,-0.238,0.309,0.926
44784,1755587472623,23.96,2.16,-138.84,770,769,769,811,832,33.333333333333336,-0.24,0.308,0.928
44813,1755587472653,23.94,2.15,-138.94,766,775,766,814,844,34.48275862068966,-0.241,0.307,0.931
44842,1755587472682,23.94,2.19,-139.03,766,773,774,806,835,34.48275862068966,-0.241,0.308,0.933
44872,1755587472712,23.99,2.24,-139.14,767,772,773,812,849,33.333333333333336,-0.239,0.309,0.931
44901,1755587472742,23.98,2.19,-139.26,771,769,771,808,835,34.48275862068966,-0.238,0.309,0.929
44921,1755587472761,23.89,2.28,-139.34,767,774,769,812,844,50.0,-0.237,0.308,0.929
44951,1755587472790,23.89,2.28,-139.46,771,770,759,815,837,33.333333333333336,-0.239,0.308,0.93
44980,1755587472820,23.86,2.26,-139.57,770,772,771,815,836,34.48275862068966,-0.24,0.308,0.93
45009,1755587472849,23.83,2.21,-139.66,769,780,773,818,837,34.48275862068966,-0.241,0.306,0.929
45039,1755587472879,23.87,2.23,-139.76,771,773,770,821,841,33.333333333333336,-0.241,0.309,0.933
45068,1755587472908,23.91,2.24,-139.9,772,775,768,818,844,34.48275862068966,-0.239,0.312,0.93
45098,1755587472937,23.88,2.15,-140.04,764,773,767,808,839,33.333333333333336,-0.239,0.309,0.926
45127,1755587472967,23.89,2.2,-140.11,763,770,771,818,834,34.48275862068966,-0.24,0.306,0.928
45157,1755587472997,23.91,2.2,-140.21,764,773,771,824,845,33.333333333333336,-0.241,0.309,0.93
45177,1755587473017,23.82,2.29,-140.29,770,776,771,812,845,50.0,-0.243,0.31,0.93
45207,1755587473047,23.85,2.33,-140.4,766,767,771,815,869,33.333333333333336,-0.242,0.309,0.931
45236,1755587473076,23.87,2.4,-140.48,772,765,769,820,833,34.48275862068966,-0.24,0.309,0.931
45265,1755587473105,23.86,2.41,-140.59,768,766,770,810,839,34.48275862068966,-0.239,0.312,0.929
45295,1755587473134,23.84,2.36,-140.7,767,772,768,811,825,33.333333333333336,-0.239,0.309,0.927
45324,1755587473164,23.82,2.35,-140.79,768,787,771,817,838,34.48275862068966,-0.239,0.308,0.929
45354,1755587473193,23.84,2.37,-140.89,768,761,764,813,840,33.333333333333336,-0.239,0.31,0.932
45383,1755587473222,23.9,2.41,-141.01,769,772,770,815,840,34.48275862068966,-0.241,0.312,0.933
45412,1755587473252,23.87,2.44,-141.1,766,773,772,816,837,34.48275862068966,-0.239,0.312,0.927
45442,1755587473281,23.8,2.4,-141.2,767,772,770,812,844,33.333333333333336,-0.237,0.31,0.925
45471,1755587473311,23.86,2.38,-141.33,774,770,766,817,839,34.48275862068966,-0.24,0.312,0.93
45501,1755587473341,23.85,2.42,-141.44,768,765,780,810,832,33.333333333333336,-0.241,0.313,0.929
45530,1755587473370,23.84,2.37,-141.55,769,765,764,807,843,34.48275862068966,-0.24,0.312,0.924
45560,1755587473399,23.83,2.34,-141.64,766,765,764,816,837,33.333333333333336,-0.24,0.311,0.926
45589,1755587473429,23.85,2.3,-141.76,763,778,777,817,837,34.48275862068966,-0.239,0.311,0.929
45618,1755587473458,23.89,2.33,-141.88,774,777,766,817,838,34.48275862068966,-0.239,0.311,0.932
45648,1755587473488,23.88,2.36,-141.97,760,769,767,813,849,33.333333333333336,-0.239,0.31,0.929
45677,1755587473517,23.88,2.35,-142.08,768,771,771,817,843,34.48275862068966,-0.237,0.306,0.929
45707,1755587473547,24.02,2.47,-142.19,773,778,771,814,839,33.333333333333336,-0.243,0.309,0.936
45736,1755587473576,24.08,2.6,-142.29,768,776,778,819,841,34.48275862068966,-0.241,0.312,0.931
45766,1755587473605,24.05,2.58,-142.41,772,768,765,806,835,33.333333333333336,-0.24,0.312,0.921
45795,1755587473635,24.04,2.48,-142.53,771,778,761,821,840,34.48275862068966,-0.239,0.309,0.921
45824,1755587473664,24.0,2.49,-142.62,770,775,768,818,831,34.48275862068966,-0.241,0.314,0.925
45854,1755587473694,24.0,2.39,-142.76,773,769,767,819,855,33.333333333333336,-0.243,0.313,0.925
45883,1755587473723,24.0,2.39,-142.85,766,770,765,811,840,34.48275862068966,-0.244,0.308,0.927
45913,1755587473752,23.99,2.41,-142.92,771,771,769,817,844,33.333333333333336,-0.245,0.311,0.928
45942,1755587473782,23.99,2.4,-143.04,772,775,768,810,835,34.48275862068966,-0.241,0.312,0.926
45972,1755587473812,23.99,2.39,-143.15,776,776,771,808,846,33.333333333333336,-0.239,0.311,0.928
46001,1755587473841,23.98,2.43,-143.25,766,767,775,811,842,34.48275862068966,-0.242,0.311,0.93
46031,1755587473871,24.03,2.45,-143.38,770,779,766,813,840,33.333333333333336,-0.244,0.314,0.928
46060,1755587473900,23.97,2.38,-143.48,767,777,762,815,837,34.48275862068966,-0.243,0.312,0.923
46090,1755587473930,23.9,2.34,-143.58,766,771,772,815,855,33.333333333333336,-0.241,0.311,0.923
46119,1755587473959,23.97,2.33,-143.7,772,769,771,809,843,34.48275862068966,-0.241,0.314,0.928
46149,1755587473988,23.99,2.38,-143.83,770,770,767,808,835,33.333333333333336,-0.242,0.315,0.93
46178,1755587474018,23.97,2.39,-143.93,768,774,762,819,842,34.48275862068966,-0.241,0.314,0.927
46207,1755587474047,23.95,2.43,-144.03,770,773,768,814,844,34.48275862068966,-0.24,0.313,0.927
46237,1755587474077,23.95,2.45,-144.14,763,775,771,805,842,33.333333333333336,-0.242,0.314,0.926
46266,1755587474107,23.94,2.36,-144.26,762,778,768,811,844,34.48275862068966,-0.242,0.313,0.923
46296,1755587474136,23.93,2.33,-144.36,764,771,760,814,833,33.333333333333336,-0.244,0.314,0.926
46326,1755587474166,23.93,2.37,-144.45,768,776,764,820,836,33.333333333333336,-0.244,0.316,0.929
46355,1755587474195,23.94,2.37,-144.55,764,772,774,809,839,34.48275862068966,-0.243,0.315,0.927
46385,1755587474224,23.93,2.34,-144.65,769,770,766,813,838,33.333333333333336,-0.242,0.315,0.924
46414,1755587474254,23.91,2.36,-144.76,766,778,769,811,840,34.48275862068966,-0.241,0.314,0.926
46444,1755587474283,23.9,2.41,-144.85,766,767,767,809,844,33.333333333333336,-0.24,0.316,0.928
46473,1755587474312,23.92,2.42,-144.96,767,774,774,815,837,34.48275862068966,-0.241,0.315,0.927
46502,1755587474342,23.92,2.43,-145.07,768,771,772,818,835,34.48275862068966,-0.241,0.314,0.926
46531,1755587474371,23.93,2.5,-145.19,777,760,765,816,838,34.48275862068966,-0.241,0.317,0.927
46561,1755587474400,23.91,2.47,-145.31,764,774,775,813,839,33.333333333333336,-0.24,0.316,0.923
46590,1755587474430,23.91,2.48,-145.42,769,771,768,814,842,34.48275862068966,-0.241,0.316,0.924
46620,1755587474460,23.92,2.48,-145.5,766,771,765,817,840,33.333333333333336,-0.24,0.313,0.926
46650,1755587474489,23.91,2.51,-145.6,768,777,775,828,832,33.333333333333336,-0.242,0.316,0.927
46679,1755587474519,23.91,2.49,-145.7,770,772,767,810,846,34.48275862068966,-0.241,0.315,0.925
46708,1755587474548,23.91,2.49,-145.8,769,786,769,809,837,34.48275862068966,-0.241,0.315,0.925
46738,1755587474578,23.92,2.52,-145.9,772,776,770,809,840,33.333333333333336,-0.241,0.317,0.926
46768,1755587474608,23.92,2.5,-146.03,767,776,774,813,843,33.333333333333336,-0.239,0.319,0.925
46797,1755587474638,23.87,2.46,-146.13,773,770,771,810,841,34.48275862068966,-0.238,0.315,0.924
46817,1755587474657,23.82,2.57,-146.21,773,773,769,813,844,50.0,-0.237,0.315,0.926
46847,1755587474686,23.88,2.64,-146.34,770,771,760,816,840,33.333333333333336,-0.238,0.317,0.929
46876,1755587474716,23.88,2.66,-146.45,771,770,769,817,840,34.48275862068966,-0.241,0.316,0.927
46906,1755587474745,23.86,2.68,-146.55,772,773,767,813,835,33.333333333333336,-0.241,0.315,0.924
46935,1755587474774,23.9,2.7,-146.66,771,780,765,821,843,34.48275862068966,-0.241,0.317,0.925
46964,1755587474804,23.89,2.67,-146.77,768,776,771,816,838,34.48275862068966,-0.241,0.317,0.924
46994,1755587474833,23.84,2.64,-146.87,769,780,767,817,841,33.333333333333336,-0.239,0.316,0.925
47023,1755587474862,23.87,2.67,-146.99,764,772,762,804,837,34.48275862068966,-0.24,0.317,0.927
47052,1755587474892,23.86,2.64,-147.1,774,775,767,813,838,34.48275862068966,-0.241,0.317,0.924
47081,1755587474921,23.83,2.6,-147.19,769,768,772,809,840,34.48275862068966,-0.24,0.315,0.924
47111,1755587474951,23.87,2.66,-147.3,768,774,774,818,840,33.333333333333336,-0.239,0.318,0.929
47141,1755587474980,23.88,2.71,-147.43,768,770,769,812,843,33.333333333333336,-0.24,0.32,0.929
47170,1755587475010,23.85,2.67,-147.55,774,768,773,814,837,34.48275862068966,-0.24,0.318,0.924
47199,1755587475039,23.82,2.61,-147.65,768,776,769,813,843,34.48275862068966,-0.239,0.313,0.922
47229,1755587475068,23.82,2.61,-147.76,772,769,768,814,838,33.333333333333336,-0.239,0.316,0.927
47258,1755587475098,23.85,2.66,-147.89,771,766,766,814,845,34.48275862068966,-0.239,0.319,0.93
47288,1755587475127,23.87,2.64,-148.01,765,775,772,811,838,33.333333333333336,-0.24,0.316,0.928
47317,1755587475157,23.88,2.65,-148.12,774,772,770,813,838,34.48275862068966,-0.241,0.314,0.927
47347,1755587475186,23.9,2.66,-148.23,771,768,771,812,835,33.333333333333336,-0.242,0.316,0.926
47376,1755587475216,23.86,2.6,-148.34,778,770,768,818,841,34.48275862068966,-0.241,0.318,0.922
47406,1755587475245,23.85,2.54,-148.45,762,780,773,816,844,33.333333333333336,-0.24,0.314,0.925
47435,1755587475275,23.87,2.62,-148.55,772,773,772,809,843,34.48275862068966,-0.242,0.316,0.932
47465,1755587475305,23.89,2.69,-148.66,767,776,769,817,835,33.333333333333336,-0.242,0.319,0.927
47485,1755587475325,23.82,2.79,-148.73,770,770,773,814,842,50.0,-0.243,0.316,0.921
47515,1755587475354,23.78,2.71,-148.81,771,773,767,810,842,33.333333333333336,-0.241,0.313,0.92
47544,1755587475384,23.78,2.7,-148.9,770,774,769,813,839,34.48275862068966,-0.241,0.316,0.926
47573,1755587475413,23.8,2.77,-148.99,770,777,770,813,840,34.48275862068966,-0.241,0.318,0.93
47603,1755587475443,23.84,2.77,-149.1,774,765,768,813,840,33.333333333333336,-0.241,0.318,0.927
47633,1755587475473,23.81,2.77,-149.19,761,769,764,812,844,33.333333333333336,-0.24,0.314,0.923
47653,1755587475492,23.72,2.87,-149.25,774,767,778,807,837,50.0,-0.239,0.316,0.923
47682,1755587475522,23.72,2.87,-149.36,764,774,771,808,836,34.48275862068966,-0.238,0.318,0.925
47712,1755587475552,23.74,2.87,-149.48,759,768,769,812,870,33.333333333333336,-0.239,0.318,0.927
47742,1755587475581,23.74,2.9,-149.58,767,778,762,817,843,33.333333333333336,-0.238,0.318,0.925
47771,1755587475611,23.75,2.91,-149.69,769,764,775,811,838,34.48275862068966,-0.239,0.319,0.925
47800,1755587475640,23.76,2.92,-149.8,775,776,767,812,843,34.48275862068966,-0.238,0.32,0.924
47830,1755587475670,23.76,2.85,-149.91,768,773,773,806,839,33.333333333333336,-0.238,0.319,0.922
47859,1755587475699,23.78,2.76,-150.03,768,769,766,818,839,34.48275862068966,-0.239,0.317,0.923
47889,1755587475728,23.75,2.8,-150.1,768,771,768,825,845,33.333333333333336,-0.239,0.319,0.926
47918,1755587475758,23.79,2.81,-150.23,764,774,765,810,833,34.48275862068966,-0.24,0.32,0.927
47947,1755587475787,23.79,2.81,-150.34,768,778,773,811,833,34.48275862068966,-0.239,0.317,0.926
47977,1755587475817,23.82,2.83,-150.43,776,774,774,817,838,33.333333333333336,-0.238,0.317,0.926
48006,1755587475846,23.82,2.81,-150.57,773,772,768,818,839,34.48275862068966,-0.238,0.32,0.924
48036,1755587475876,23.79,2.79,-150.7,767,772,767,817,844,33.333333333333336,-0.238,0.319,0.923
48066,1755587475905,23.79,2.79,-150.82,771,774,769,813,840,33.333333333333336,-0.239,0.319,0.925
48095,1755587475935,23.79,2.8,-150.93,773,766,769,822,843,34.48275862068966,-0.24,0.32,0.927
48115,1755587475955,23.71,2.87,-151.0,767,767,770,814,843,50.0,-0.242,0.32,0.927
48145,1755587475984,23.68,2.81,-151.12,776,776,769,811,840,33.333333333333336,-0.24,0.317,0.925
48174,1755587476014,23.71,2.82,-151.23,768,773,768,821,845,34.48275862068966,-0.24,0.316,0.927
48203,1755587476043,23.73,2.81,-151.34,771,781,778,821,834,34.48275862068966,-0.242,0.319,0.927
48233,1755587476072,23.73,2.78,-151.46,767,771,769,815,840,33.333333333333336,-0.242,0.317,0.925
48262,1755587476102,23.73,2.82,-151.55,773,775,776,814,839,34.48275862068966,-0.241,0.318,0.927
48291,1755587476131,23.75,2.88,-151.66,765,773,770,810,846,34.48275862068966,-0.241,0.317,0.928
48321,1755587476160,23.76,2.88,-151.76,768,777,769,817,845,33.333333333333336,-0.243,0.319,0.924
48350,1755587476190,23.72,2.83,-151.82,769,778,769,812,840,34.48275862068966,-0.242,0.316,0.923
48380,1755587476219,23.7,2.89,-151.89,771,772,769,812,837,33.333333333333336,-0.241,0.317,0.928
48409,1755587476249,23.74,2.96,-151.98,779,774,770,819,834,34.48275862068966,-0.24,0.32,0.93
48439,1755587476279,23.71,2.88,-152.08,773,789,761,804,826,33.333333333333336,-0.239,0.316,0.925
48468,1755587476308,23.66,2.84,-152.14,770,776,769,813,844,34.48275862068966,-0.239,0.315,0.926
48498,1755587476338,23.67,2.84,-152.24,771,778,765,815,840,33.333333333333336,-0.239,0.32,0.928
48528,1755587476367,23.62,2.77,-152.34,763,775,767,810,840,33.333333333333336,-0.238,0.319,0.926
48557,1755587476397,23.61,2.77,-152.43,773,768,771,818,841,34.48275862068966,-0.238,0.316,0.929
48586,1755587476426,23.71,2.85,-152.54,766,769,766,812,842,34.48275862068966,-0.239,0.318,0.932
48616,1755587476456,23.69,2.83,-152.63,768,779,768,817,839,33.333333333333336,-0.239,0.32,0.926
48645,1755587476485,23.63,2.81,-152.71,777,771,766,810,837,34.48275862068966,-0.238,0.317,0.925
48675,1755587476514,23.66,2.84,-152.81,771,771,764,814,843,33.333333333333336,-0.237,0.319,0.929
48704,1755587476544,23.67,2.91,-152.91,769,773,764,812,836,34.48275862068966,-0.237,0.322,0.93
48733,1755587476573,23.68,2.89,-153.02,770,762,770,813,857,34.48275862068966,-0.237,0.32,0.926
48763,1755587476602,23.63,2.9,-153.11,768,774,764,813,838,33.333333333333336,-0.236,0.319,0.924
