timestamp_ms,recv_timestamp_ms,pitch,roll,yaw,flex1,flex2,flex3,flex4,flex5,sampling_hz,accel_x,accel_y,accel_z
84459,1755586357284,11.48,57.81,6.98,818,763,844,879,880,34.48275862068966,-0.198,0.829,0.535
84488,1755586357314,11.44,57.87,6.95,815,772,852,881,874,34.48275862068966,-0.198,0.829,0.534
84518,1755586357343,11.43,57.86,6.88,824,774,850,876,868,33.333333333333336,-0.197,0.828,0.53
84547,1755586357372,11.4,57.85,6.84,824,763,842,867,871,34.48275862068966,-0.2,0.829,0.533
84576,1755586357402,11.38,57.87,6.77,833,762,845,881,872,34.48275862068966,-0.2,0.829,0.533
84606,1755586357431,11.38,57.9,6.76,821,776,850,878,871,33.333333333333336,-0.206,0.828,0.527
84635,1755586357460,11.37,57.87,6.78,825,767,847,883,877,34.48275862068966,-0.209,0.828,0.528
84664,1755586357491,11.39,57.88,6.8,838,766,843,880,889,34.48275862068966,-0.207,0.829,0.534
84694,1755586357520,11.4,57.9,6.77,821,776,853,874,875,33.333333333333336,-0.202,0.83,0.534
84724,1755586357550,11.38,57.88,6.72,820,769,851,875,877,33.333333333333336,-0.201,0.828,0.531
84754,1755586357579,11.38,57.84,6.67,821,764,841,878,877,33.333333333333336,-0.202,0.827,0.535
84783,1755586357609,11.43,57.85,6.62,821,764,845,884,868,34.48275862068966,-0.203,0.828,0.534
84813,1755586357638,11.45,57.87,6.6,821,768,835,876,879,33.333333333333336,-0.205,0.826,0.532
84842,1755586357668,11.46,57.85,6.57,820,769,849,881,878,34.48275862068966,-0.206,0.825,0.53
84872,1755586357698,11.45,57.8,6.63,821,766,850,881,873,33.333333333333336,-0.21,0.826,0.531
84902,1755586357727,11.47,57.78,6.66,819,774,863,876,872,33.333333333333336,-0.207,0.828,0.535
84931,1755586357756,11.48,57.84,6.66,824,774,838,883,871,34.48275862068966,-0.205,0.827,0.537
84961,1755586357786,11.47,57.84,6.65,815,768,838,876,868,33.333333333333336,-0.204,0.828,0.534
84990,1755586357815,11.45,57.77,6.61,819,766,856,872,876,34.48275862068966,-0.204,0.829,0.532
85019,1755586357845,11.38,57.72,6.61,819,767,855,877,882,34.48275862068966,-0.208,0.828,0.535
85049,1755586357874,11.35,57.79,6.63,820,770,843,882,875,33.333333333333336,-0.204,0.828,0.54
85078,1755586357903,11.37,57.82,6.55,821,769,842,866,874,34.48275862068966,-0.202,0.826,0.539
85107,1755586357933,11.38,57.8,6.53,812,769,843,881,871,34.48275862068966,-0.205,0.824,0.536
85137,1755586357962,11.37,57.8,6.54,823,775,844,876,875,33.333333333333336,-0.206,0.825,0.536
85166,1755586357992,11.4,57.87,6.48,823,765,845,874,874,34.48275862068966,-0.205,0.828,0.536
85196,1755586358021,11.41,57.91,6.49,825,774,833,869,873,33.333333333333336,-0.207,0.828,0.534
85225,1755586358051,11.42,57.87,6.49,821,771,836,878,878,34.48275862068966,-0.208,0.826,0.534
85255,1755586358080,11.43,57.91,6.49,816,770,839,880,877,33.333333333333336,-0.207,0.827,0.529
85284,1755586358110,11.44,57.92,6.51,815,777,846,878,880,34.48275862068966,-0.208,0.827,0.529
85314,1755586358139,11.47,57.88,6.48,821,776,855,878,881,33.333333333333336,-0.21,0.826,0.533
85343,1755586358169,11.48,57.88,6.51,822,759,850,883,874,34.48275862068966,-0.209,0.825,0.532
85373,1755586358198,11.48,57.87,6.57,820,773,839,879,880,33.333333333333336,-0.207,0.828,0.529
85402,1755586358228,11.46,57.84,6.57,821,771,857,880,874,34.48275862068966,-0.201,0.829,0.532
85432,1755586358257,11.47,57.82,6.54,823,774,842,881,877,33.333333333333336,-0.202,0.826,0.534
85461,1755586358287,11.48,57.82,6.58,821,772,838,881,874,34.48275862068966,-0.207,0.825,0.536
85491,1755586358316,11.46,57.83,6.63,827,781,840,879,871,33.333333333333336,-0.203,0.829,0.534
85521,1755586358346,11.45,57.86,6.58,822,777,836,869,872,33.333333333333336,-0.198,0.83,0.534
85550,1755586358376,11.46,57.89,6.55,825,770,848,874,866,34.48275862068966,-0.203,0.83,0.538
85580,1755586358405,11.49,57.88,6.55,819,773,853,876,875,33.333333333333336,-0.201,0.827,0.535
85609,1755586358435,11.47,57.87,6.52,828,768,846,880,867,34.48275862068966,-0.198,0.829,0.531
85639,1755586358464,11.46,57.88,6.47,819,775,848,874,877,33.333333333333336,-0.204,0.83,0.534
85668,1755586358493,11.48,57.88,6.45,820,777,843,876,876,34.48275862068966,-0.207,0.828,0.534
85697,1755586358523,11.5,57.87,6.46,820,766,844,884,876,34.48275862068966,-0.206,0.83,0.53
85727,1755586358552,11.51,57.89,6.42,817,770,850,880,875,33.333333333333336,-0.205,0.833,0.534
85756,1755586358582,11.53,57.93,6.4,816,772,838,890,873,34.48275862068966,-0.208,0.828,0.534
85786,1755586358611,11.56,57.93,6.46,821,769,836,873,877,33.333333333333336,-0.21,0.825,0.531
85815,1755586358641,11.54,57.94,6.56,819,774,840,878,878,34.48275862068966,-0.205,0.832,0.534
85845,1755586358670,11.57,57.98,6.48,824,780,848,879,867,33.333333333333336,-0.201,0.832,0.535
85874,1755586358700,11.61,57.96,6.5,815,765,848,883,877,34.48275862068966,-0.207,0.826,0.538
85904,1755586358729,11.61,58.01,6.61,815,774,839,881,875,33.333333333333336,-0.205,0.827,0.536
85933,1755586358759,11.6,58.02,6.57,819,768,847,886,867,34.48275862068966,-0.197,0.832,0.527
85963,1755586358788,11.63,57.98,6.5,813,776,839,880,878,33.333333333333336,-0.204,0.83,0.528
85992,1755586358818,11.61,57.94,6.61,817,774,845,879,891,34.48275862068966,-0.209,0.83,0.533
86022,1755586358847,11.64,57.94,6.6,819,761,852,879,871,33.333333333333336,-0.202,0.83,0.533
86051,1755586358876,11.69,57.94,6.54,819,770,850,876,875,34.48275862068966,-0.202,0.831,0.531
86080,1755586358906,11.66,57.86,6.61,818,768,844,869,873,34.48275862068966,-0.204,0.828,0.528
86110,1755586358935,11.66,57.78,6.63,821,777,837,890,876,33.333333333333336,-0.203,0.829,0.532
86139,1755586358965,11.67,57.81,6.62,821,773,842,872,879,34.48275862068966,-0.2,0.833,0.535
86169,1755586358994,11.66,57.82,6.61,818,770,859,879,874,33.333333333333336,-0.198,0.829,0.534
86198,1755586359024,11.69,57.84,6.62,818,776,838,881,880,34.48275862068966,-0.201,0.827,0.534
86228,1755586359053,11.68,57.81,6.6,821,773,840,877,873,33.333333333333336,-0.2,0.831,0.531
86257,1755586359083,11.66,57.83,6.62,822,766,847,876,869,34.48275862068966,-0.199,0.832,0.533
86287,1755586359112,11.67,57.87,6.58,815,763,848,887,873,33.333333333333336,-0.2,0.831,0.535
86316,1755586359142,11.69,57.89,6.59,810,771,849,871,874,34.48275862068966,-0.204,0.829,0.531
86346,1755586359171,11.66,57.88,6.67,819,777,838,892,871,33.333333333333336,-0.203,0.829,0.531
86375,1755586359201,11.68,57.88,6.64,820,765,850,874,875,34.48275862068966,-0.2,0.831,0.532
86405,1755586359230,11.69,57.9,6.67,823,771,849,884,872,33.333333333333336,-0.203,0.829,0.534
86434,1755586359259,11.7,57.87,6.68,822,771,840,876,879,34.48275862068966,-0.201,0.829,0.533
86463,1755586359289,11.72,57.83,6.61,817,771,840,872,874,34.48275862068966,-0.198,0.831,0.531
86493,1755586359319,11.75,57.84,6.56,820,772,852,882,874,33.333333333333336,-0.2,0.83,0.537
86522,1755586359348,11.76,57.83,6.52,818,767,831,872,867,34.48275862068966,-0.198,0.828,0.534
86552,1755586359377,11.82,57.78,6.39,821,787,842,887,870,33.333333333333336,-0.199,0.828,0.53
86581,1755586359407,11.79,57.82,6.37,818,771,852,877,876,34.48275862068966,-0.203,0.829,0.54
86611,1755586359436,11.82,57.86,6.34,824,770,851,881,881,33.333333333333336,-0.203,0.827,0.537
86640,1755586359466,11.83,57.84,6.3,822,770,842,875,876,34.48275862068966,-0.203,0.825,0.531
86670,1755586359495,11.83,57.77,6.24,819,769,859,886,870,33.333333333333336,-0.204,0.828,0.531
86699,1755586359525,11.82,57.8,6.27,820,766,854,875,872,34.48275862068966,-0.205,0.828,0.535
86729,1755586359554,11.84,57.8,6.23,820,774,842,873,866,33.333333333333336,-0.204,0.829,0.539
86758,1755586359584,11.87,57.88,6.18,821,770,839,875,874,34.48275862068966,-0.203,0.827,0.533
86788,1755586359613,11.88,57.86,6.14,819,766,838,877,873,33.333333333333336,-0.206,0.826,0.525
86817,1755586359643,11.84,57.78,6.17,819,769,845,871,871,34.48275862068966,-0.211,0.829,0.528
86847,1755586359672,11.88,57.76,6.15,820,771,841,886,874,33.333333333333336,-0.213,0.828,0.536
86876,1755586359702,11.91,57.81,6.18,822,772,842,881,876,34.48275862068966,-0.211,0.827,0.535
86905,1755586359731,11.88,57.78,6.18,821,773,847,885,873,34.48275862068966,-0.202,0.827,0.531
86935,1755586359760,11.87,57.74,6.09,824,768,845,882,862,33.333333333333336,-0.203,0.827,0.531
86964,1755586359790,11.87,57.73,6.11,822,782,831,875,902,34.48275862068966,-0.213,0.827,0.535
86994,1755586359820,11.92,57.78,6.17,817,772,838,876,878,33.333333333333336,-0.219,0.828,0.536
87024,1755586359849,11.97,57.79,6.2,811,772,845,879,875,33.333333333333336,-0.212,0.828,0.534
87053,1755586359879,11.91,57.74,6.25,818,770,838,873,873,34.48275862068966,-0.202,0.825,0.528
87083,1755586359908,11.87,57.67,6.17,817,772,844,872,876,33.333333333333336,-0.2,0.828,0.532
87112,1755586359937,11.87,57.71,6.14,824,771,848,882,865,34.48275862068966,-0.21,0.829,0.54
87141,1755586359967,11.9,57.72,6.17,819,779,851,876,878,34.48275862068966,-0.214,0.824,0.539
87171,1755586359996,11.88,57.74,6.22,816,770,859,862,876,33.333333333333336,-0.206,0.825,0.536
87200,1755586360026,11.85,57.7,6.15,816,774,843,881,872,34.48275862068966,-0.2,0.828,0.532
87230,1755586360055,11.85,57.63,6.03,821,773,853,882,876,33.333333333333336,-0.203,0.828,0.533
87259,1755586360085,11.89,57.57,5.97,821,773,848,881,866,34.48275862068966,-0.211,0.826,0.536
87289,1755586360114,11.96,57.56,5.94,822,767,851,878,872,33.333333333333336,-0.212,0.826,0.534
87318,1755586360144,11.95,57.54,5.95,819,769,848,879,867,34.48275862068966,-0.209,0.828,0.535
87348,1755586360174,11.96,57.55,5.93,818,766,852,872,869,33.333333333333336,-0.209,0.826,0.541
87377,1755586360203,12.01,57.58,5.86,821,776,848,882,880,34.48275862068966,-0.207,0.825,0.542
87407,1755586360232,12.02,57.58,5.84,820,774,841,885,882,33.333333333333336,-0.21,0.824,0.535
87436,1755586360262,12.0,57.5,5.84,820,769,845,870,866,34.48275862068966,-0.212,0.822,0.534
87466,1755586360291,11.99,57.51,5.88,816,773,849,879,871,33.333333333333336,-0.214,0.824,0.539
87495,1755586360321,11.99,57.56,5.92,821,773,840,887,882,34.48275862068966,-0.215,0.824,0.542
87524,1755586360350,11.98,57.59,5.97,819,782,845,878,876,34.48275862068966,-0.211,0.822,0.539
87554,1755586360379,11.97,57.56,5.98,822,783,842,888,876,33.333333333333336,-0.21,0.823,0.534
87583,1755586360409,11.95,57.52,6.01,826,774,842,874,872,34.48275862068966,-0.213,0.825,0.535
87613,1755586360438,11.95,57.52,6.02,822,769,846,882,861,33.333333333333336,-0.21,0.826,0.539
87642,1755586360468,11.95,57.58,6.02,820,778,842,878,877,34.48275862068966,-0.209,0.824,0.541
87672,1755586360497,11.95,57.58,6.02,817,774,849,878,875,33.333333333333336,-0.209,0.823,0.536
87701,1755586360527,11.94,57.53,6.01,826,774,843,871,873,34.48275862068966,-0.209,0.824,0.534
87731,1755586360556,11.96,57.52,6.03,827,770,846,882,865,33.333333333333336,-0.212,0.826,0.538
87760,1755586360586,11.96,57.51,6.03,815,769,849,879,873,34.48275862068966,-0.208,0.826,0.538
87790,1755586360615,11.99,57.54,6.0,821,774,840,872,871,33.333333333333336,-0.207,0.826,0.539
87819,1755586360645,12.06,57.52,5.87,823,777,847,879,875,34.48275862068966,-0.207,0.824,0.535
87849,1755586360674,12.12,57.53,6.28,821,768,837,874,870,33.333333333333336,-0.215,0.825,0.538
87878,1755586360704,12.13,57.1,6.28,820,772,833,873,881,34.48275862068966,-0.21,0.825,0.542
87907,1755586360733,12.17,57.19,6.25,820,770,850,883,876,34.48275862068966,-0.21,0.825,0.539
87937,1755586360763,12.14,57.14,6.26,819,768,845,877,867,33.333333333333336,-0.21,0.822,0.531
87957,1755586360782,12.1,57.12,6.3,816,772,848,882,867,50.0,-0.209,0.823,0.529
87986,1755586360812,12.08,57.09,6.22,821,776,842,877,879,34.48275862068966,-0.208,0.827,0.537
88016,1755586360841,12.08,57.18,6.19,818,774,851,872,875,33.333333333333336,-0.209,0.826,0.543
88045,1755586360871,12.1,57.22,6.12,823,775,849,875,871,34.48275862068966,-0.213,0.821,0.541
88065,1755586360891,12.1,57.23,6.13,819,777,840,895,866,50.0,-0.217,0.816,0.534
88095,1755586360921,12.08,57.11,6.15,820,767,839,875,864,33.333333333333336,-0.216,0.82,0.526
88125,1755586360950,12.09,57.1,6.11,818,767,854,873,872,33.333333333333336,-0.215,0.826,0.535
88154,1755586360980,12.11,57.19,6.1,821,770,848,881,878,34.48275862068966,-0.218,0.825,0.543
88184,1755586361009,12.11,57.24,6.13,816,775,877,882,871,33.333333333333336,-0.213,0.819,0.538
88213,1755586361039,12.12,57.25,6.12,819,771,842,882,875,34.48275862068966,-0.215,0.82,0.531
88243,1755586361069,12.09,57.18,6.17,822,766,850,872,875,33.333333333333336,-0.216,0.824,0.532
88272,1755586361097,12.12,57.15,6.16,818,775,852,871,879,34.48275862068966,-0.216,0.823,0.541
88301,1755586361127,12.13,57.21,6.23,823,767,840,879,874,34.48275862068966,-0.212,0.823,0.539
88331,1755586361156,12.12,57.24,6.22,820,770,831,870,872,33.333333333333336,-0.205,0.823,0.532
88360,1755586361186,12.09,57.17,6.17,820,771,833,875,881,34.48275862068966,-0.207,0.824,0.531
88390,1755586361215,12.05,57.15,6.2,818,772,846,879,877,33.333333333333336,-0.211,0.823,0.54
88419,1755586361245,12.11,57.2,6.19,827,778,843,886,871,34.48275862068966,-0.212,0.823,0.543
88449,1755586361274,12.12,57.23,6.21,819,775,852,887,873,33.333333333333336,-0.211,0.823,0.534
88478,1755586361304,12.11,57.16,6.19,819,774,842,880,874,34.48275862068966,-0.208,0.824,0.532
88507,1755586361333,12.11,57.19,6.18,820,774,853,877,873,34.48275862068966,-0.208,0.825,0.539
88537,1755586361363,12.1,57.21,6.17,814,768,846,878,869,33.333333333333336,-0.208,0.825,0.538
88567,1755586361392,12.1,57.19,6.14,822,769,838,874,868,33.333333333333336,-0.209,0.824,0.537
88596,1755586361422,12.12,57.21,6.12,814,766,847,878,873,34.48275862068966,-0.211,0.824,0.54
88625,1755586361451,12.13,57.22,6.15,833,775,846,880,879,34.48275862068966,-0.212,0.822,0.535
88655,1755586361480,12.12,57.19,6.17,821,771,850,870,876,33.333333333333336,-0.211,0.824,0.534
88684,1755586361509,12.15,57.23,6.15,816,771,851,871,876,34.48275862068966,-0.211,0.825,0.541
88713,1755586361539,12.17,57.26,6.15,823,769,847,872,871,34.48275862068966,-0.21,0.823,0.539
88743,1755586361568,12.18,57.23,6.14,819,775,850,881,873,33.333333333333336,-0.21,0.823,0.535
88772,1755586361598,12.19,57.23,6.14,817,777,855,882,872,34.48275862068966,-0.212,0.825,0.537
88801,1755586361627,12.22,57.25,6.14,818,770,836,879,875,34.48275862068966,-0.213,0.824,0.54
88831,1755586361656,12.26,57.29,6.14,819,775,853,876,872,33.333333333333336,-0.21,0.825,0.539
88860,1755586361686,12.27,57.34,6.11,823,771,841,882,868,34.48275862068966,-0.208,0.827,0.533
88890,1755586361716,12.25,57.28,6.08,816,770,842,867,874,33.333333333333336,-0.21,0.824,0.531
88920,1755586361745,12.27,57.28,6.07,820,766,840,877,882,33.333333333333336,-0.215,0.827,0.535
88949,1755586361775,12.3,57.32,6.09,810,773,846,878,876,34.48275862068966,-0.215,0.826,0.538
88979,1755586361804,12.3,57.31,6.09,821,763,845,873,873,33.333333333333336,-0.213,0.825,0.532
89008,1755586361833,12.29,57.27,6.07,819,775,826,881,873,34.48275862068966,-0.213,0.824,0.531
89037,1755586361863,12.3,57.24,6.06,825,766,848,876,871,34.48275862068966,-0.214,0.825,0.532
89067,1755586361892,12.3,57.19,6.02,825,776,846,884,874,33.333333333333336,-0.212,0.825,0.538
89096,1755586361922,12.3,57.24,6.04,818,770,844,878,873,34.48275862068966,-0.214,0.824,0.544
89126,1755586361951,12.33,57.26,6.02,816,777,838,875,872,33.333333333333336,-0.215,0.823,0.54
89155,1755586361981,12.38,57.25,6.01,819,764,848,878,873,34.48275862068966,-0.217,0.821,0.536
89185,1755586362010,12.4,57.19,6.07,819,774,841,875,875,33.333333333333336,-0.221,0.82,0.536
89214,1755586362040,12.41,57.16,6.22,822,771,858,880,878,34.48275862068966,-0.219,0.82,0.543
89244,1755586362070,12.44,57.23,6.26,829,772,843,877,878,33.333333333333336,-0.208,0.825,0.549
89264,1755586362089,12.47,57.3,6.23,823,770,839,880,877,50.0,-0.201,0.826,0.541
89293,1755586362119,12.44,57.26,6.23,821,775,860,870,872,34.48275862068966,-0.199,0.824,0.535
89322,1755586362149,12.45,57.15,6.17,822,766,835,875,874,34.48275862068966,-0.207,0.825,0.543
89352,1755586362178,12.53,57.17,6.12,823,771,846,882,872,33.333333333333336,-0.213,0.825,0.548
89382,1755586362207,12.58,57.24,6.12,821,767,857,881,875,33.333333333333336,-0.211,0.822,0.54
89411,1755586362237,12.6,57.19,6.13,821,773,842,879,868,34.48275862068966,-0.215,0.822,0.531
89441,1755586362266,12.63,57.14,6.17,824,775,842,867,876,33.333333333333336,-0.216,0.823,0.536
89470,1755586362295,12.64,57.16,6.17,822,774,844,881,875,34.48275862068966,-0.208,0.825,0.542
89499,1755586362325,12.64,57.18,6.12,819,759,834,873,873,34.48275862068966,-0.206,0.824,0.539
89529,1755586362354,12.63,57.2,6.11,821,780,862,878,865,33.333333333333336,-0.213,0.823,0.534
89558,1755586362384,12.58,57.15,6.15,818,768,820,877,878,34.48275862068966,-0.217,0.823,0.529
89587,1755586362413,12.56,57.11,6.19,822,771,843,874,872,34.48275862068966,-0.217,0.825,0.537
89617,1755586362442,12.59,57.18,6.15,816,772,856,883,880,33.333333333333336,-0.211,0.826,0.545
89646,1755586362472,12.66,57.28,6.13,820,777,862,880,868,34.48275862068966,-0.213,0.822,0.538
89676,1755586362501,12.65,57.21,6.18,820,774,839,879,872,33.333333333333336,-0.216,0.822,0.529
89705,1755586362531,12.68,57.18,6.2,823,769,839,876,877,34.48275862068966,-0.218,0.826,0.531
89735,1755586362560,12.71,57.18,6.27,820,772,843,876,876,33.333333333333336,-0.215,0.826,0.539
89764,1755586362590,12.81,57.22,6.23,816,775,845,878,871,34.48275862068966,-0.211,0.825,0.544
89793,1755586362619,12.88,57.27,6.26,822,775,841,874,873,34.48275862068966,-0.212,0.824,0.536
89823,1755586362649,12.88,57.28,6.29,820,781,843,876,878,33.333333333333336,-0.208,0.829,0.53
89853,1755586362678,12.88,57.22,6.26,821,768,839,876,875,33.333333333333336,-0.212,0.829,0.533
89882,1755586362708,12.9,57.2,6.2,824,771,842,882,880,34.48275862068966,-0.211,0.827,0.54
89912,1755586362737,12.93,57.29,6.19,816,766,844,879,871,33.333333333333336,-0.212,0.825,0.539
89941,1755586362767,12.94,57.27,6.17,821,772,865,878,872,34.48275862068966,-0.211,0.826,0.526
89971,1755586362796,12.96,57.21,6.1,821,779,847,874,861,33.333333333333336,-0.21,0.83,0.523
90000,1755586362826,12.94,57.14,5.99,826,765,836,874,874,34.48275862068966,-0.214,0.826,0.525
90030,1755586362855,12.94,57.04,5.94,814,778,834,876,875,33.333333333333336,-0.224,0.821,0.533
90059,1755586362884,12.94,57.05,6.03,822,766,854,876,882,34.48275862068966,-0.226,0.819,0.544
90088,1755586362914,13.04,57.07,5.95,822,769,832,882,869,34.48275862068966,-0.222,0.82,0.543
90118,1755586362944,13.05,57.04,5.99,820,775,842,880,879,33.333333333333336,-0.225,0.82,0.534
90148,1755586362973,12.99,57.0,6.01,820,769,840,882,866,33.333333333333336,-0.223,0.824,0.535
90177,1755586363003,13.0,57.05,5.96,817,771,840,882,873,34.48275862068966,-0.22,0.824,0.54
90206,1755586363032,12.98,57.05,5.99,816,773,841,870,878,34.48275862068966,-0.225,0.822,0.534
90236,1755586363061,12.95,56.98,6.08,824,764,846,884,871,33.333333333333336,-0.224,0.82,0.533
90265,1755586363091,12.95,56.96,6.1,820,761,840,881,869,34.48275862068966,-0.22,0.822,0.535
90294,1755586363120,12.91,56.95,6.13,815,774,843,876,877,34.48275862068966,-0.217,0.824,0.538
90324,1755586363149,12.91,56.93,6.1,825,772,835,875,876,33.333333333333336,-0.213,0.822,0.541
90353,1755586363179,12.91,56.94,6.11,821,766,853,880,870,34.48275862068966,-0.217,0.821,0.536
90382,1755586363208,12.85,56.9,6.16,818,766,842,873,867,34.48275862068966,-0.212,0.822,0.537
90412,1755586363238,12.81,56.88,6.07,821,775,843,878,879,33.333333333333336,-0.209,0.822,0.541
90441,1755586363267,12.74,56.88,6.05,814,773,844,880,874,34.48275862068966,-0.213,0.821,0.542
90471,1755586363296,12.73,56.84,6.02,815,766,836,872,878,33.333333333333336,-0.216,0.818,0.54
90500,1755586363326,12.71,56.79,5.99,818,780,853,872,875,34.48275862068966,-0.22,0.82,0.54
90530,1755586363355,12.7,56.78,5.98,825,766,851,881,874,33.333333333333336,-0.223,0.821,0.544
90559,1755586363385,12.74,56.8,6.0,820,777,840,872,878,34.48275862068966,-0.227,0.816,0.549
90589,1755586363414,12.74,56.82,6.09,823,779,846,880,876,33.333333333333336,-0.226,0.816,0.546
90618,1755586363444,12.71,56.8,6.2,824,771,835,879,880,34.48275862068966,-0.223,0.819,0.544
90647,1755586363473,12.66,56.82,6.29,824,771,842,873,880,34.48275862068966,-0.219,0.819,0.545
90677,1755586363503,12.66,56.9,6.38,816,771,848,870,873,33.333333333333336,-0.222,0.819,0.549
90706,1755586363532,12.64,56.97,6.49,819,775,828,877,877,34.48275862068966,-0.215,0.817,0.545
90736,1755586363561,12.64,56.9,6.45,818,765,836,877,871,33.333333333333336,-0.208,0.816,0.536
90765,1755586363591,12.6,56.84,6.47,813,769,835,876,870,34.48275862068966,-0.212,0.822,0.538
90795,1755586363620,12.58,56.87,6.47,816,772,845,880,868,33.333333333333336,-0.21,0.825,0.543
90824,1755586363649,12.6,56.91,6.45,817,774,847,881,876,34.48275862068966,-0.209,0.822,0.545
90853,1755586363679,12.58,56.89,6.43,820,779,845,878,868,34.48275862068966,-0.206,0.821,0.546
90883,1755586363709,12.56,56.9,6.39,820,770,840,882,882,33.333333333333336,-0.204,0.821,0.545
90913,1755586363738,12.57,56.91,6.34,821,759,838,884,869,33.333333333333336,-0.207,0.823,0.541
90942,1755586363768,12.53,56.91,6.31,822,778,837,880,878,34.48275862068966,-0.206,0.824,0.542
90971,1755586363797,12.53,56.93,6.28,820,769,837,878,863,34.48275862068966,-0.213,0.822,0.546
91001,1755586363827,12.55,56.97,6.32,814,776,842,875,874,33.333333333333336,-0.218,0.819,0.544
91030,1755586363856,12.51,56.96,6.37,816,772,859,884,875,34.48275862068966,-0.209,0.82,0.537
91060,1755586363886,12.48,56.9,6.28,815,778,835,872,873,33.333333333333336,-0.206,0.821,0.538
91089,1755586363915,12.43,56.86,6.34,815,764,848,874,875,34.48275862068966,-0.213,0.821,0.543
91119,1755586363945,12.45,56.85,6.31,820,764,841,879,870,33.333333333333336,-0.213,0.82,0.546
91149,1755586363974,12.47,56.9,6.34,820,773,840,878,872,33.333333333333336,-0.215,0.82,0.546
91178,1755586364003,12.41,56.9,6.47,818,773,841,886,869,34.48275862068966,-0.214,0.817,0.544
91207,1755586364033,12.41,56.9,6.44,814,772,844,882,869,34.48275862068966,-0.206,0.819,0.545
91237,1755586364062,12.4,56.95,6.37,817,777,835,882,871,33.333333333333336,-0.205,0.822,0.543
91266,1755586364092,12.36,56.95,6.37,827,774,845,882,879,34.48275862068966,-0.209,0.82,0.542
91296,1755586364121,12.39,56.95,6.39,816,771,850,881,873,33.333333333333336,-0.214,0.82,0.544
91325,1755586364150,12.39,57.02,6.45,818,773,842,886,870,34.48275862068966,-0.21,0.822,0.542
91354,1755586364180,12.42,57.01,6.41,818,769,846,879,877,34.48275862068966,-0.208,0.822,0.544
91384,1755586364210,12.45,57.05,6.4,823,769,845,885,873,33.333333333333336,-0.207,0.821,0.549
91414,1755586364239,12.48,57.11,6.39,821,768,864,883,876,33.333333333333336,-0.205,0.821,0.54
91443,1755586364269,12.46,57.1,6.36,819,766,836,865,878,34.48275862068966,-0.205,0.823,0.538
91472,1755586364298,12.46,57.06,6.34,822,774,843,884,876,34.48275862068966,-0.21,0.824,0.54
91502,1755586364327,12.5,57.07,6.34,808,770,844,885,873,33.333333333333336,-0.213,0.822,0.544
91531,1755586364357,12.52,57.12,6.32,807,775,861,878,881,34.48275862068966,-0.207,0.823,0.542
91561,1755586364387,12.49,57.09,6.29,813,769,844,878,874,33.333333333333336,-0.205,0.823,0.534
91590,1755586364416,12.45,57.0,6.22,820,772,852,878,882,34.48275862068966,-0.208,0.822,0.538
91620,1755586364445,12.49,57.05,6.17,822,770,848,879,864,33.333333333333336,-0.212,0.823,0.547
91649,1755586364475,12.53,57.16,6.15,826,769,839,868,871,34.48275862068966,-0.211,0.824,0.543
91678,1755586364504,12.5,57.19,6.15,822,772,847,879,872,34.48275862068966,-0.211,0.821,0.532
91708,1755586364534,12.45,57.11,6.14,821,767,845,879,867,33.333333333333336,-0.212,0.825,0.533
91737,1755586364564,12.46,57.12,6.08,814,774,853,888,870,34.48275862068966,-0.213,0.825,0.541
91767,1755586364593,12.47,57.2,6.07,818,773,863,881,873,33.333333333333336,-0.213,0.823,0.54
91797,1755586364623,12.47,57.2,6.05,825,772,847,883,883,33.333333333333336,-0.214,0.822,0.536
91827,1755586364653,12.46,57.15,6.05,823,762,849,879,870,33.333333333333336,-0.214,0.822,0.536
91857,1755586364683,12.49,57.23,5.99,821,774,848,871,869,33.333333333333336,-0.213,0.827,0.538
91886,1755586364712,12.51,57.25,5.94,817,775,847,873,878,34.48275862068966,-0.217,0.823,0.537
91916,1755586364741,12.53,57.24,5.96,820,773,831,862,874,33.333333333333336,-0.218,0.82,0.535
91945,1755586364771,12.52,57.23,5.97,822,765,852,879,864,34.48275862068966,-0.215,0.824,0.533
91974,1755586364800,12.52,57.18,5.91,817,776,838,874,874,34.48275862068966,-0.212,0.825,0.536
92004,1755586364830,12.55,57.17,5.86,819,767,844,877,873,33.333333333333336,-0.213,0.821,0.541
92034,1755586364860,12.59,57.23,5.84,822,776,846,874,890,33.333333333333336,-0.217,0.82,0.542
92063,1755586364889,12.59,57.23,5.86,817,777,839,880,874,34.48275862068966,-0.217,0.822,0.536
92092,1755586364918,12.54,57.17,5.82,820,778,845,877,872,34.48275862068966,-0.212,0.823,0.536
92122,1755586364947,12.55,57.19,5.79,820,767,839,873,867,33.333333333333336,-0.216,0.823,0.54
92151,1755586364977,12.56,57.2,5.78,821,767,862,870,875,34.48275862068966,-0.217,0.821,0.539
92180,1755586365006,12.57,57.22,5.76,816,769,842,872,875,34.48275862068966,-0.217,0.822,0.536
92210,1755586365035,12.58,57.23,5.74,821,772,841,879,870,33.333333333333336,-0.217,0.822,0.534
92239,1755586365065,12.58,57.16,5.71,823,771,850,879,869,34.48275862068966,-0.222,0.82,0.535
92269,1755586365095,12.56,57.12,5.75,818,768,853,873,871,33.333333333333336,-0.221,0.822,0.539
92298,1755586365124,12.57,57.18,5.74,822,770,847,872,881,34.48275862068966,-0.215,0.822,0.543
92328,1755586365154,12.54,57.21,5.71,821,776,848,874,872,33.333333333333336,-0.213,0.822,0.536
92357,1755586365183,12.51,57.15,5.68,818,755,834,875,877,34.48275862068966,-0.219,0.82,0.535
92387,1755586365212,12.52,57.09,5.72,818,775,847,877,869,33.333333333333336,-0.225,0.82,0.54
92416,1755586365242,12.55,57.09,5.78,822,766,843,876,877,34.48275862068966,-0.222,0.82,0.543
92446,1755586365272,12.6,57.11,5.75,821,793,868,875,869,33.333333333333336,-0.214,0.819,0.543
92475,1755586365301,12.62,57.12,5.72,810,770,853,886,868,34.48275862068966,-0.214,0.823,0.537
92505,1755586365331,12.53,57.12,5.75,822,774,840,871,874,33.333333333333336,-0.212,0.826,0.539
92535,1755586365360,12.54,57.19,5.62,820,764,844,883,880,33.333333333333336,-0.212,0.826,0.547
92564,1755586365390,12.6,57.3,5.58,821,770,841,874,870,34.48275862068966,-0.223,0.822,0.546
92593,1755586365419,12.55,57.34,5.7,819,765,846,876,868,34.48275862068966,-0.219,0.819,0.536
92623,1755586365448,12.55,57.32,5.59,823,762,843,877,875,33.333333333333336,-0.213,0.821,0.533
92652,1755586365478,12.53,57.31,5.57,818,777,846,873,876,34.48275862068966,-0.219,0.821,0.534
92682,1755586365507,12.51,57.27,5.6,814,764,846,881,874,33.333333333333336,-0.222,0.821,0.537
92711,1755586365537,12.56,57.28,5.55,825,778,852,880,875,34.48275862068966,-0.219,0.823,0.54
92741,1755586365567,12.58,57.34,5.57,821,781,843,878,877,33.333333333333336,-0.22,0.826,0.534
92771,1755586365596,12.59,57.32,5.51,826,767,842,870,867,33.333333333333336,-0.216,0.824,0.532
92800,1755586365626,12.58,57.28,5.45,823,782,841,878,876,34.48275862068966,-0.22,0.821,0.536
92829,1755586365655,12.56,57.23,5.45,820,765,852,881,877,34.48275862068966,-0.224,0.82,0.539
92859,1755586365684,12.57,57.26,5.5,816,769,847,883,870,33.333333333333336,-0.226,0.82,0.539
92888,1755586365714,12.59,57.28,5.49,821,773,851,878,874,34.48275862068966,-0.223,0.822,0.533
92918,1755586365743,12.54,57.24,5.46,813,775,844,873,872,33.333333333333336,-0.22,0.822,0.537
92947,1755586365773,12.54,57.25,5.45,816,769,845,872,878,34.48275862068966,-0.224,0.82,0.543
92976,1755586365802,12.52,57.24,5.5,818,768,839,879,872,34.48275862068966,-0.224,0.819,0.535
93006,1755586365831,12.52,57.19,5.5,818,764,841,880,870,33.333333333333336,-0.222,0.82,0.531
93035,1755586365861,12.53,57.12,5.48,825,771,827,870,873,34.48275862068966,-0.223,0.822,0.534
93064,1755586365890,12.48,57.08,5.54,815,771,851,882,870,34.48275862068966,-0.224,0.822,0.542
93094,1755586365919,12.51,57.09,5.51,822,773,841,881,871,33.333333333333336,-0.217,0.82,0.55
93123,1755586365949,12.56,57.15,5.47,821,769,845,873,875,34.48275862068966,-0.217,0.818,0.544
93152,1755586365978,12.55,57.09,5.5,820,765,845,880,870,34.48275862068966,-0.221,0.817,0.533
93182,1755586366008,12.53,57.03,5.49,821,771,843,871,875,33.333333333333336,-0.219,0.823,0.538
93211,1755586366037,12.55,57.08,5.45,824,774,845,882,873,34.48275862068966,-0.219,0.823,0.547
93241,1755586366066,12.6,57.13,5.43,819,768,849,892,880,33.333333333333336,-0.222,0.819,0.545
