timestamp_ms,recv_timestamp_ms,pitch,roll,yaw,flex1,flex2,flex3,flex4,flex5,sampling_hz,accel_x,accel_y,accel_z
61263,1755586448042,23.03,-32.85,-44.96,810,771,821,871,870,33.333333333333336,-0.394,-0.499,0.779
61292,1755586448072,23.11,-32.79,-44.93,820,769,821,867,873,34.48275862068966,-0.391,-0.499,0.779
61322,1755586448102,23.11,-32.77,-44.95,812,777,815,866,889,33.333333333333336,-0.389,-0.495,0.774
61351,1755586448131,23.05,-32.84,-45.0,814,770,820,874,874,34.48275862068966,-0.392,-0.496,0.773
61381,1755586448161,23.07,-32.89,-45.01,815,775,825,867,880,33.333333333333336,-0.395,-0.497,0.775
61411,1755586448191,23.08,-32.87,-44.99,815,771,818,867,856,33.333333333333336,-0.393,-0.499,0.778
61440,1755586448220,23.1,-32.81,-44.99,813,787,826,871,873,34.48275862068966,-0.39,-0.501,0.78
61470,1755586448250,23.12,-32.76,-45.01,818,763,815,868,875,33.333333333333336,-0.388,-0.497,0.777
61500,1755586448279,23.1,-32.78,-45.07,806,769,823,873,875,33.333333333333336,-0.39,-0.492,0.771
61529,1755586448309,23.07,-32.84,-45.12,813,773,811,874,868,34.48275862068966,-0.396,-0.494,0.773
61559,1755586448338,23.07,-32.84,-45.1,817,773,809,874,879,33.333333333333336,-0.396,-0.499,0.778
61588,1755586448368,23.12,-32.8,-45.07,814,772,815,874,882,34.48275862068966,-0.389,-0.5,0.777
61618,1755586448397,23.13,-32.79,-45.55,810,771,818,875,878,33.333333333333336,-0.386,-0.495,0.773
61647,1755586448427,23.06,-32.82,-45.62,816,775,815,879,870,34.48275862068966,-0.39,-0.492,0.772
61677,1755586448456,23.07,-32.86,-45.65,811,772,821,871,880,33.333333333333336,-0.395,-0.497,0.777
61706,1755586448486,23.14,-32.84,-45.64,827,767,820,863,874,34.48275862068966,-0.395,-0.501,0.778
61736,1755586448515,23.15,-32.81,-45.64,812,772,820,866,874,33.333333333333336,-0.391,-0.498,0.774
61765,1755586448545,23.11,-32.84,-45.69,810,770,821,862,871,34.48275862068966,-0.389,-0.494,0.772
61794,1755586448574,23.12,-32.93,-45.76,816,772,833,871,865,34.48275862068966,-0.389,-0.492,0.772
61824,1755586448604,23.13,-33.04,-45.8,811,767,814,869,875,33.333333333333336,-0.394,-0.493,0.77
61854,1755586448633,23.02,-33.09,-45.82,813,776,843,872,873,33.333333333333336,-0.395,-0.5,0.773
61883,1755586448663,23.04,-33.08,-45.78,816,772,826,869,861,34.48275862068966,-0.392,-0.509,0.782
61913,1755586448692,23.15,-32.99,-45.73,816,771,816,878,873,33.333333333333336,-0.39,-0.506,0.78
61942,1755586448722,23.08,-33.01,-45.77,813,773,819,864,873,34.48275862068966,-0.388,-0.496,0.769
61972,1755586448751,23.03,-33.1,-45.84,810,780,822,864,875,33.333333333333336,-0.392,-0.496,0.77
62001,1755586448781,23.04,-33.12,-45.85,816,775,819,871,875,34.48275862068966,-0.397,-0.503,0.779
62031,1755586448811,23.04,-33.05,-45.8,816,761,829,868,879,33.333333333333336,-0.395,-0.509,0.775
62061,1755586448840,23.1,-32.96,-45.76,814,772,815,868,876,33.333333333333336,-0.39,-0.5,0.769
62090,1755586448870,23.01,-32.99,-45.84,808,761,828,870,881,34.48275862068966,-0.389,-0.493,0.77
62120,1755586448899,23.03,-33.01,-45.9,816,768,820,870,870,33.333333333333336,-0.394,-0.496,0.778
62149,1755586448929,23.09,-32.95,-45.89,816,766,822,875,878,34.48275862068966,-0.394,-0.501,0.777
62179,1755586448958,23.08,-32.93,-45.9,816,772,813,870,882,33.333333333333336,-0.392,-0.504,0.77
62208,1755586448988,23.0,-32.95,-45.93,810,766,823,875,873,34.48275862068966,-0.389,-0.506,0.77
62238,1755586449017,22.97,-32.9,-45.93,815,771,821,870,873,33.333333333333336,-0.389,-0.509,0.779
62267,1755586449047,22.96,-32.82,-45.87,814,773,828,883,878,34.48275862068966,-0.39,-0.507,0.781
62297,1755586449076,23.0,-32.77,-45.84,815,773,820,870,877,33.333333333333336,-0.387,-0.494,0.778
62326,1755586449106,22.98,-32.75,-45.91,813,779,821,874,868,34.48275862068966,-0.386,-0.486,0.771
62356,1755586449136,22.87,-32.82,-46.02,812,775,826,863,881,33.333333333333336,-0.39,-0.497,0.771
62385,1755586449165,22.94,-32.82,-45.97,813,765,821,870,872,34.48275862068966,-0.393,-0.506,0.783
62415,1755586449195,23.06,-32.72,-45.85,804,774,816,881,870,33.333333333333336,-0.391,-0.498,0.787
62445,1755586449224,23.13,-32.61,-45.82,817,773,816,870,870,33.333333333333336,-0.387,-0.491,0.782
62474,1755586449254,23.13,-32.6,-45.88,811,770,821,863,869,34.48275862068966,-0.39,-0.491,0.772
62504,1755586449284,23.07,-32.68,-45.93,817,768,815,877,875,33.333333333333336,-0.395,-0.494,0.776
62534,1755586449314,23.13,-32.65,-45.92,817,770,821,867,873,33.333333333333336,-0.393,-0.495,0.785
62564,1755586449344,23.21,-32.59,-45.93,819,772,818,869,873,33.333333333333336,-0.389,-0.495,0.783
62593,1755586449373,23.2,-32.58,-45.97,810,771,822,864,876,34.48275862068966,-0.39,-0.497,0.778
62623,1755586449403,23.15,-32.58,-45.98,812,775,802,862,870,33.333333333333336,-0.393,-0.496,0.781
62653,1755586449432,23.23,-32.53,-45.97,809,771,821,873,871,33.333333333333336,-0.395,-0.494,0.784
62682,1755586449462,23.23,-32.44,-45.98,817,769,826,871,864,34.48275862068966,-0.393,-0.495,0.781
62712,1755586449491,23.26,-32.4,-45.98,817,769,822,870,873,33.333333333333336,-0.392,-0.496,0.779
62741,1755586449521,23.28,-32.42,-46.0,807,764,818,871,879,34.48275862068966,-0.393,-0.487,0.775
62771,1755586449550,23.25,-32.5,-46.06,816,770,821,877,882,33.333333333333336,-0.397,-0.483,0.774
62800,1755586449580,23.2,-32.55,-46.1,814,770,822,865,869,34.48275862068966,-0.398,-0.49,0.782
62830,1755586449609,23.31,-32.53,-46.08,816,771,828,873,872,33.333333333333336,-0.394,-0.493,0.783
62859,1755586449639,23.33,-32.52,-46.11,814,766,817,865,867,34.48275862068966,-0.389,-0.49,0.779
62889,1755586449669,23.27,-32.57,-46.2,817,769,824,869,876,33.333333333333336,-0.393,-0.491,0.779
62909,1755586449689,23.28,-32.6,-46.22,816,770,821,870,873,50.0,-0.4,-0.494,0.784
62939,1755586449719,23.36,-32.59,-46.21,809,769,830,861,878,33.333333333333336,-0.4,-0.491,0.783
62968,1755586449748,23.33,-32.58,-46.24,808,772,821,870,871,34.48275862068966,-0.396,-0.492,0.781
62998,1755586449778,23.28,-32.58,-46.27,815,769,833,864,869,33.333333333333336,-0.395,-0.497,0.784
63028,1755586449807,23.32,-32.49,-46.25,821,772,818,868,871,33.333333333333336,-0.392,-0.496,0.79
63057,1755586449837,23.34,-32.4,-46.27,814,774,812,868,872,34.48275862068966,-0.392,-0.496,0.784
63087,1755586449866,23.41,-32.42,-46.28,817,773,821,866,872,33.333333333333336,-0.396,-0.495,0.774
63116,1755586449896,23.44,-32.48,-46.27,813,772,812,873,871,34.48275862068966,-0.403,-0.491,0.771
63146,1755586449926,23.42,-32.54,-46.26,821,774,817,868,901,33.333333333333336,-0.406,-0.488,0.772
63176,1755586449955,23.46,-32.59,-46.24,811,766,817,872,884,33.333333333333336,-0.403,-0.49,0.778
63205,1755586449985,23.4,-32.56,-46.24,809,761,834,870,876,34.48275862068966,-0.4,-0.492,0.78
63235,1755586450015,23.34,-32.53,-46.24,814,772,814,873,860,33.333333333333336,-0.399,-0.497,0.78
63265,1755586450044,23.44,-32.48,-46.2,807,773,817,861,879,33.333333333333336,-0.399,-0.494,0.779
63294,1755586450074,23.49,-32.46,-46.19,809,770,824,869,876,34.48275862068966,-0.4,-0.488,0.773
63324,1755586450103,23.42,-32.5,-46.2,811,755,823,871,870,33.333333333333336,-0.398,-0.491,0.779
63353,1755586450133,23.49,-32.45,-46.15,812,767,822,874,873,34.48275862068966,-0.397,-0.492,0.784
63383,1755586450163,23.57,-32.46,-46.12,809,766,820,864,880,33.333333333333336,-0.396,-0.489,0.776
63413,1755586450192,23.56,-32.51,-46.12,818,767,829,874,877,33.333333333333336,-0.398,-0.496,0.778
63442,1755586450222,23.63,-32.5,-46.04,824,769,822,876,867,34.48275862068966,-0.402,-0.496,0.778
63472,1755586450251,23.73,-32.54,-45.96,814,773,820,876,874,33.333333333333336,-0.401,-0.484,0.776
63501,1755586450281,23.67,-32.53,-46.0,810,769,819,868,875,34.48275862068966,-0.399,-0.484,0.779
63531,1755586450310,23.69,-32.52,-46.03,817,769,814,869,880,33.333333333333336,-0.4,-0.49,0.781
63560,1755586450340,23.72,-32.49,-46.01,816,764,824,874,866,34.48275862068966,-0.403,-0.488,0.777
63590,1755586450370,23.71,-32.55,-46.03,816,765,821,874,870,33.333333333333336,-0.401,-0.485,0.774
63620,1755586450400,23.68,-32.55,-46.07,814,766,835,874,888,33.333333333333336,-0.402,-0.491,0.78
63649,1755586450429,23.7,-32.5,-46.05,809,768,819,868,872,34.48275862068966,-0.405,-0.495,0.781
63679,1755586450458,23.78,-32.52,-46.04,812,772,819,850,866,33.333333333333336,-0.404,-0.488,0.776
63708,1755586450488,23.73,-32.56,-46.1,805,770,819,870,885,34.48275862068966,-0.404,-0.488,0.778
63738,1755586450518,23.68,-32.56,-46.15,814,768,822,877,864,33.333333333333336,-0.407,-0.498,0.785
63767,1755586450547,23.79,-32.45,-46.09,816,770,818,870,868,34.48275862068966,-0.41,-0.494,0.778
63797,1755586450577,23.75,-32.5,-46.11,810,761,814,875,883,33.333333333333336,-0.406,-0.483,0.769
63827,1755586450606,23.67,-32.59,-46.2,810,772,820,861,877,33.333333333333336,-0.405,-0.484,0.773
63856,1755586450636,23.66,-32.54,-46.21,810,770,841,858,867,34.48275862068966,-0.407,-0.494,0.786
63886,1755586450665,23.73,-32.45,-46.19,822,776,817,860,873,33.333333333333336,-0.403,-0.492,0.78
63915,1755586450695,23.74,-32.47,-46.22,808,777,835,871,873,34.48275862068966,-0.402,-0.487,0.77
63945,1755586450724,23.72,-32.5,-46.24,812,774,813,874,871,33.333333333333336,-0.406,-0.49,0.774
63974,1755586450754,23.81,-32.48,-46.2,817,765,812,867,877,34.48275862068966,-0.411,-0.49,0.778
64004,1755586450784,23.94,-32.56,-46.18,812,771,821,875,869,33.333333333333336,-0.408,-0.487,0.776
64034,1755586450814,23.91,-32.54,-46.21,815,770,829,872,869,33.333333333333336,-0.406,-0.485,0.775
64063,1755586450843,23.85,-32.55,-46.23,810,769,818,868,869,34.48275862068966,-0.407,-0.488,0.776
64093,1755586450873,23.92,-32.54,-46.22,819,772,819,869,875,33.333333333333336,-0.408,-0.492,0.778
64123,1755586450903,23.87,-32.5,-46.24,810,771,826,865,869,33.333333333333336,-0.404,-0.486,0.77
64153,1755586450932,23.82,-32.55,-46.3,812,775,816,872,879,33.333333333333336,-0.408,-0.486,0.769
64182,1755586450962,23.77,-32.61,-46.33,816,777,819,871,876,34.48275862068966,-0.41,-0.489,0.775
64212,1755586450991,23.79,-32.58,-46.33,809,772,811,864,886,33.333333333333336,-0.406,-0.497,0.783
64241,1755586451021,23.87,-32.46,-46.3,810,774,817,874,877,34.48275862068966,-0.402,-0.494,0.782
64271,1755586451050,23.84,-32.44,-46.36,819,766,817,862,870,33.333333333333336,-0.402,-0.485,0.769
64300,1755586451080,23.75,-32.55,-46.44,812,764,815,864,874,34.48275862068966,-0.407,-0.485,0.768
64330,1755586451109,23.74,-32.56,-46.47,814,763,820,867,876,33.333333333333336,-0.411,-0.494,0.78
64359,1755586451139,23.81,-32.47,-46.44,817,771,819,858,869,34.48275862068966,-0.407,-0.494,0.779
64389,1755586451169,23.84,-32.45,-46.45,815,769,824,879,874,33.333333333333336,-0.403,-0.489,0.772
64419,1755586451198,23.76,-32.5,-46.53,809,762,816,871,875,33.333333333333336,-0.404,-0.487,0.773
64448,1755586451228,23.73,-32.48,-46.55,816,771,814,864,873,34.48275862068966,-0.409,-0.489,0.778
64478,1755586451257,23.78,-32.46,-46.54,815,775,812,870,865,33.333333333333336,-0.409,-0.49,0.777
64507,1755586451287,23.78,-32.47,-46.54,814,775,819,874,875,34.48275862068966,-0.405,-0.49,0.774
64537,1755586451316,23.78,-32.49,-46.58,816,768,811,873,875,33.333333333333336,-0.403,-0.49,0.775
64566,1755586451346,23.73,-32.48,-46.62,815,764,828,872,868,34.48275862068966,-0.406,-0.489,0.777
64596,1755586451376,23.73,-32.47,-46.64,814,766,820,869,861,33.333333333333336,-0.408,-0.49,0.778
64625,1755586451405,23.74,-32.46,-46.66,813,773,817,874,866,34.48275862068966,-0.405,-0.489,0.775
64655,1755586451434,23.72,-32.45,-46.7,815,767,826,873,880,33.333333333333336,-0.402,-0.49,0.776
64684,1755586451464,23.7,-32.43,-46.73,816,770,823,871,869,34.48275862068966,-0.405,-0.491,0.774
64714,1755586451494,23.74,-32.42,-46.75,812,762,820,850,869,33.333333333333336,-0.405,-0.492,0.778
64743,1755586451523,23.79,-32.35,-46.75,817,767,820,873,872,34.48275862068966,-0.403,-0.49,0.78
64773,1755586451553,23.8,-32.31,-46.78,812,766,819,866,869,33.333333333333336,-0.402,-0.486,0.775
64802,1755586451582,23.76,-32.39,-46.84,817,764,818,861,876,34.48275862068966,-0.402,-0.487,0.775
64832,1755586451612,23.8,-32.42,-46.86,808,757,813,868,870,33.333333333333336,-0.406,-0.49,0.777
64862,1755586451641,23.81,-32.41,-46.86,814,776,816,871,885,33.333333333333336,-0.404,-0.488,0.778
64891,1755586451671,23.83,-32.41,-46.89,809,765,822,866,872,34.48275862068966,-0.402,-0.486,0.778
64921,1755586451700,23.79,-32.43,-46.94,812,771,819,876,872,33.333333333333336,-0.404,-0.487,0.774
64950,1755586451730,23.79,-32.46,-46.96,816,771,825,864,879,34.48275862068966,-0.406,-0.489,0.775
64980,1755586451759,23.79,-32.47,-46.96,817,767,814,865,872,33.333333333333336,-0.407,-0.49,0.777
65009,1755586451789,23.82,-32.46,-46.97,813,774,818,859,872,34.48275862068966,-0.405,-0.492,0.777
65039,1755586451818,23.79,-32.47,-46.99,813,773,820,871,876,33.333333333333336,-0.403,-0.495,0.777
65068,1755586451848,23.83,-32.45,-46.98,812,768,820,873,872,34.48275862068966,-0.403,-0.492,0.777
65098,1755586451877,23.81,-32.44,-47.0,816,758,809,870,872,33.333333333333336,-0.404,-0.485,0.775
65127,1755586451907,23.81,-32.5,-47.06,816,771,822,865,876,34.48275862068966,-0.404,-0.484,0.776
65157,1755586451936,23.83,-32.5,-47.09,809,764,825,879,880,33.333333333333336,-0.404,-0.492,0.781
65186,1755586451966,23.85,-32.46,-47.08,816,766,821,869,869,34.48275862068966,-0.404,-0.494,0.777
65216,1755586451995,23.85,-32.48,-47.1,810,772,829,891,871,33.333333333333336,-0.405,-0.49,0.772
65245,1755586452025,23.78,-32.56,-47.14,810,766,822,874,868,34.48275862068966,-0.407,-0.486,0.771
65275,1755586452054,23.78,-32.6,-47.16,809,767,822,872,873,33.333333333333336,-0.406,-0.494,0.78
65304,1755586452084,23.81,-32.52,-47.13,805,766,831,873,873,34.48275862068966,-0.402,-0.499,0.784
65334,1755586452113,23.87,-32.41,-47.12,811,768,820,870,868,33.333333333333336,-0.399,-0.492,0.776
65363,1755586452143,23.79,-32.48,-47.19,811,769,821,857,879,34.48275862068966,-0.402,-0.486,0.768
65393,1755586452172,23.78,-32.58,-47.22,810,768,817,880,874,33.333333333333336,-0.41,-0.49,0.775
65422,1755586452202,23.84,-32.54,-47.17,809,770,824,868,878,34.48275862068966,-0.408,-0.492,0.782
65452,1755586452231,23.88,-32.46,-47.15,810,771,820,869,878,33.333333333333336,-0.4,-0.492,0.78
65481,1755586452261,23.84,-32.45,-47.19,818,776,817,869,877,34.48275862068966,-0.4,-0.488,0.773
65511,1755586452291,23.82,-32.53,-47.23,810,775,822,866,873,33.333333333333336,-0.407,-0.488,0.775
65540,1755586452320,23.82,-32.56,-47.22,818,766,818,869,878,34.48275862068966,-0.41,-0.491,0.781
65570,1755586452350,23.84,-32.46,-47.17,812,768,822,878,879,33.333333333333336,-0.405,-0.495,0.784
65600,1755586452379,23.86,-32.38,-47.17,813,775,822,871,871,33.333333333333336,-0.4,-0.497,0.78
65629,1755586452409,23.85,-32.37,-47.2,812,763,814,880,866,34.48275862068966,-0.4,-0.489,0.771
65659,1755586452438,23.81,-32.46,-47.27,816,765,815,868,875,33.333333333333336,-0.404,-0.482,0.774
65688,1755586452468,23.81,-32.46,-47.32,815,766,829,871,878,34.48275862068966,-0.408,-0.485,0.783
65718,1755586452497,23.88,-32.41,-47.34,812,768,820,866,870,33.333333333333336,-0.408,-0.49,0.779
65747,1755586452527,23.85,-32.43,-47.36,809,774,823,872,875,34.48275862068966,-0.407,-0.491,0.77
65777,1755586452556,23.79,-32.51,-47.38,806,770,822,872,876,33.333333333333336,-0.407,-0.491,0.772
65806,1755586452586,23.82,-32.53,-47.38,813,769,821,871,863,34.48275862068966,-0.404,-0.493,0.785
65836,1755586452615,23.85,-32.42,-47.39,812,768,817,867,871,33.333333333333336,-0.4,-0.492,0.786
65865,1755586452645,23.86,-32.38,-47.42,816,774,818,860,875,34.48275862068966,-0.401,-0.49,0.774
65895,1755586452675,23.81,-32.49,-47.46,813,769,816,871,875,33.333333333333336,-0.405,-0.489,0.769
65924,1755586452704,23.81,-32.54,-47.47,813,769,813,870,870,34.48275862068966,-0.408,-0.491,0.781
65954,1755586452734,23.85,-32.46,-47.46,813,761,822,864,875,33.333333333333336,-0.402,-0.49,0.783
65984,1755586452764,23.84,-32.45,-47.52,811,774,827,862,878,33.333333333333336,-0.4,-0.488,0.776
66013,1755586452794,23.82,-32.51,-47.58,810,772,826,870,880,34.48275862068966,-0.404,-0.485,0.771
66043,1755586452823,23.78,-32.62,-47.64,810,772,809,883,873,33.333333333333336,-0.408,-0.487,0.771
66073,1755586452852,23.75,-32.65,-47.65,813,769,816,876,875,33.333333333333336,-0.408,-0.498,0.78
66102,1755586452882,23.8,-32.57,-47.59,813,761,828,869,877,34.48275862068966,-0.404,-0.499,0.779
66132,1755586452911,23.78,-32.57,-47.59,813,773,815,877,872,33.333333333333336,-0.399,-0.488,0.77
66161,1755586452941,23.69,-32.68,-47.69,818,778,823,864,879,34.48275862068966,-0.398,-0.484,0.773
66191,1755586452970,23.72,-32.69,-47.73,806,774,815,874,872,33.333333333333336,-0.403,-0.495,0.785
66220,1755586453000,23.78,-32.62,-47.69,814,764,817,873,866,34.48275862068966,-0.403,-0.5,0.781
66250,1755586453029,23.81,-32.65,-47.69,811,769,821,862,873,33.333333333333336,-0.399,-0.493,0.769
66279,1755586453059,23.74,-32.79,-47.78,808,769,818,869,878,34.48275862068966,-0.398,-0.488,0.771
66309,1755586453088,23.78,-32.84,-47.83,807,777,823,875,871,33.333333333333336,-0.403,-0.491,0.781
66338,1755586453118,23.79,-32.82,-47.81,816,766,815,865,876,34.48275862068966,-0.405,-0.501,0.784
66368,1755586453148,23.89,-32.77,-47.72,812,770,813,869,873,33.333333333333336,-0.402,-0.497,0.778
66397,1755586453177,23.95,-32.78,-47.68,814,775,821,869,865,34.48275862068966,-0.401,-0.489,0.771
66427,1755586453207,23.92,-32.85,-47.7,818,771,815,869,871,33.333333333333336,-0.409,-0.489,0.767
66457,1755586453236,23.86,-32.9,-47.66,822,775,820,869,896,33.333333333333336,-0.414,-0.496,0.771
66486,1755586453266,23.94,-32.91,-47.56,815,768,824,874,873,34.48275862068966,-0.41,-0.501,0.776
66516,1755586453295,23.99,-32.87,-47.51,814,767,818,869,877,33.333333333333336,-0.4,-0.5,0.776
66545,1755586453325,23.95,-32.82,-47.52,816,763,825,869,870,34.48275862068966,-0.398,-0.497,0.771
66575,1755586453354,23.94,-32.85,-47.56,813,770,830,875,877,33.333333333333336,-0.403,-0.497,0.772
66604,1755586453384,24.01,-32.81,-47.55,813,771,824,869,872,34.48275862068966,-0.407,-0.499,0.776
66634,1755586453413,24.06,-32.73,-47.52,805,763,813,867,880,33.333333333333336,-0.408,-0.494,0.773
66663,1755586453443,24.1,-32.73,-47.54,811,774,812,870,864,34.48275862068966,-0.407,-0.488,0.766
66693,1755586453473,24.07,-32.81,-47.61,817,773,806,864,870,33.333333333333336,-0.41,-0.488,0.764
66723,1755586453502,24.05,-32.88,-47.65,814,766,814,875,870,33.333333333333336,-0.413,-0.493,0.771
66752,1755586453532,24.13,-32.86,-47.63,812,762,815,868,879,34.48275862068966,-0.408,-0.494,0.774
66782,1755586453561,24.16,-32.83,-47.67,812,772,825,868,871,33.333333333333336,-0.405,-0.492,0.771
66811,1755586453591,24.08,-32.85,-47.76,808,773,821,874,872,34.48275862068966,-0.407,-0.493,0.77
66841,1755586453621,24.11,-32.86,-47.81,815,772,823,865,867,33.333333333333336,-0.408,-0.496,0.775
66870,1755586453651,24.15,-32.79,-47.85,815,770,820,869,867,34.48275862068966,-0.409,-0.496,0.776
66900,1755586453680,24.15,-32.77,-47.89,814,769,818,869,877,33.333333333333336,-0.409,-0.495,0.77
66930,1755586453710,24.14,-32.79,-47.93,812,762,812,880,879,33.333333333333336,-0.411,-0.492,0.766
66960,1755586453740,24.12,-32.84,-47.97,809,774,820,867,871,33.333333333333336,-0.414,-0.493,0.767
66990,1755586453769,24.11,-32.84,-47.98,813,771,831,867,870,33.333333333333336,-0.411,-0.498,0.773
67019,1755586453799,24.18,-32.75,-47.98,813,770,821,864,873,34.48275862068966,-0.407,-0.501,0.777
67049,1755586453828,24.18,-32.67,-48.0,809,766,819,860,881,33.333333333333336,-0.406,-0.496,0.77
67078,1755586453858,24.14,-32.69,-48.04,816,761,830,868,875,34.48275862068966,-0.411,-0.492,0.765
67108,1755586453887,24.18,-32.75,-48.05,816,771,818,871,863,33.333333333333336,-0.414,-0.494,0.769
67137,1755586453917,24.16,-32.73,-48.04,811,768,815,871,867,34.48275862068966,-0.415,-0.498,0.773
67167,1755586453946,24.17,-32.66,-48.0,813,762,823,869,866,33.333333333333336,-0.411,-0.498,0.772
67196,1755586453976,24.2,-32.65,-47.99,816,764,813,860,868,34.48275862068966,-0.407,-0.49,0.768
67226,1755586454006,24.14,-32.74,-48.07,811,764,812,865,880,33.333333333333336,-0.408,-0.488,0.769
67255,1755586454035,24.11,-32.79,-48.13,810,772,827,877,875,34.48275862068966,-0.411,-0.497,0.775
67285,1755586454064,24.17,-32.73,-48.08,814,769,816,870,869,33.333333333333336,-0.409,-0.502,0.777
67314,1755586454094,24.18,-32.68,-48.06,815,771,822,869,874,34.48275862068966,-0.407,-0.498,0.771
67344,1755586454124,24.11,-32.74,-48.09,814,764,815,869,867,33.333333333333336,-0.406,-0.491,0.766
67373,1755586454153,24.17,-32.81,-48.09,807,766,820,859,883,34.48275862068966,-0.41,-0.491,0.771
67403,1755586454183,24.22,-32.81,-48.07,816,767,816,870,865,33.333333333333336,-0.412,-0.491,0.773
67433,1755586454212,24.22,-32.84,-48.08,818,766,818,873,877,33.333333333333336,-0.409,-0.495,0.772
67462,1755586454242,24.27,-32.84,-48.07,811,767,823,862,870,34.48275862068966,-0.408,-0.497,0.772
67492,1755586454271,24.33,-32.85,-48.07,818,779,819,875,872,33.333333333333336,-0.411,-0.491,0.766
67521,1755586454301,24.29,-32.94,-48.1,814,773,812,868,866,34.48275862068966,-0.415,-0.489,0.764
67551,1755586454330,24.31,-32.96,-48.11,804,770,823,874,869,33.333333333333336,-0.415,-0.496,0.774
67580,1755586454360,24.36,-32.87,-48.1,814,768,815,866,863,34.48275862068966,-0.413,-0.497,0.774
67610,1755586454390,24.38,-32.84,-48.13,814,767,819,872,869,33.333333333333336,-0.41,-0.496,0.767
67640,1755586454419,24.38,-32.88,-48.18,813,771,825,878,879,33.333333333333336,-0.411,-0.496,0.766
67669,1755586454449,24.42,-32.88,-48.23,816,769,827,871,876,34.48275862068966,-0.414,-0.493,0.768
67699,1755586454478,24.41,-32.86,-48.27,817,770,821,872,873,33.333333333333336,-0.415,-0.49,0.768
67728,1755586454508,24.87,-32.86,-48.31,811,769,820,872,869,34.48275862068966,-0.415,-0.494,0.77
67758,1755586454538,24.89,-32.84,-48.33,808,767,814,867,871,33.333333333333336,-0.414,-0.496,0.77
67787,1755586454567,24.86,-32.8,-48.36,812,769,815,876,878,34.48275862068966,-0.412,-0.495,0.769
67817,1755586454597,24.87,-32.82,-48.42,811,766,819,862,866,33.333333333333336,-0.411,-0.492,0.767
67847,1755586454626,24.81,-32.85,-48.47,818,768,816,871,875,33.333333333333336,-0.414,-0.492,0.767
67876,1755586454656,24.79,-32.86,-48.48,815,768,820,856,867,34.48275862068966,-0.416,-0.498,0.771
67906,1755586454686,24.82,-32.81,-48.44,815,772,821,865,879,33.333333333333336,-0.414,-0.499,0.772
67936,1755586454715,24.82,-32.79,-48.44,814,767,817,871,879,33.333333333333336,-0.41,-0.493,0.769
67965,1755586454745,24.76,-32.81,-48.49,813,774,821,873,868,34.48275862068966,-0.411,-0.49,0.768
67995,1755586454774,24.74,-32.83,-48.52,810,768,810,873,874,33.333333333333336,-0.415,-0.494,0.771
68024,1755586454804,24.75,-32.81,-48.49,827,765,822,864,874,34.48275862068966,-0.415,-0.497,0.771
68054,1755586454833,24.75,-32.8,-48.48,814,768,814,879,859,33.333333333333336,-0.411,-0.493,0.768
68083,1755586454863,24.68,-32.84,-48.55,820,774,823,870,869,34.48275862068966,-0.409,-0.49,0.769
68113,1755586454893,24.66,-32.86,-48.6,811,771,826,875,877,33.333333333333336,-0.413,-0.497,0.774
68143,1755586454923,24.7,-32.79,-48.57,809,763,823,869,882,33.333333333333336,-0.414,-0.499,0.775
68163,1755586454942,24.71,-32.75,-48.56,814,769,824,870,879,50.0,-0.412,-0.494,0.768
68192,1755586454973,24.66,-32.8,-48.6,811,767,821,867,872,34.48275862068966,-0.41,-0.488,0.761
68213,1755586454993,24.61,-32.86,-48.64,810,766,809,864,884,47.61904761904762,-0.412,-0.486,0.762
68242,1755586455022,24.59,-32.9,-48.69,814,763,814,873,864,34.48275862068966,-0.416,-0.491,0.77
68272,1755586455052,24.61,-32.83,-48.69,813,767,819,872,873,33.333333333333336,-0.412,-0.496,0.774
68301,1755586455081,24.6,-32.77,-48.72,814,764,826,865,876,34.48275862068966,-0.407,-0.494,0.769
68331,1755586455111,24.55,-32.8,-48.78,810,765,816,861,877,33.333333333333336,-0.409,-0.491,0.766
68360,1755586455140,24.52,-32.82,-48.81,813,769,816,867,868,34.48275862068966,-0.415,-0.494,0.77
68390,1755586455170,24.57,-32.75,-48.77,811,764,823,867,877,33.333333333333336,-0.416,-0.498,0.775
68419,1755586455199,24.6,-32.67,-48.73,809,772,819,867,867,34.48275862068966,-0.41,-0.497,0.775
68449,1755586455229,24.58,-32.66,-48.75,817,770,814,862,874,33.333333333333336,-0.405,-0.491,0.772
68478,1755586455258,24.55,-32.66,-48.8,814,764,821,876,871,34.48275862068966,-0.407,-0.489,0.773
68508,1755586455288,24.54,-32.64,-48.84,812,769,814,868,868,33.333333333333336,-0.413,-0.488,0.77
68538,1755586455318,24.54,-32.65,-48.85,816,767,821,865,880,33.333333333333336,-0.417,-0.493,0.77
68558,1755586455338,24.52,-32.64,-48.85,809,778,818,872,876,50.0,-0.415,-0.494,0.767
68588,1755586455367,24.5,-32.65,-48.85,808,768,819,866,881,33.333333333333336,-0.414,-0.493,0.766
68617,1755586455397,24.45,-32.68,-48.87,815,770,811,876,872,34.48275862068966,-0.41,-0.494,0.771
68647,1755586455427,24.47,-32.65,-48.9,816,771,827,871,867,33.333333333333336,-0.408,-0.494,0.772
68677,1755586455456,24.37,-32.61,-48.94,809,767,818,873,872,33.333333333333336,-0.41,-0.494,0.775
68706,1755586455486,24.35,-32.54,-48.91,810,768,825,873,883,34.48275862068966,-0.409,-0.494,0.779
68736,1755586455516,24.41,-32.44,-48.92,811,776,821,873,869,33.333333333333336,-0.407,-0.489,0.778
68766,1755586455545,24.33,-32.45,-48.99,818,774,809,867,874,33.333333333333336,-0.406,-0.484,0.768
68795,1755586455575,24.27,-32.48,-49.04,813,762,828,870,871,34.48275862068966,-0.412,-0.488,0.771
68825,1755586455604,24.24,-32.47,-49.05,812,782,820,862,871,33.333333333333336,-0.413,-0.493,0.778
68854,1755586455634,24.33,-32.38,-49.03,816,773,820,864,875,34.48275862068966,-0.412,-0.491,0.774
68884,1755586455664,24.29,-32.38,-49.06,816,768,820,861,873,33.333333333333336,-0.41,-0.486,0.767
68913,1755586455693,24.23,-32.48,-49.14,812,772,812,876,872,34.48275862068966,-0.41,-0.488,0.771
68943,1755586455723,24.21,-32.45,-49.15,813,771,819,859,869,33.333333333333336,-0.412,-0.49,0.778
68973,1755586455752,24.25,-32.41,-49.13,818,766,820,864,885,33.333333333333336,-0.409,-0.49,0.777
69002,1755586455782,24.28,-32.45,-49.16,819,764,817,868,875,34.48275862068966,-0.406,-0.485,0.77
69032,1755586455811,24.17,-32.55,-49.24,808,765,827,873,870,33.333333333333336,-0.409,-0.484,0.768
69061,1755586455841,24.16,-32.57,-49.23,803,768,810,871,868,34.48275862068966,-0.412,-0.496,0.781
69091,1755586455871,24.26,-32.47,-49.17,816,775,822,873,872,33.333333333333336,-0.408,-0.498,0.783
69120,1755586455900,24.25,-32.42,-49.18,812,775,820,862,873,34.48275862068966,-0.401,-0.487,0.77
69150,1755586455930,24.18,-32.47,-49.28,808,770,821,868,869,33.333333333333336,-0.403,-0.483,0.771
69180,1755586455960,24.17,-32.49,-49.32,810,775,829,868,865,33.333333333333336,-0.408,-0.489,0.777
69209,1755586455989,24.29,-32.48,-49.31,809,770,816,872,868,34.48275862068966,-0.407,-0.492,0.776
69239,1755586456019,24.25,-32.46,-49.35,811,775,814,867,873,33.333333333333336,-0.403,-0.49,0.775
69269,1755586456048,24.27,-32.42,-49.41,810,773,820,865,876,33.333333333333336,-0.406,-0.489,0.775
69298,1755586456078,24.3,-32.42,-49.46,811,772,817,875,880,34.48275862068966,-0.409,-0.49,0.775
69328,1755586456107,24.36,-32.41,-49.49,812,766,811,867,866,33.333333333333336,-0.409,-0.49,0.773
69357,1755586456137,24.32,-32.43,-49.52,813,771,819,870,871,34.48275862068966,-0.409,-0.49,0.772
69387,1755586456166,24.3,-32.46,-49.53,816,773,820,872,876,33.333333333333336,-0.409,-0.49,0.774
69416,1755586456196,24.31,-32.44,-49.55,814,763,825,872,872,34.48275862068966,-0.407,-0.489,0.776
69446,1755586456226,24.34,-32.42,-49.56,807,766,842,866,867,33.333333333333336,-0.407,-0.49,0.777
69476,1755586456255,24.31,-32.41,-49.57,817,761,813,868,871,33.333333333333336,-0.405,-0.491,0.775
69505,1755586456285,24.32,-32.42,-49.57,809,772,823,874,869,34.48275862068966,-0.407,-0.49,0.773
69535,1755586456314,24.3,-32.47,-49.59,811,774,820,872,871,33.333333333333336,-0.408,-0.491,0.775
69564,1755586456344,24.31,-32.45,-49.58,811,765,822,870,865,34.48275862068966,-0.41,-0.492,0.776
69594,1755586456374,24.3,-32.4,-49.57,811,773,816,884,875,33.333333333333336,-0.411,-0.493,0.775
69624,1755586456404,24.31,-32.39,-49.56,814,763,813,877,863,33.333333333333336,-0.41,-0.491,0.773
69644,1755586456424,24.3,-32.4,-49.57,810,769,824,870,871,50.0,-0.406,-0.486,0.771
69673,1755586456453,24.25,-32.44,-49.61,819,776,820,864,879,34.48275862068966,-0.406,-0.485,0.777
69703,1755586456483,24.22,-32.41,-49.62,811,771,828,872,877,33.333333333333336,-0.407,-0.491,0.781
69733,1755586456512,24.29,-32.36,-49.6,814,765,819,868,864,33.333333333333336,-0.406,-0.49,0.775
69762,1755586456542,24.25,-32.4,-49.62,812,773,825,874,860,34.48275862068966,-0.406,-0.485,0.77
69792,1755586456571,24.18,-32.44,-49.65,812,771,810,871,868,33.333333333333336,-0.407,-0.486,0.776
69821,1755586456601,24.22,-32.4,-49.64,805,771,817,868,867,34.48275862068966,-0.407,-0.491,0.781
69851,1755586456630,24.25,-32.31,-49.6,811,768,824,874,874,33.333333333333336,-0.406,-0.492,0.777
69880,1755586456660,24.27,-32.31,-49.6,814,771,813,866,889,34.48275862068966,-0.406,-0.489,0.771
69910,1755586456690,24.24,-32.34,-49.61,810,763,820,868,872,33.333333333333336,-0.41,-0.488,0.772
69939,1755586456719,24.28,-32.34,-49.61,815,765,809,866,879,34.48275862068966,-0.408,-0.486,0.78
69969,1755586456749,24.39,-32.23,-49.6,819,767,816,873,880,33.333333333333336,-0.408,-0.485,0.783
69999,1755586456778,24.43,-32.18,-49.6,812,780,818,870,865,33.333333333333336,-0.41,-0.481,0.772
70028,1755586456808,24.4,-32.27,-49.63,816,771,816,868,871,34.48275862068966,-0.411,-0.482,0.769
70058,1755586456837,24.41,-32.31,-49.65,815,761,827,871,866,33.333333333333336,-0.41,-0.485,0.778
