timestamp_ms,recv_timestamp_ms,pitch,roll,yaw,flex1,flex2,flex3,flex4,flex5,sampling_hz,accel_x,accel_y,accel_z
70087,1755586456867,24.42,-32.25,-49.68,815,762,815,873,880,34.48275862068966,-0.41,-0.485,0.779
70117,1755586456896,24.41,-32.21,-49.71,814,770,823,867,860,33.333333333333336,-0.411,-0.485,0.775
70146,1755586456926,24.41,-32.25,-49.72,812,772,814,874,872,34.48275862068966,-0.413,-0.482,0.77
70176,1755586456956,24.32,-32.34,-49.77,812,769,820,864,877,33.333333333333336,-0.413,-0.481,0.772
70206,1755586456986,24.26,-32.37,-49.76,804,770,824,884,865,33.333333333333336,-0.41,-0.487,0.782
70235,1755586457015,24.36,-32.31,-49.74,810,766,821,868,868,34.48275862068966,-0.407,-0.488,0.784
70265,1755586457044,24.28,-32.32,-49.79,813,762,817,869,875,33.333333333333336,-0.403,-0.483,0.776
70294,1755586457074,24.19,-32.37,-49.85,813,774,818,864,867,34.48275862068966,-0.407,-0.486,0.777
70324,1755586457103,24.16,-32.34,-49.86,813,767,837,872,872,33.333333333333336,-0.413,-0.488,0.781
70353,1755586457133,24.18,-32.33,-49.83,808,772,824,860,869,34.48275862068966,-0.414,-0.486,0.775
70383,1755586457163,24.1,-32.46,-49.87,812,769,829,871,873,33.333333333333336,-0.409,-0.482,0.768
70413,1755586457192,24.0,-32.69,-49.99,809,767,817,871,876,33.333333333333336,-0.408,-0.482,0.768
70442,1755586457222,23.9,-32.79,-50.05,808,767,816,863,889,34.48275862068966,-0.408,-0.49,0.779
70472,1755586457251,23.95,-32.76,-50.04,814,773,817,872,876,33.333333333333336,-0.408,-0.496,0.783
70501,1755586457281,23.94,-32.7,-50.02,818,762,823,870,874,34.48275862068966,-0.407,-0.495,0.776
70531,1755586457310,23.96,-32.74,-50.03,811,773,802,868,870,33.333333333333336,-0.404,-0.49,0.773
70560,1755586457340,23.92,-32.79,-50.1,813,769,822,867,898,34.48275862068966,-0.403,-0.49,0.776
70590,1755586457370,23.91,-32.82,-50.16,811,758,831,866,877,33.333333333333336,-0.405,-0.496,0.778
70619,1755586457399,23.89,-32.81,-50.16,814,769,820,869,880,34.48275862068966,-0.403,-0.496,0.775
70649,1755586457429,23.87,-32.85,-50.21,807,768,818,881,876,33.333333333333336,-0.401,-0.49,0.773
70678,1755586457458,23.78,-32.92,-50.32,814,770,823,868,864,34.48275862068966,-0.403,-0.492,0.773
70708,1755586457488,23.7,-32.9,-50.35,815,769,820,870,875,33.333333333333336,-0.405,-0.5,0.778
70738,1755586457518,23.73,-32.83,-50.32,806,768,817,864,871,33.333333333333336,-0.402,-0.501,0.78
70767,1755586457547,23.71,-32.82,-50.37,815,769,828,871,863,34.48275862068966,-0.397,-0.493,0.771
70797,1755586457576,23.61,-32.88,-50.45,812,769,820,873,878,33.333333333333336,-0.4,-0.492,0.772
70826,1755586457606,23.58,-32.89,-50.49,813,768,813,874,870,34.48275862068966,-0.404,-0.496,0.777
70856,1755586457635,23.61,-32.9,-50.5,814,769,817,869,876,33.333333333333336,-0.402,-0.496,0.774
70885,1755586457665,23.54,-32.95,-50.53,814,764,823,869,882,34.48275862068966,-0.396,-0.497,0.772
70915,1755586457694,23.48,-33.02,-50.61,809,762,817,872,878,33.333333333333336,-0.394,-0.5,0.777
70944,1755586457724,23.44,-32.98,-50.65,813,773,818,875,883,34.48275862068966,-0.395,-0.502,0.781
70974,1755586457754,23.44,-32.92,-50.67,817,776,821,874,875,33.333333333333336,-0.397,-0.501,0.777
71004,1755586457783,23.4,-32.96,-50.69,810,771,811,867,871,33.333333333333336,-0.396,-0.497,0.773
71033,1755586457813,23.31,-33.06,-50.77,812,763,820,869,879,34.48275862068966,-0.391,-0.5,0.777
71063,1755586457842,23.29,-33.09,-50.81,816,765,813,869,876,33.333333333333336,-0.391,-0.504,0.783
71092,1755586457872,23.3,-33.04,-50.83,814,760,829,860,876,34.48275862068966,-0.389,-0.502,0.781
71122,1755586457901,23.26,-33.05,-50.9,808,774,821,869,869,33.333333333333336,-0.388,-0.499,0.775
71151,1755586457931,23.16,-33.1,-50.99,814,774,802,867,872,34.48275862068966,-0.391,-0.5,0.775
71181,1755586457960,23.1,-33.12,-51.05,814,769,824,865,881,33.333333333333336,-0.393,-0.504,0.779
71210,1755586457990,23.1,-33.08,-51.04,817,764,815,863,868,34.48275862068966,-0.39,-0.506,0.78
71240,1755586458020,23.11,-33.08,-51.07,814,768,827,863,882,33.333333333333336,-0.385,-0.505,0.778
71269,1755586458050,23.08,-33.07,-51.13,808,764,819,869,870,34.48275862068966,-0.385,-0.506,0.777
71289,1755586458069,23.04,-33.07,-51.17,808,762,813,871,875,50.0,-0.388,-0.504,0.776
71319,1755586458099,23.02,-33.08,-51.19,814,775,823,868,875,33.333333333333336,-0.389,-0.503,0.778
71348,1755586458128,23.03,-33.07,-51.2,818,775,812,865,864,34.48275862068966,-0.387,-0.505,0.78
71378,1755586458158,23.01,-33.06,-51.22,807,774,818,867,871,33.333333333333336,-0.384,-0.506,0.777
71408,1755586458187,22.96,-33.06,-51.25,819,769,832,860,873,33.333333333333336,-0.386,-0.506,0.776
71437,1755586458217,22.89,-33.09,-51.27,816,772,829,863,870,34.48275862068966,-0.387,-0.503,0.777
71466,1755586458246,22.92,-33.11,-51.28,814,768,820,881,874,34.48275862068966,-0.388,-0.502,0.778
71496,1755586458275,22.89,-33.12,-51.28,811,772,817,872,877,33.333333333333336,-0.384,-0.504,0.779
71525,1755586458305,22.87,-33.16,-51.29,811,768,818,873,873,34.48275862068966,-0.379,-0.509,0.781
71555,1755586458334,22.87,-33.13,-51.3,810,765,815,878,866,33.333333333333336,-0.378,-0.509,0.78
71584,1755586458364,22.84,-33.15,-51.33,813,759,817,868,866,34.48275862068966,-0.379,-0.503,0.776
71614,1755586458394,22.81,-33.21,-51.38,807,766,820,868,873,33.333333333333336,-0.383,-0.503,0.777
71644,1755586458424,22.77,-33.27,-51.42,816,766,823,872,872,33.333333333333336,-0.383,-0.506,0.78
71673,1755586458453,22.79,-33.25,-51.42,814,779,833,869,876,34.48275862068966,-0.38,-0.51,0.784
71703,1755586458483,22.83,-33.21,-51.42,807,777,820,877,866,33.333333333333336,-0.378,-0.507,0.78
71732,1755586458512,22.78,-33.24,-51.48,814,766,830,868,875,34.48275862068966,-0.38,-0.502,0.774
71762,1755586458542,22.78,-33.31,-51.53,812,769,817,871,873,33.333333333333336,-0.385,-0.506,0.776
71791,1755586458572,22.8,-33.3,-51.5,816,763,816,873,880,34.48275862068966,-0.385,-0.51,0.779
71821,1755586458601,22.87,-33.29,-51.5,812,766,827,875,873,33.333333333333336,-0.378,-0.511,0.781
71851,1755586458631,22.9,-33.28,-51.57,814,769,815,873,871,33.333333333333336,-0.375,-0.506,0.777
71880,1755586458660,22.88,-33.3,-51.67,814,770,825,862,867,34.48275862068966,-0.379,-0.511,0.777
71910,1755586458690,22.89,-33.31,-51.7,816,774,818,869,874,33.333333333333336,-0.385,-0.514,0.779
71930,1755586458710,22.91,-33.3,-51.68,828,768,822,875,876,50.0,-0.383,-0.516,0.779
71959,1755586458739,22.9,-33.21,-51.68,819,768,823,860,874,34.48275862068966,-0.378,-0.512,0.778
71989,1755586458769,22.97,-33.07,-51.7,810,766,825,864,876,33.333333333333336,-0.379,-0.511,0.783
72019,1755586458798,22.96,-32.84,-51.68,815,765,816,874,873,33.333333333333336,-0.383,-0.512,0.787
72048,1755586458828,22.98,-32.59,-51.65,813,777,818,858,874,34.48275862068966,-0.385,-0.508,0.786
72078,1755586458858,22.95,-32.48,-51.64,813,760,822,867,873,33.333333333333336,-0.384,-0.504,0.777
72107,1755586458887,22.9,-32.4,-51.6,815,765,830,877,871,34.48275862068966,-0.386,-0.504,0.778
72137,1755586458917,22.96,-32.27,-51.54,810,762,813,872,870,33.333333333333336,-0.387,-0.501,0.784
72167,1755586458947,22.96,-32.18,-51.52,813,767,809,875,868,33.333333333333336,-0.386,-0.496,0.782
72197,1755586458976,23.01,-32.09,-51.49,811,770,819,872,875,33.333333333333336,-0.387,-0.496,0.784
72226,1755586459006,22.99,-32.04,-51.5,814,769,820,860,871,34.48275862068966,-0.385,-0.493,0.782
72256,1755586459036,22.91,-31.98,-51.52,814,770,818,871,874,33.333333333333336,-0.385,-0.493,0.786
72285,1755586459065,22.88,-31.87,-51.54,808,775,820,869,872,34.48275862068966,-0.385,-0.487,0.785
72315,1755586459095,22.85,-31.82,-51.57,818,774,832,864,875,33.333333333333336,-0.385,-0.487,0.787
72344,1755586459124,22.79,-31.73,-51.59,811,770,818,864,869,34.48275862068966,-0.387,-0.488,0.789
72374,1755586459154,22.76,-31.69,-51.61,812,774,818,869,871,33.333333333333336,-0.384,-0.485,0.788
72404,1755586459183,22.78,-31.63,-51.61,817,764,812,869,868,33.333333333333336,-0.384,-0.483,0.79
72433,1755586459213,22.77,-31.52,-51.61,806,773,816,872,872,34.48275862068966,-0.386,-0.482,0.794
72462,1755586459242,22.64,-31.31,-51.65,812,766,816,863,864,34.48275862068966,-0.386,-0.481,0.794
72492,1755586459272,22.55,-31.22,-51.68,813,772,819,867,868,33.333333333333336,-0.385,-0.48,0.792
72521,1755586459301,22.53,-31.14,-51.68,817,774,823,871,870,34.48275862068966,-0.386,-0.477,0.793
72551,1755586459330,22.44,-31.09,-51.7,809,768,823,865,865,33.333333333333336,-0.383,-0.474,0.794
72580,1755586459360,22.44,-31.03,-51.7,814,770,821,870,872,34.48275862068966,-0.383,-0.473,0.797
72610,1755586459389,22.36,-31.0,-51.73,812,784,819,859,877,33.333333333333336,-0.38,-0.47,0.796
72639,1755586459419,22.31,-31.04,-51.77,815,768,825,873,873,34.48275862068966,-0.378,-0.47,0.796
72669,1755586459449,22.34,-30.95,-51.72,816,762,817,869,874,33.333333333333336,-0.382,-0.473,0.805
72698,1755586459478,22.45,-30.69,-51.6,813,762,822,870,869,34.48275862068966,-0.383,-0.472,0.809
72728,1755586459508,22.51,-30.59,-51.55,814,768,817,873,873,33.333333333333336,-0.38,-0.466,0.799
72757,1755586459537,22.46,-30.63,-51.58,814,770,832,872,881,34.48275862068966,-0.377,-0.464,0.799
72787,1755586459567,22.41,-30.65,-51.61,816,768,822,873,873,33.333333333333336,-0.381,-0.464,0.804
72817,1755586459596,22.34,-30.63,-51.62,814,768,813,872,875,33.333333333333336,-0.381,-0.465,0.803
72846,1755586459626,22.35,-30.64,-51.63,814,768,813,871,875,34.48275862068966,-0.381,-0.465,0.802
72876,1755586459656,22.26,-30.67,-51.66,810,770,819,863,866,33.333333333333336,-0.378,-0.462,0.802
72905,1755586459685,22.23,-30.65,-51.7,808,769,823,860,870,34.48275862068966,-0.377,-0.463,0.808
72935,1755586459714,22.24,-30.59,-51.73,811,771,811,867,870,33.333333333333336,-0.377,-0.465,0.81
72964,1755586459744,22.22,-30.52,-51.75,814,766,822,868,876,34.48275862068966,-0.378,-0.462,0.804
72994,1755586459773,22.16,-30.59,-51.81,811,773,820,869,867,33.333333333333336,-0.378,-0.46,0.798
73023,1755586459803,22.15,-30.65,-51.84,812,765,820,871,876,34.48275862068966,-0.381,-0.464,0.805
73053,1755586459832,22.17,-30.6,-51.82,814,771,813,874,877,33.333333333333336,-0.378,-0.465,0.81
73082,1755586459862,22.21,-30.57,-51.83,814,775,813,863,872,34.48275862068966,-0.374,-0.462,0.807
73111,1755586459891,22.17,-30.55,-51.88,818,768,816,868,875,34.48275862068966,-0.374,-0.461,0.804
73141,1755586459921,22.12,-30.62,-51.93,810,773,822,867,865,33.333333333333336,-0.375,-0.461,0.803
73170,1755586459951,22.12,-30.66,-51.94,805,767,820,864,872,34.48275862068966,-0.379,-0.465,0.807
73200,1755586459980,22.13,-30.59,-51.91,817,772,822,877,869,33.333333333333336,-0.379,-0.465,0.809
73230,1755586460009,22.14,-30.6,-51.94,810,768,819,866,874,33.333333333333336,-0.374,-0.461,0.805
73259,1755586460039,22.08,-30.63,-51.98,814,758,812,866,865,34.48275862068966,-0.376,-0.465,0.808
73289,1755586460069,22.11,-30.63,-51.97,811,775,821,868,885,33.333333333333336,-0.377,-0.468,0.811
73318,1755586460098,22.11,-30.58,-51.96,811,776,796,871,873,34.48275862068966,-0.375,-0.466,0.808
73348,1755586460128,22.12,-30.55,-51.98,811,765,824,874,879,33.333333333333336,-0.375,-0.463,0.807
73378,1755586460157,22.09,-30.54,-52.01,813,769,830,863,872,33.333333333333336,-0.377,-0.46,0.805
73407,1755586460187,22.07,-30.58,-52.04,814,773,826,867,870,34.48275862068966,-0.378,-0.464,0.806
73437,1755586460216,22.06,-30.54,-52.02,810,769,819,871,871,33.333333333333336,-0.378,-0.468,0.809
73466,1755586460246,22.07,-30.48,-52.0,813,765,815,868,872,34.48275862068966,-0.376,-0.465,0.807
73495,1755586460275,22.08,-30.48,-52.02,808,767,814,870,876,34.48275862068966,-0.375,-0.461,0.804
73525,1755586460304,22.04,-30.5,-52.06,808,768,823,866,868,33.333333333333336,-0.376,-0.462,0.805
73554,1755586460334,22.02,-30.5,-52.06,826,769,822,868,865,34.48275862068966,-0.377,-0.467,0.808
73584,1755586460363,22.07,-30.43,-52.04,809,772,821,860,874,33.333333333333336,-0.376,-0.466,0.809
73613,1755586460393,22.05,-30.41,-52.07,812,768,821,870,867,34.48275862068966,-0.372,-0.458,0.805
73643,1755586460423,22.03,-30.45,-52.15,815,776,832,875,871,33.333333333333336,-0.375,-0.459,0.805
73672,1755586460452,22.05,-30.43,-52.15,817,766,821,869,876,34.48275862068966,-0.378,-0.467,0.812
73702,1755586460481,22.1,-30.3,-52.11,815,786,821,874,875,33.333333333333336,-0.378,-0.467,0.811
73731,1755586460511,22.07,-30.31,-52.12,811,773,818,874,868,34.48275862068966,-0.374,-0.459,0.804
73761,1755586460540,22.02,-30.39,-52.19,812,769,817,870,875,33.333333333333336,-0.376,-0.461,0.809
73790,1755586460570,22.04,-30.35,-52.18,827,773,816,870,868,34.48275862068966,-0.378,-0.468,0.814
73820,1755586460600,22.08,-30.27,-52.15,814,776,816,870,867,33.333333333333336,-0.375,-0.467,0.812
73849,1755586460629,22.07,-30.28,-52.19,810,767,818,875,871,34.48275862068966,-0.373,-0.46,0.804
73879,1755586460659,22.04,-30.31,-52.23,816,768,818,872,872,33.333333333333336,-0.377,-0.461,0.806
73909,1755586460689,22.06,-30.29,-52.21,816,778,811,868,872,33.333333333333336,-0.38,-0.466,0.812
73938,1755586460718,22.12,-30.18,-52.16,813,774,824,866,867,34.48275862068966,-0.377,-0.466,0.813
73968,1755586460748,22.13,-30.11,-52.15,809,762,822,870,864,33.333333333333336,-0.371,-0.46,0.807
73997,1755586460777,22.1,-30.18,-52.21,817,768,826,864,874,34.48275862068966,-0.373,-0.458,0.802
74027,1755586460807,22.06,-30.21,-52.23,811,777,832,869,869,33.333333333333336,-0.378,-0.461,0.808
74056,1755586460836,22.12,-30.16,-52.21,812,765,829,874,876,34.48275862068966,-0.378,-0.463,0.811
74086,1755586460866,22.11,-30.15,-52.23,811,777,829,874,879,33.333333333333336,-0.374,-0.46,0.804
74115,1755586460896,22.06,-30.23,-52.29,811,766,828,871,870,34.48275862068966,-0.374,-0.459,0.801
74145,1755586460925,22.02,-30.28,-52.33,807,771,820,871,877,33.333333333333336,-0.377,-0.46,0.809
74175,1755586460954,22.08,-30.26,-52.34,812,769,812,866,868,33.333333333333336,-0.377,-0.462,0.807
74204,1755586460984,22.05,-30.24,-52.34,812,771,815,867,874,34.48275862068966,-0.375,-0.46,0.802
74234,1755586461013,22.05,-30.27,-52.37,814,776,826,872,869,33.333333333333336,-0.376,-0.461,0.805
74263,1755586461043,22.03,-30.26,-52.37,810,763,816,871,865,34.48275862068966,-0.377,-0.46,0.807
74293,1755586461073,22.04,-30.23,-52.37,809,761,815,871,872,33.333333333333336,-0.376,-0.46,0.808
74322,1755586461102,22.0,-30.23,-52.39,809,768,818,871,872,34.48275862068966,-0.373,-0.461,0.805
74352,1755586461132,22.01,-30.23,-52.41,808,768,818,871,872,33.333333333333336,-0.372,-0.463,0.807
74381,1755586461161,22.0,-30.21,-52.42,813,767,815,869,863,34.48275862068966,-0.373,-0.464,0.808
74411,1755586461190,22.02,-30.17,-52.43,812,765,824,866,874,33.333333333333336,-0.374,-0.461,0.807
74440,1755586461220,22.01,-30.17,-52.45,815,773,817,866,867,34.48275862068966,-0.375,-0.46,0.805
74470,1755586461250,21.96,-30.2,-52.47,809,765,820,870,867,33.333333333333336,-0.373,-0.461,0.805
74499,1755586461279,21.97,-30.2,-52.47,815,764,826,867,862,34.48275862068966,-0.372,-0.464,0.807
74529,1755586461308,21.96,-30.18,-52.49,820,755,822,875,879,33.333333333333336,-0.371,-0.461,0.808
74558,1755586461338,21.97,-30.18,-52.54,814,770,812,876,871,34.48275862068966,-0.371,-0.459,0.805
74588,1755586461368,21.95,-30.23,-52.57,820,773,816,858,875,33.333333333333336,-0.374,-0.461,0.804
74618,1755586461397,21.91,-30.26,-52.58,814,773,817,871,876,33.333333333333336,-0.369,-0.463,0.806
74647,1755586461427,21.91,-30.26,-52.58,807,785,812,867,882,34.48275862068966,-0.368,-0.466,0.808
74677,1755586461456,21.91,-30.22,-52.59,810,768,823,878,865,33.333333333333336,-0.365,-0.463,0.806
74706,1755586461486,21.88,-30.27,-52.65,812,772,823,863,873,34.48275862068966,-0.367,-0.461,0.805
74736,1755586461516,21.86,-30.3,-52.69,810,770,816,868,876,33.333333333333336,-0.372,-0.462,0.806
74766,1755586461545,21.88,-30.3,-52.69,810,775,814,875,876,33.333333333333336,-0.373,-0.465,0.807
74795,1755586461575,21.89,-30.3,-52.69,809,779,815,867,868,34.48275862068966,-0.372,-0.465,0.807
74824,1755586461604,21.84,-30.3,-52.71,810,773,822,871,879,34.48275862068966,-0.37,-0.465,0.809
74854,1755586461634,21.85,-30.26,-52.73,813,762,822,862,870,33.333333333333336,-0.37,-0.464,0.808
74883,1755586461663,21.85,-30.28,-52.76,809,768,815,868,873,34.48275862068966,-0.373,-0.463,0.806
74913,1755586461693,21.83,-30.33,-52.77,813,771,817,866,876,33.333333333333336,-0.373,-0.464,0.807
74942,1755586461722,21.83,-30.32,-52.76,817,768,823,864,871,34.48275862068966,-0.373,-0.467,0.81
74972,1755586461752,21.85,-30.28,-52.76,812,777,819,861,875,33.333333333333336,-0.371,-0.467,0.81
75001,1755586461781,21.84,-30.28,-52.79,812,768,818,866,873,34.48275862068966,-0.369,-0.463,0.807
75031,1755586461811,21.85,-30.29,-52.83,811,766,815,873,864,33.333333333333336,-0.37,-0.462,0.808
75060,1755586461840,21.8,-30.28,-52.88,809,766,811,876,874,34.48275862068966,-0.374,-0.465,0.809
75090,1755586461870,21.85,-30.28,-52.87,812,773,815,871,872,33.333333333333336,-0.374,-0.466,0.809
75119,1755586461899,21.87,-30.26,-52.88,802,772,829,863,878,34.48275862068966,-0.369,-0.465,0.808
75149,1755586461929,21.84,-30.26,-52.94,815,771,819,870,872,33.333333333333336,-0.37,-0.463,0.808
75178,1755586461958,21.87,-30.27,-52.97,806,777,835,863,874,34.48275862068966,-0.373,-0.464,0.808
75208,1755586461988,21.86,-30.26,-52.98,812,780,822,870,873,33.333333333333336,-0.374,-0.465,0.807
75237,1755586462017,21.88,-30.28,-53.0,812,772,820,868,873,34.48275862068966,-0.373,-0.467,0.807
75267,1755586462046,21.86,-30.29,-53.01,816,766,808,868,875,33.333333333333336,-0.371,-0.467,0.808
75296,1755586462076,21.88,-30.27,-53.03,804,771,804,869,871,34.48275862068966,-0.37,-0.466,0.81
75326,1755586462105,21.88,-30.25,-53.06,811,782,826,864,866,33.333333333333336,-0.371,-0.465,0.807
75355,1755586462135,21.87,-30.27,-53.09,811,769,820,878,863,34.48275862068966,-0.373,-0.465,0.806
75385,1755586462164,21.88,-30.28,-53.09,815,768,815,875,878,33.333333333333336,-0.374,-0.467,0.808
75414,1755586462194,21.89,-30.26,-53.09,815,767,824,872,871,34.48275862068966,-0.373,-0.469,0.81
75444,1755586462224,21.91,-30.22,-53.1,812,775,824,868,871,33.333333333333336,-0.372,-0.469,0.808
75473,1755586462253,21.9,-30.22,-53.11,811,767,815,863,872,34.48275862068966,-0.372,-0.465,0.804
75503,1755586462283,21.88,-30.25,-53.13,811,772,819,871,872,33.333333333333336,-0.373,-0.464,0.805
75532,1755586462312,21.87,-30.26,-53.15,815,776,827,865,873,34.48275862068966,-0.374,-0.467,0.808
75562,1755586462342,21.88,-30.22,-53.14,813,770,819,868,874,33.333333333333336,-0.371,-0.468,0.808
75592,1755586462371,21.89,-30.19,-53.14,814,777,818,869,877,33.333333333333336,-0.37,-0.465,0.805
75621,1755586462401,21.86,-30.21,-53.18,809,776,816,870,876,34.48275862068966,-0.371,-0.464,0.805
75651,1755586462431,21.88,-30.18,-53.18,812,767,823,860,886,33.333333333333336,-0.374,-0.465,0.808
75680,1755586462460,21.89,-30.2,-53.18,814,767,824,866,882,34.48275862068966,-0.372,-0.466,0.806
75710,1755586462490,21.88,-30.2,-53.21,814,762,810,874,873,33.333333333333336,-0.369,-0.465,0.807
75740,1755586462519,21.87,-30.18,-53.25,813,770,816,868,869,33.333333333333336,-0.37,-0.464,0.807
75769,1755586462549,21.87,-30.22,-53.28,809,772,828,863,877,34.48275862068966,-0.373,-0.464,0.803
75799,1755586462579,21.85,-30.26,-53.3,815,780,823,868,876,33.333333333333336,-0.374,-0.466,0.806
75828,1755586462608,21.86,-30.24,-53.32,813,764,815,869,878,34.48275862068966,-0.37,-0.468,0.811
75858,1755586462637,21.88,-30.19,-53.33,814,771,837,870,874,33.333333333333336,-0.368,-0.467,0.809
75887,1755586462667,21.87,-30.21,-53.38,810,769,815,863,867,34.48275862068966,-0.37,-0.463,0.803
75917,1755586462697,21.83,-30.26,-53.43,817,765,816,870,874,33.333333333333336,-0.373,-0.465,0.805
75946,1755586462726,21.84,-30.27,-53.44,815,772,819,867,867,34.48275862068966,-0.374,-0.468,0.808
75976,1755586462756,21.85,-30.24,-53.44,819,772,832,873,869,33.333333333333336,-0.371,-0.467,0.808
76005,1755586462785,21.82,-30.27,-53.49,805,764,821,864,876,34.48275862068966,-0.368,-0.466,0.806
76035,1755586462815,21.77,-30.32,-53.54,812,763,820,868,877,33.333333333333336,-0.371,-0.467,0.809
76064,1755586462844,21.74,-30.38,-53.59,814,773,819,867,868,34.48275862068966,-0.372,-0.467,0.807
76094,1755586462874,21.73,-30.45,-53.61,814,770,823,866,867,33.333333333333336,-0.371,-0.469,0.806
76123,1755586462903,21.71,-30.46,-53.63,812,767,821,868,871,34.48275862068966,-0.37,-0.47,0.809
76153,1755586462932,21.69,-30.47,-53.65,812,768,821,867,877,33.333333333333336,-0.368,-0.47,0.81
76182,1755586462962,21.7,-30.45,-53.66,815,776,813,861,864,34.48275862068966,-0.369,-0.47,0.809
76212,1755586462992,21.7,-30.44,-53.67,812,769,821,867,873,33.333333333333336,-0.369,-0.471,0.808
76241,1755586463021,21.72,-30.42,-53.67,812,776,825,867,874,34.48275862068966,-0.368,-0.471,0.808
76271,1755586463051,21.72,-30.42,-53.69,812,776,822,876,873,33.333333333333336,-0.367,-0.469,0.806
76301,1755586463081,21.67,-30.45,-53.72,808,771,828,864,869,33.333333333333336,-0.369,-0.47,0.806
76330,1755586463110,21.66,-30.44,-53.73,811,770,808,866,871,34.48275862068966,-0.369,-0.472,0.808
76360,1755586463140,21.73,-30.39,-53.72,819,771,832,863,874,33.333333333333336,-0.369,-0.473,0.81
76389,1755586463169,21.71,-30.35,-53.74,824,770,820,871,870,34.48275862068966,-0.366,-0.469,0.806
76419,1755586463199,21.67,-30.4,-53.8,815,767,811,877,878,33.333333333333336,-0.367,-0.467,0.803
76449,1755586463229,21.67,-30.46,-53.83,813,768,821,874,866,33.333333333333336,-0.37,-0.47,0.809
76469,1755586463248,21.68,-30.45,-53.84,808,775,821,868,866,50.0,-0.371,-0.472,0.811
76498,1755586463278,21.7,-30.42,-53.84,808,776,820,869,869,34.48275862068966,-0.369,-0.47,0.806
76528,1755586463308,21.67,-30.46,-53.87,817,761,815,871,867,33.333333333333336,-0.367,-0.468,0.805
76557,1755586463338,21.64,-30.49,-53.92,819,763,824,863,868,34.48275862068966,-0.367,-0.471,0.81
76587,1755586463367,21.66,-30.45,-53.92,821,769,822,864,867,33.333333333333336,-0.368,-0.472,0.811
76617,1755586463397,21.67,-30.45,-53.94,817,765,827,876,875,33.333333333333336,-0.366,-0.471,0.807
76647,1755586463427,21.67,-30.48,-53.97,818,781,819,869,893,33.333333333333336,-0.366,-0.47,0.806
76676,1755586463456,21.65,-30.48,-53.99,812,775,821,881,868,34.48275862068966,-0.367,-0.471,0.809
76706,1755586463485,21.66,-30.47,-54.01,814,775,817,871,875,33.333333333333336,-0.367,-0.473,0.809
76735,1755586463515,21.65,-30.46,-54.03,810,762,815,876,872,34.48275862068966,-0.366,-0.471,0.807
76765,1755586463545,21.66,-30.48,-54.06,815,763,822,863,883,33.333333333333336,-0.367,-0.472,0.808
76795,1755586463575,21.66,-30.46,-54.08,817,769,829,872,863,33.333333333333336,-0.367,-0.471,0.808
76824,1755586463604,21.63,-30.46,-54.1,813,765,822,877,877,34.48275862068966,-0.366,-0.47,0.807
76854,1755586463633,21.66,-30.46,-54.12,814,771,817,868,879,33.333333333333336,-0.367,-0.471,0.805
76883,1755586463663,21.66,-30.47,-54.14,814,768,815,887,879,34.48275862068966,-0.367,-0.471,0.804
76913,1755586463692,21.63,-30.5,-54.17,807,773,819,872,877,33.333333333333336,-0.368,-0.472,0.807
76942,1755586463722,21.62,-30.5,-54.2,816,769,827,869,877,34.48275862068966,-0.367,-0.472,0.808
76972,1755586463752,21.64,-30.48,-54.21,814,775,809,877,871,33.333333333333336,-0.368,-0.474,0.808
77001,1755586463781,21.67,-30.47,-54.2,815,765,813,882,873,34.48275862068966,-0.369,-0.473,0.807
77031,1755586463811,21.65,-30.48,-54.21,810,768,825,865,870,33.333333333333336,-0.369,-0.47,0.804
77060,1755586463840,21.64,-30.51,-54.22,813,777,824,860,884,34.48275862068966,-0.37,-0.472,0.805
77090,1755586463870,21.66,-30.52,-54.21,814,765,821,870,873,33.333333333333336,-0.371,-0.475,0.81
77119,1755586463899,21.66,-30.43,-54.18,814,763,821,870,909,34.48275862068966,-0.369,-0.475,0.811
77149,1755586463929,21.69,-30.37,-54.18,814,766,823,865,876,33.333333333333336,-0.366,-0.471,0.808
77179,1755586463959,21.66,-30.36,-54.19,812,777,811,864,870,33.333333333333336,-0.367,-0.47,0.806
77209,1755586463988,21.63,-30.39,-54.19,805,769,816,869,874,33.333333333333336,-0.368,-0.472,0.808
77238,1755586464018,21.64,-30.38,-54.18,805,767,821,864,872,34.48275862068966,-0.366,-0.47,0.811
77267,1755586464047,21.64,-30.36,-54.2,816,777,818,857,870,34.48275862068966,-0.365,-0.467,0.808
77297,1755586464077,21.61,-30.41,-54.25,817,776,823,871,868,33.333333333333336,-0.367,-0.469,0.807
77317,1755586464097,21.6,-30.45,-54.26,816,774,818,869,876,50.0,-0.371,-0.472,0.809
77346,1755586464126,21.62,-30.0,-54.25,812,768,814,870,875,34.48275862068966,-0.368,-0.471,0.811
77376,1755586464156,21.64,-29.99,-54.28,816,759,811,869,870,33.333333333333336,-0.364,-0.47,0.811
77405,1755586464185,21.62,-30.01,-54.32,809,769,812,874,880,34.48275862068966,-0.365,-0.47,0.809
77435,1755586464215,21.63,-30.03,-54.36,811,766,821,860,875,33.333333333333336,-0.368,-0.471,0.809
77465,1755586464244,21.63,-30.03,-54.38,807,766,822,873,873,33.333333333333336,-0.37,-0.47,0.808
77494,1755586464274,21.63,-30.04,-54.4,810,771,817,865,872,34.48275862068966,-0.368,-0.469,0.808
77524,1755586464304,21.6,-30.04,-54.44,816,780,810,870,869,33.333333333333336,-0.367,-0.47,0.809
77553,1755586464333,21.62,-30.04,-54.47,810,764,815,861,867,34.48275862068966,-0.367,-0.471,0.809
77583,1755586464363,21.62,-30.04,-54.48,811,766,824,872,879,33.333333333333336,-0.368,-0.471,0.808
77612,1755586464392,21.61,-30.04,-54.49,815,767,817,869,873,34.48275862068966,-0.366,-0.471,0.807
77642,1755586464422,21.59,-30.01,-54.51,814,771,819,874,871,33.333333333333336,-0.365,-0.471,0.808
77671,1755586464452,21.59,-30.04,-54.53,813,763,822,859,873,34.48275862068966,-0.369,-0.473,0.811
77691,1755586464471,21.59,-30.02,-54.54,808,768,822,866,871,50.0,-0.366,-0.469,0.81
77721,1755586464501,21.59,-29.99,-54.56,808,775,818,873,865,33.333333333333336,-0.367,-0.468,0.807
77751,1755586464530,21.61,-30.01,-54.58,814,767,823,871,872,33.333333333333336,-0.37,-0.47,0.808
77780,1755586464560,21.63,-30.03,-54.6,805,766,823,867,877,34.48275862068966,-0.369,-0.47,0.809
77810,1755586464590,21.61,-29.99,-54.62,815,764,816,875,880,33.333333333333336,-0.367,-0.468,0.808
77839,1755586464619,21.59,-29.99,-54.64,814,767,822,885,871,34.48275862068966,-0.368,-0.469,0.807
77869,1755586464649,21.63,-30.04,-54.67,814,766,807,867,871,33.333333333333336,-0.37,-0.47,0.808
77898,1755586464678,21.64,-30.07,-54.7,810,763,820,885,868,34.48275862068966,-0.37,-0.47,0.808
77928,1755586464708,21.6,-30.07,-54.71,819,766,816,872,876,33.333333333333336,-0.368,-0.469,0.807
77957,1755586464737,21.62,-30.09,-54.73,816,773,823,869,894,34.48275862068966,-0.371,-0.469,0.807
77987,1755586464767,21.64,-30.12,-54.75,814,774,824,866,892,33.333333333333336,-0.372,-0.47,0.807
78016,1755586464797,21.61,-30.11,-54.76,817,770,819,872,866,34.48275862068966,-0.369,-0.473,0.81
78046,1755586464826,21.62,-30.06,-54.76,806,766,817,873,879,33.333333333333336,-0.367,-0.475,0.812
78076,1755586464856,21.65,-30.04,-54.79,814,770,817,875,870,33.333333333333336,-0.365,-0.469,0.807
78106,1755586464885,21.58,-30.07,-54.84,812,773,819,872,867,33.333333333333336,-0.368,-0.466,0.804
78135,1755586464915,21.58,-30.09,-54.84,813,771,827,886,877,34.48275862068966,-0.371,-0.468,0.808
78165,1755586464944,21.61,-30.07,-54.83,810,770,824,871,865,33.333333333333336,-0.367,-0.469,0.809
78194,1755586464974,21.59,-30.05,-54.86,815,765,817,865,880,34.48275862068966,-0.365,-0.471,0.808
78224,1755586465004,21.6,-30.06,-54.89,813,762,817,870,871,33.333333333333336,-0.367,-0.469,0.805
78253,1755586465033,21.58,-30.11,-54.91,809,769,812,872,872,34.48275862068966,-0.368,-0.463,0.801
78283,1755586465063,21.51,-30.18,-54.96,815,765,829,863,874,33.333333333333336,-0.368,-0.465,0.806
78313,1755586465092,21.54,-30.15,-54.95,813,764,814,859,875,33.333333333333336,-0.367,-0.474,0.815
78342,1755586465122,21.57,-30.07,-54.93,816,775,812,863,872,34.48275862068966,-0.362,-0.474,0.811
78372,1755586465151,21.59,-30.08,-54.97,813,777,820,872,874,33.333333333333336,-0.361,-0.468,0.804
78401,1755586465181,21.55,-30.15,-55.04,814,775,823,856,879,34.48275862068966,-0.367,-0.464,0.802
78431,1755586465211,21.52,-30.19,-55.05,810,771,825,872,871,33.333333333333336,-0.373,-0.472,0.809
78460,1755586465240,21.6,-30.12,-55.0,814,772,812,874,879,34.48275862068966,-0.368,-0.475,0.813
78490,1755586465269,21.65,-30.08,-55.02,813,757,817,865,872,33.333333333333336,-0.361,-0.468,0.805
78519,1755586465299,21.59,-30.15,-55.13,808,767,827,862,874,34.48275862068966,-0.363,-0.464,0.803
78549,1755586465329,21.57,-30.16,-55.16,816,772,818,864,874,33.333333333333336,-0.372,-0.471,0.809
78578,1755586465359,21.68,-30.11,-55.11,810,761,838,874,868,34.48275862068966,-0.371,-0.473,0.808
78599,1755586465379,21.7,-30.07,-55.11,814,776,817,870,871,47.61904761904762,-0.362,-0.469,0.802
78628,1755586465409,21.64,-30.1,-55.19,810,766,818,870,861,34.48275862068966,-0.363,-0.467,0.802
78658,1755586465437,21.67,-30.12,-55.22,811,766,814,867,870,33.333333333333336,-0.371,-0.47,0.806
78687,1755586465467,21.69,-30.12,-55.2,810,769,817,865,872,34.48275862068966,-0.371,-0.47,0.806
78717,1755586465496,21.71,-30.11,-55.21,812,770,817,872,861,33.333333333333336,-0.366,-0.469,0.806
78746,1755586465526,21.7,-30.14,-55.25,808,762,840,862,869,34.48275862068966,-0.363,-0.468,0.803
78776,1755586465555,21.68,-30.18,-55.3,814,771,820,881,868,33.333333333333336,-0.368,-0.468,0.805
78805,1755586465585,21.7,-30.2,-55.32,814,770,821,875,871,34.48275862068966,-0.372,-0.469,0.804
78835,1755586465615,21.71,-30.24,-55.35,808,776,830,870,874,33.333333333333336,-0.368,-0.469,0.805
78864,1755586465644,21.74,-30.25,-55.41,807,774,830,859,867,34.48275862068966,-0.363,-0.468,0.808
