timestamp_ms,recv_timestamp_ms,pitch,roll,yaw,flex1,flex2,flex3,flex4,flex5,sampling_hz,accel_x,accel_y,accel_z
85425,1755585168547,23.9,-92.54,-58.59,822,865,810,832,851,34.48275862068966,-0.397,-0.909,-0.045
85455,1755585168577,23.91,-92.5,-58.6,829,871,826,822,847,33.333333333333336,-0.397,-0.912,-0.043
85485,1755585168606,23.91,-92.49,-58.57,832,859,826,835,848,33.333333333333336,-0.397,-0.913,-0.045
85514,1755585168636,23.9,-92.55,-58.57,822,865,832,838,844,34.48275862068966,-0.396,-0.91,-0.044
85544,1755585168665,23.92,-92.52,-58.58,819,857,821,836,833,33.333333333333336,-0.398,-0.911,-0.044
85573,1755585168695,23.92,-92.5,-58.58,820,847,827,833,846,34.48275862068966,-0.396,-0.91,-0.047
85603,1755585168724,23.87,-92.55,-58.59,828,868,830,830,842,33.333333333333336,-0.397,-0.911,-0.048
85632,1755585168754,23.87,-92.56,-58.58,829,861,825,831,850,34.48275862068966,-0.398,-0.911,-0.043
85662,1755585168783,23.91,-92.53,-58.57,830,866,831,837,847,33.333333333333336,-0.397,-0.91,-0.041
85691,1755585168813,23.95,-92.54,-58.6,823,864,832,841,850,34.48275862068966,-0.397,-0.909,-0.041
85721,1755585168842,23.97,-92.51,-58.61,827,864,827,831,844,33.333333333333336,-0.398,-0.911,-0.045
85750,1755585168872,23.94,-92.51,-58.61,827,855,835,836,840,34.48275862068966,-0.397,-0.912,-0.046
85780,1755585168901,23.93,-92.51,-58.61,826,866,831,831,850,33.333333333333336,-0.397,-0.911,-0.043
85809,1755585168931,23.96,-92.52,-58.61,821,859,830,828,841,34.48275862068966,-0.398,-0.91,-0.041
85839,1755585168961,23.99,-92.46,-58.64,824,864,827,860,841,33.333333333333336,-0.4,-0.911,-0.042
85868,1755585168990,23.99,-92.42,-58.63,818,860,840,838,837,34.48275862068966,-0.399,-0.913,-0.045
85898,1755585169020,23.93,-92.45,-58.61,827,860,831,842,846,33.333333333333336,-0.396,-0.911,-0.05
85927,1755585169049,23.85,-92.51,-58.64,822,862,835,830,873,34.48275862068966,-0.394,-0.909,-0.044
85957,1755585169079,23.88,-92.48,-58.67,831,854,827,832,836,33.333333333333336,-0.396,-0.907,-0.036
85987,1755585169108,23.96,-92.4,-58.71,828,865,832,839,837,33.333333333333336,-0.397,-0.91,-0.041
86016,1755585169138,23.94,-92.38,-58.71,832,867,833,832,829,34.48275862068966,-0.395,-0.91,-0.049
86046,1755585169167,23.89,-92.52,-58.69,828,861,831,833,835,33.333333333333336,-0.397,-0.909,-0.043
86075,1755585169197,23.93,-92.45,-58.73,824,855,839,835,836,34.48275862068966,-0.397,-0.908,-0.035
86105,1755585169227,23.99,-92.31,-58.75,819,870,831,838,839,33.333333333333336,-0.396,-0.911,-0.039
86135,1755585169256,23.95,-92.41,-58.71,824,854,820,827,845,33.333333333333336,-0.396,-0.913,-0.049
86164,1755585169286,23.87,-92.57,-58.69,825,874,837,841,850,34.48275862068966,-0.397,-0.91,-0.044
86194,1755585169316,23.91,-92.43,-58.72,828,870,827,828,840,33.333333333333336,-0.4,-0.909,-0.035
86224,1755585169345,23.97,-92.29,-58.74,829,861,821,834,842,33.333333333333336,-0.399,-0.911,-0.041
86253,1755585169375,23.93,-92.47,-58.69,823,863,828,825,844,34.48275862068966,-0.398,-0.912,-0.051
86283,1755585169404,23.85,-92.61,-58.64,820,859,835,838,840,33.333333333333336,-0.397,-0.911,-0.046
86312,1755585169434,23.8,-92.5,-58.67,829,862,834,804,844,34.48275862068966,-0.394,-0.909,-0.04
86342,1755585169464,23.8,-92.51,-58.74,828,868,841,830,839,33.333333333333336,-0.398,-0.909,-0.043
86372,1755585169494,23.81,-92.59,-58.71,818,863,828,824,849,33.333333333333336,-0.4,-0.913,-0.046
86401,1755585169523,23.79,-92.63,-58.7,822,869,828,835,844,34.48275862068966,-0.398,-0.908,-0.04
86431,1755585169553,23.79,-92.57,-58.76,821,864,835,827,850,33.333333333333336,-0.398,-0.909,-0.042
86460,1755585169582,23.8,-92.59,-58.74,829,863,824,830,844,34.48275862068966,-0.4,-0.913,-0.049
86490,1755585169612,23.79,-92.72,-58.68,821,863,828,825,849,33.333333333333336,-0.399,-0.912,-0.044
86520,1755585169641,23.81,-92.66,-58.71,825,869,832,832,879,33.333333333333336,-0.396,-0.908,-0.04
86549,1755585169671,23.85,-92.6,-58.76,826,863,830,831,853,34.48275862068966,-0.4,-0.91,-0.046
86579,1755585169700,23.87,-92.68,-58.71,822,863,834,842,845,33.333333333333336,-0.402,-0.912,-0.049
86608,1755585169730,23.84,-92.78,-58.69,824,858,839,832,845,34.48275862068966,-0.398,-0.91,-0.048
86638,1755585169759,23.8,-92.74,-58.74,822,856,823,838,845,33.333333333333336,-0.396,-0.908,-0.047
86667,1755585169789,23.8,-92.73,-58.77,825,862,838,836,842,34.48275862068966,-0.399,-0.909,-0.046
86697,1755585169818,23.85,-92.79,-58.75,825,866,830,832,843,33.333333333333336,-0.4,-0.911,-0.044
86726,1755585169848,23.88,-92.78,-58.74,821,861,835,836,837,34.48275862068966,-0.397,-0.911,-0.046
86756,1755585169878,23.83,-92.79,-58.76,827,869,836,833,858,33.333333333333336,-0.396,-0.909,-0.052
86786,1755585169907,23.8,-92.89,-58.79,829,864,827,830,843,33.333333333333336,-0.399,-0.909,-0.048
86815,1755585169938,23.82,-92.82,-58.79,828,861,835,832,844,34.48275862068966,-0.399,-0.912,-0.045
86835,1755585169957,23.83,-92.79,-58.78,825,865,833,831,859,50.0,-0.396,-0.914,-0.05
86865,1755585169987,23.78,-92.87,-58.76,828,865,831,827,831,33.333333333333336,-0.395,-0.912,-0.051
86894,1755585170016,23.73,-92.92,-58.79,830,854,833,833,845,34.48275862068966,-0.398,-0.91,-0.049
86924,1755585170046,23.74,-92.88,-58.83,825,870,823,825,851,33.333333333333336,-0.4,-0.911,-0.046
86954,1755585170076,23.75,-92.84,-58.82,825,863,832,839,849,33.333333333333336,-0.395,-0.913,-0.048
86983,1755585170105,23.71,-92.95,-58.83,822,861,823,829,840,34.48275862068966,-0.394,-0.911,-0.05
87013,1755585170135,23.69,-92.95,-58.87,825,868,834,840,860,33.333333333333336,-0.395,-0.91,-0.051
87043,1755585170165,23.71,-92.95,-58.88,821,865,832,832,851,33.333333333333336,-0.397,-0.908,-0.05
87073,1755585170194,23.76,-92.94,-58.9,824,855,834,837,841,33.333333333333336,-0.398,-0.909,-0.048
87102,1755585170224,23.74,-92.96,-58.92,826,863,830,834,845,34.48275862068966,-0.396,-0.91,-0.05
87132,1755585170254,23.71,-92.97,-58.92,825,863,826,833,853,33.333333333333336,-0.396,-0.912,-0.052
87161,1755585170284,23.72,-92.99,-58.91,822,852,824,827,847,34.48275862068966,-0.396,-0.911,-0.048
87182,1755585170304,23.73,-93.0,-58.91,834,876,830,830,840,47.61904761904762,-0.396,-0.91,-0.048
87211,1755585170333,23.75,-93.01,-58.93,818,857,837,818,845,34.48275862068966,-0.396,-0.911,-0.051
87241,1755585170363,23.75,-93.02,-58.92,823,857,832,828,841,33.333333333333336,-0.396,-0.914,-0.052
87271,1755585170392,23.77,-93.01,-58.88,822,854,829,836,839,33.333333333333336,-0.395,-0.914,-0.051
87300,1755585170422,23.78,-92.98,-58.89,823,865,826,830,839,34.48275862068966,-0.395,-0.91,-0.052
87330,1755585170451,23.79,-93.01,-58.9,831,860,847,849,854,33.333333333333336,-0.399,-0.91,-0.053
87359,1755585170481,23.81,-93.01,-58.9,823,860,827,833,856,34.48275862068966,-0.4,-0.91,-0.052
87389,1755585170510,23.8,-93.01,-58.92,828,857,829,822,848,33.333333333333336,-0.396,-0.911,-0.052
87418,1755585170540,23.81,-93.02,-58.91,833,866,822,842,838,34.48275862068966,-0.395,-0.911,-0.052
87448,1755585170570,23.83,-93.0,-58.9,819,863,826,833,842,33.333333333333336,-0.396,-0.911,-0.053
87478,1755585170600,23.78,-93.03,-58.94,816,866,836,841,850,33.333333333333336,-0.397,-0.909,-0.056
87498,1755585170620,23.73,-93.1,-58.97,825,863,835,830,838,50.0,-0.398,-0.909,-0.058
87528,1755585170650,23.71,-93.12,-58.96,825,860,835,831,841,33.333333333333336,-0.398,-0.91,-0.054
87557,1755585170679,23.69,-93.12,-58.98,827,855,840,843,852,34.48275862068966,-0.396,-0.91,-0.052
87587,1755585170709,23.7,-93.1,-59.02,823,868,822,813,836,33.333333333333336,-0.398,-0.911,-0.052
87616,1755585170738,23.73,-93.07,-59.0,823,861,831,827,848,34.48275862068966,-0.397,-0.912,-0.054
87646,1755585170768,23.73,-93.05,-59.0,818,870,831,828,833,33.333333333333336,-0.395,-0.909,-0.054
87675,1755585170797,23.71,-93.09,-59.03,828,867,837,838,837,34.48275862068966,-0.395,-0.911,-0.053
87705,1755585170826,23.72,-93.08,-59.02,826,863,858,838,840,33.333333333333336,-0.396,-0.912,-0.052
87734,1755585170856,23.78,-93.05,-58.97,825,873,847,824,838,34.48275862068966,-0.396,-0.913,-0.05
87764,1755585170886,23.82,-93.02,-58.95,823,859,820,844,848,33.333333333333336,-0.394,-0.912,-0.051
87794,1755585170915,23.83,-93.04,-58.97,824,857,825,821,842,33.333333333333336,-0.396,-0.91,-0.052
87823,1755585170945,23.82,-93.08,-59.0,827,854,839,837,842,34.48275862068966,-0.399,-0.909,-0.053
87853,1755585170975,23.83,-93.07,-59.0,817,866,828,836,862,33.333333333333336,-0.401,-0.91,-0.051
87873,1755585170995,23.85,-93.06,-58.99,825,860,836,832,843,50.0,-0.398,-0.909,-0.048
87902,1755585171024,23.89,-93.05,-59.02,827,859,835,838,839,34.48275862068966,-0.395,-0.911,-0.048
87932,1755585171054,23.93,-93.03,-59.02,818,864,822,829,839,33.333333333333336,-0.397,-0.912,-0.052
87962,1755585171084,23.94,-93.06,-58.99,821,861,827,836,841,33.333333333333336,-0.399,-0.909,-0.054
87992,1755585171113,23.91,-93.08,-59.02,829,866,838,833,840,33.333333333333336,-0.396,-0.908,-0.052
88021,1755585171143,23.91,-93.02,-59.08,824,855,830,836,848,34.48275862068966,-0.396,-0.913,-0.049
88041,1755585171163,23.94,-93.0,-59.05,828,860,834,835,841,50.0,-0.397,-0.917,-0.05
88071,1755585171192,23.98,-93.02,-58.98,831,864,861,827,844,33.333333333333336,-0.395,-0.914,-0.052
88100,1755585171222,23.95,-93.04,-59.02,822,858,837,835,840,34.48275862068966,-0.395,-0.909,-0.051
88130,1755585171252,23.95,-93.01,-59.06,827,862,823,827,844,33.333333333333336,-0.399,-0.91,-0.05
88159,1755585171281,23.97,-93.0,-59.0,825,858,826,835,843,34.48275862068966,-0.397,-0.913,-0.051
88189,1755585171311,23.96,-93.05,-58.98,832,854,824,828,850,33.333333333333336,-0.394,-0.912,-0.051
88219,1755585171341,23.91,-93.06,-59.05,827,857,826,827,843,33.333333333333336,-0.394,-0.909,-0.052
88248,1755585171370,23.9,-93.02,-59.04,834,862,822,839,843,34.48275862068966,-0.4,-0.911,-0.05
88278,1755585171400,23.93,-93.03,-59.0,825,868,835,837,846,33.333333333333336,-0.398,-0.911,-0.049
88308,1755585171430,23.95,-93.03,-58.98,819,860,835,842,848,33.333333333333336,-0.395,-0.91,-0.049
88338,1755585171459,23.94,-93.01,-59.01,827,857,830,833,849,33.333333333333336,-0.394,-0.91,-0.051
88367,1755585171489,23.94,-93.03,-59.01,819,849,832,843,845,34.48275862068966,-0.398,-0.912,-0.05
88397,1755585171519,23.98,-93.02,-58.98,817,858,824,822,844,33.333333333333336,-0.397,-0.91,-0.05
88426,1755585171548,23.96,-93.07,-59.03,827,856,835,824,849,34.48275862068966,-0.397,-0.909,-0.05
88456,1755585171578,23.97,-93.04,-59.06,828,856,824,836,855,33.333333333333336,-0.399,-0.91,-0.05
88486,1755585171607,23.98,-93.04,-59.04,823,862,834,830,852,33.333333333333336,-0.397,-0.912,-0.05
88515,1755585171637,24.0,-93.07,-59.02,831,869,841,847,843,34.48275862068966,-0.396,-0.912,-0.049
88545,1755585171666,24.02,-93.02,-59.04,828,848,833,840,854,33.333333333333336,-0.397,-0.911,-0.051
88574,1755585171696,24.0,-93.0,-59.05,824,868,834,828,836,34.48275862068966,-0.398,-0.91,-0.054
88604,1755585171725,23.97,-93.05,-59.03,820,855,822,835,844,33.333333333333336,-0.399,-0.911,-0.052
88633,1755585171755,23.94,-93.07,-59.03,827,865,824,838,848,34.48275862068966,-0.396,-0.913,-0.05
88663,1755585171784,23.92,-93.01,-59.04,829,859,836,816,847,33.333333333333336,-0.396,-0.912,-0.049
88692,1755585171814,23.92,-92.99,-59.05,825,861,821,840,842,34.48275862068966,-0.399,-0.908,-0.051
88722,1755585171843,23.89,-93.04,-59.09,824,857,828,834,846,33.333333333333336,-0.402,-0.906,-0.051
88751,1755585171873,23.87,-92.96,-59.11,825,857,833,835,846,34.48275862068966,-0.4,-0.91,-0.048
88781,1755585171902,23.86,-92.91,-59.1,833,861,837,832,852,33.333333333333336,-0.396,-0.913,-0.048
88810,1755585171932,23.84,-92.95,-59.12,826,865,823,838,840,34.48275862068966,-0.394,-0.91,-0.047
88840,1755585171962,23.84,-92.9,-59.14,827,866,828,833,840,33.333333333333336,-0.398,-0.91,-0.048
88869,1755585171991,23.84,-92.88,-59.14,828,860,828,829,835,34.48275862068966,-0.396,-0.91,-0.05
88899,1755585172021,23.81,-92.94,-59.13,831,860,834,834,839,33.333333333333336,-0.394,-0.91,-0.047
88928,1755585172050,23.81,-92.91,-59.14,825,860,831,837,840,34.48275862068966,-0.395,-0.911,-0.045
88958,1755585172080,23.83,-92.89,-59.15,828,871,835,832,841,33.333333333333336,-0.396,-0.909,-0.048
88987,1755585172109,23.82,-92.94,-59.15,821,863,826,838,853,34.48275862068966,-0.398,-0.909,-0.05
89017,1755585172139,23.8,-93.0,-59.14,824,863,823,843,839,33.333333333333336,-0.396,-0.911,-0.048
89047,1755585172169,23.78,-92.99,-59.15,819,855,812,832,840,33.333333333333336,-0.395,-0.911,-0.045
89076,1755585172198,23.83,-92.96,-59.13,825,870,833,834,841,34.48275862068966,-0.396,-0.913,-0.044
89106,1755585172228,23.86,-92.94,-59.12,826,853,846,832,845,33.333333333333336,-0.395,-0.909,-0.048
89136,1755585172258,23.84,-92.98,-59.15,817,861,836,833,843,33.333333333333336,-0.398,-0.908,-0.051
89166,1755585172287,23.82,-93.02,-59.14,832,859,826,825,838,33.333333333333336,-0.398,-0.91,-0.048
89195,1755585172317,23.81,-93.04,-59.15,833,868,837,837,845,34.48275862068966,-0.394,-0.911,-0.046
89225,1755585172346,23.86,-92.95,-59.15,825,868,818,827,843,33.333333333333336,-0.394,-0.912,-0.048
89254,1755585172376,23.87,-92.95,-59.16,826,866,803,837,845,34.48275862068966,-0.398,-0.911,-0.052
89284,1755585172406,23.84,-93.03,-59.18,826,867,842,839,852,33.333333333333336,-0.399,-0.909,-0.05
89313,1755585172435,23.85,-92.98,-59.18,824,863,841,836,843,34.48275862068966,-0.397,-0.914,-0.048
89343,1755585172465,23.86,-92.96,-59.16,825,859,826,835,849,33.333333333333336,-0.396,-0.914,-0.047
89372,1755585172494,23.88,-92.94,-59.15,822,869,822,828,835,34.48275862068966,-0.399,-0.912,-0.05
89402,1755585172524,23.79,-93.04,-59.18,826,863,830,833,845,33.333333333333336,-0.399,-0.909,-0.053
89432,1755585172553,23.78,-93.06,-59.16,825,866,824,834,849,33.333333333333336,-0.401,-0.911,-0.049
89461,1755585172583,23.81,-93.01,-59.13,823,872,831,837,838,34.48275862068966,-0.397,-0.911,-0.046
89491,1755585172612,23.81,-92.94,-59.15,823,855,829,836,845,33.333333333333336,-0.393,-0.912,-0.047
89520,1755585172642,23.82,-92.96,-59.16,819,856,814,823,840,34.48275862068966,-0.395,-0.912,-0.048
89550,1755585172671,23.86,-92.98,-59.13,826,861,823,829,846,33.333333333333336,-0.399,-0.91,-0.048
89579,1755585172701,23.87,-92.95,-59.14,829,869,832,828,843,34.48275862068966,-0.399,-0.908,-0.048
89609,1755585172731,23.86,-92.95,-59.19,823,866,842,838,843,33.333333333333336,-0.398,-0.909,-0.047
89639,1755585172760,23.95,-92.95,-59.18,828,867,823,832,837,33.333333333333336,-0.399,-0.911,-0.042
89668,1755585172790,24.06,-92.83,-59.19,830,853,835,831,850,34.48275862068966,-0.398,-0.908,-0.048
89698,1755585172820,24.04,-92.71,-59.27,825,851,827,830,847,33.333333333333336,-0.398,-0.907,-0.056
89727,1755585172849,23.93,-92.69,-59.3,821,868,825,838,842,34.48275862068966,-0.397,-0.91,-0.053
89757,1755585172879,23.94,-92.72,-59.26,822,856,828,841,839,33.333333333333336,-0.396,-0.911,-0.045
89787,1755585172908,24.0,-92.67,-59.26,828,858,816,834,845,33.333333333333336,-0.395,-0.91,-0.044
89816,1755585172938,24.0,-92.64,-59.27,826,860,826,834,846,34.48275862068966,-0.397,-0.908,-0.051
89846,1755585172967,23.94,-92.75,-59.28,825,865,831,836,850,33.333333333333336,-0.399,-0.909,-0.051
89875,1755585172997,23.92,-92.79,-59.26,825,868,831,823,847,34.48275862068966,-0.397,-0.911,-0.046
89905,1755585173026,23.95,-92.75,-59.24,826,849,829,830,846,33.333333333333336,-0.395,-0.913,-0.043
89934,1755585173056,23.97,-92.74,-59.25,822,859,836,833,848,34.48275862068966,-0.395,-0.911,-0.047
89964,1755585173086,23.94,-92.76,-59.27,831,867,836,841,858,33.333333333333336,-0.397,-0.91,-0.049
89994,1755585173115,23.94,-92.77,-59.28,822,865,819,829,876,33.333333333333336,-0.399,-0.912,-0.046
90023,1755585173145,23.97,-92.78,-59.27,823,854,819,833,845,34.48275862068966,-0.396,-0.913,-0.044
90053,1755585173174,23.99,-92.76,-59.26,827,857,827,833,846,33.333333333333336,-0.396,-0.911,-0.046
90082,1755585173204,24.0,-92.73,-59.27,821,869,829,827,847,34.48275862068966,-0.398,-0.911,-0.049
90112,1755585173234,23.97,-92.73,-59.27,823,869,829,828,847,33.333333333333336,-0.396,-0.91,-0.047
90142,1755585173264,23.96,-92.78,-59.3,831,870,829,831,834,33.333333333333336,-0.396,-0.911,-0.046
90171,1755585173293,23.99,-92.72,-59.3,828,852,832,825,842,34.48275862068966,-0.397,-0.913,-0.045
90201,1755585173323,24.02,-92.67,-59.27,827,860,824,832,823,33.333333333333336,-0.397,-0.912,-0.047
90231,1755585173352,23.97,-92.69,-59.3,819,862,826,830,832,33.333333333333336,-0.396,-0.909,-0.05
90260,1755585173382,23.91,-92.74,-59.34,829,868,823,832,835,34.48275862068966,-0.397,-0.91,-0.049
90290,1755585173412,23.9,-92.77,-59.33,825,873,816,827,854,33.333333333333336,-0.397,-0.914,-0.044
90320,1755585173442,23.97,-92.7,-59.27,823,863,825,836,850,33.333333333333336,-0.397,-0.914,-0.041
90349,1755585173471,24.0,-92.62,-59.29,824,856,823,836,838,34.48275862068966,-0.396,-0.909,-0.046
90379,1755585173501,23.93,-92.66,-59.34,822,853,827,833,856,33.333333333333336,-0.397,-0.908,-0.053
90399,1755585173521,23.87,-92.72,-59.35,811,862,825,818,846,50.0,-0.398,-0.91,-0.052
90428,1755585173550,23.84,-92.74,-59.35,828,860,833,831,846,34.48275862068966,-0.396,-0.912,-0.042
90458,1755585173579,23.93,-92.66,-59.34,829,866,826,838,839,33.333333333333336,-0.396,-0.913,-0.038
90487,1755585173609,23.99,-92.63,-59.34,822,867,832,831,851,34.48275862068966,-0.397,-0.911,-0.049
90517,1755585173639,23.91,-92.7,-59.37,820,864,830,839,845,33.333333333333336,-0.397,-0.91,-0.051
90547,1755585173668,23.92,-92.76,-59.39,827,859,832,840,847,33.333333333333336,-0.397,-0.912,-0.041
90576,1755585173698,24.0,-92.67,-59.4,825,867,829,837,844,34.48275862068966,-0.396,-0.912,-0.041
90606,1755585173727,24.0,-92.65,-59.4,827,866,823,817,846,33.333333333333336,-0.397,-0.911,-0.05
90635,1755585173757,23.95,-92.77,-59.38,826,865,826,832,839,34.48275862068966,-0.396,-0.911,-0.05
90665,1755585173786,23.93,-92.78,-59.41,826,868,831,830,846,33.333333333333336,-0.395,-0.911,-0.044
90694,1755585173816,23.93,-92.74,-59.45,824,853,818,838,843,34.48275862068966,-0.397,-0.911,-0.045
90724,1755585173846,23.94,-92.76,-59.43,834,854,827,833,849,33.333333333333336,-0.398,-0.912,-0.047
90753,1755585173876,23.92,-92.78,-59.43,821,863,827,830,846,34.48275862068966,-0.395,-0.911,-0.047
90783,1755585173905,23.9,-92.74,-59.48,827,870,831,829,854,33.333333333333336,-0.396,-0.91,-0.047
90813,1755585173935,23.89,-92.78,-59.51,820,867,838,834,839,33.333333333333336,-0.398,-0.912,-0.047
90843,1755585173965,23.91,-92.83,-59.49,817,866,830,828,841,33.333333333333336,-0.397,-0.911,-0.046
90873,1755585173994,23.91,-92.79,-59.5,818,862,824,834,845,33.333333333333336,-0.394,-0.912,-0.046
90902,1755585174024,23.91,-92.69,-59.54,830,860,833,827,836,34.48275862068966,-0.395,-0.911,-0.049
90932,1755585174054,23.88,-92.78,-59.56,814,864,826,835,840,33.333333333333336,-0.399,-0.912,-0.051
90961,1755585174083,23.85,-92.82,-59.56,828,855,846,836,840,34.48275862068966,-0.396,-0.911,-0.045
90991,1755585174114,23.87,-92.74,-59.61,821,858,827,833,871,33.333333333333336,-0.393,-0.913,-0.043
91011,1755585174133,23.88,-92.69,-59.62,820,857,821,830,846,50.0,-0.391,-0.917,-0.047
91041,1755585174162,23.86,-92.78,-59.59,827,859,821,834,844,33.333333333333336,-0.393,-0.915,-0.053
91070,1755585174192,23.8,-92.86,-59.62,823,863,830,832,839,34.48275862068966,-0.395,-0.91,-0.049
91100,1755585174221,23.82,-92.78,-59.67,820,862,823,834,839,33.333333333333336,-0.397,-0.911,-0.045
91129,1755585174251,23.81,-92.78,-59.67,821,848,816,844,845,34.48275862068966,-0.394,-0.914,-0.05
91159,1755585174280,23.75,-92.86,-59.63,825,864,826,834,845,33.333333333333336,-0.393,-0.914,-0.051
91188,1755585174310,23.71,-92.91,-59.66,826,860,837,845,828,34.48275862068966,-0.393,-0.911,-0.047
91218,1755585174340,23.71,-92.93,-59.72,825,866,823,832,839,33.333333333333336,-0.396,-0.909,-0.048
91247,1755585174369,23.7,-92.95,-59.73,828,868,824,841,841,34.48275862068966,-0.397,-0.913,-0.051
91277,1755585174399,23.7,-92.96,-59.7,823,866,810,839,856,33.333333333333336,-0.393,-0.916,-0.049
91307,1755585174429,23.63,-92.96,-59.74,826,865,833,837,845,33.333333333333336,-0.393,-0.915,-0.048
91336,1755585174458,23.67,-92.92,-59.74,822,865,828,826,845,34.48275862068966,-0.398,-0.915,-0.047
91366,1755585174488,23.68,-92.93,-59.74,822,866,826,832,837,33.333333333333336,-0.394,-0.913,-0.051
91396,1755585174518,23.64,-92.95,-59.76,824,854,827,825,846,33.333333333333336,-0.392,-0.913,-0.052
91425,1755585174547,23.6,-92.95,-59.76,815,855,821,833,840,34.48275862068966,-0.392,-0.914,-0.051
91455,1755585174576,23.6,-92.96,-59.74,824,862,827,832,857,33.333333333333336,-0.393,-0.913,-0.049
91484,1755585174606,23.62,-92.97,-59.73,830,864,825,833,829,34.48275862068966,-0.394,-0.912,-0.049
91514,1755585174636,23.58,-93.03,-59.78,821,858,826,838,832,33.333333333333336,-0.392,-0.911,-0.05
91543,1755585174665,23.58,-92.96,-59.78,821,860,825,834,847,34.48275862068966,-0.393,-0.913,-0.051
91573,1755585174695,23.52,-93.12,-59.77,817,868,827,827,847,33.333333333333336,-0.392,-0.913,-0.054
91603,1755585174724,23.45,-93.24,-59.8,821,863,809,842,846,33.333333333333336,-0.392,-0.91,-0.052
91632,1755585174754,23.24,-93.38,-59.93,819,861,823,832,842,34.48275862068966,-0.388,-0.909,-0.057
91662,1755585174783,23.19,-93.37,-59.94,827,857,812,834,845,33.333333333333336,-0.393,-0.915,-0.053
91691,1755585174813,23.16,-93.4,-59.91,823,866,838,835,849,34.48275862068966,-0.389,-0.915,-0.05
91721,1755585174843,23.21,-93.3,-59.9,830,876,824,838,867,33.333333333333336,-0.388,-0.913,-0.048
91750,1755585174872,23.25,-93.19,-59.93,832,867,822,840,841,34.48275862068966,-0.394,-0.914,-0.051
91780,1755585174901,23.26,-93.18,-59.88,815,861,820,830,848,33.333333333333336,-0.392,-0.915,-0.053
91809,1755585174931,23.27,-93.27,-59.86,822,864,829,839,846,34.48275862068966,-0.388,-0.916,-0.051
91839,1755585174961,23.27,-93.19,-59.87,822,868,819,836,838,33.333333333333336,-0.387,-0.913,-0.048
91869,1755585174990,23.32,-93.15,-59.89,824,868,827,829,842,33.333333333333336,-0.394,-0.914,-0.051
91898,1755585175020,23.35,-93.19,-59.85,816,864,832,833,836,34.48275862068966,-0.397,-0.915,-0.052
91928,1755585175050,23.34,-93.16,-59.84,819,852,814,829,840,33.333333333333336,-0.391,-0.914,-0.05
91958,1755585175079,23.36,-93.16,-59.84,823,858,835,833,835,33.333333333333336,-0.388,-0.916,-0.049
91987,1755585175109,23.4,-93.14,-59.82,821,866,838,833,840,34.48275862068966,-0.391,-0.914,-0.051
92017,1755585175139,23.42,-93.14,-59.81,819,857,826,843,843,33.333333333333336,-0.394,-0.913,-0.053
92037,1755585175159,23.4,-93.12,-59.81,821,873,829,830,832,50.0,-0.395,-0.912,-0.052
92067,1755585175189,23.39,-93.13,-59.83,827,856,823,835,840,33.333333333333336,-0.392,-0.912,-0.052
92096,1755585175218,23.4,-93.12,-59.81,816,859,817,822,846,34.48275862068966,-0.392,-0.915,-0.049
92126,1755585175248,23.43,-93.09,-59.79,829,866,823,838,843,33.333333333333336,-0.393,-0.913,-0.05
92156,1755585175278,23.45,-93.07,-59.79,833,858,830,841,837,33.333333333333336,-0.393,-0.912,-0.052
92185,1755585175307,23.43,-93.09,-59.78,824,858,828,836,837,34.48275862068966,-0.394,-0.913,-0.053
92215,1755585175337,23.42,-93.1,-59.78,832,870,822,835,863,33.333333333333336,-0.393,-0.913,-0.051
92245,1755585175367,23.4,-93.09,-59.78,823,856,825,830,841,33.333333333333336,-0.392,-0.913,-0.048
92274,1755585175396,23.44,-93.04,-59.75,828,862,824,837,837,34.48275862068966,-0.393,-0.912,-0.049
92304,1755585175426,23.46,-93.04,-59.76,824,842,830,842,854,33.333333333333336,-0.394,-0.91,-0.05
92333,1755585175455,23.48,-93.04,-59.77,825,856,826,837,845,34.48275862068966,-0.398,-0.911,-0.048
92363,1755585175485,23.51,-93.0,-59.75,823,850,823,842,839,33.333333333333336,-0.396,-0.913,-0.047
92393,1755585175515,23.58,-92.98,-59.7,815,857,832,836,844,33.333333333333336,-0.395,-0.914,-0.048
92423,1755585175544,23.57,-93.04,-59.7,821,856,827,849,852,33.333333333333336,-0.393,-0.912,-0.052
92452,1755585175574,23.53,-93.05,-59.73,823,862,825,832,842,34.48275862068966,-0.396,-0.91,-0.052
92482,1755585175603,23.52,-93.04,-59.74,825,863,827,827,842,33.333333333333336,-0.397,-0.911,-0.05
92511,1755585175633,23.5,-93.11,-59.75,819,859,829,835,851,34.48275862068966,-0.395,-0.912,-0.047
92541,1755585175663,23.52,-93.05,-59.75,827,849,842,830,838,33.333333333333336,-0.395,-0.912,-0.048
92561,1755585175683,23.54,-93.05,-59.75,825,854,819,828,837,50.0,-0.396,-0.91,-0.05
92591,1755585175712,23.54,-93.09,-59.78,824,860,814,832,841,33.333333333333336,-0.396,-0.908,-0.051
92620,1755585175742,23.54,-93.1,-59.8,822,868,826,831,853,34.48275862068966,-0.397,-0.911,-0.05
92650,1755585175772,23.57,-93.03,-59.79,826,866,830,832,843,33.333333333333336,-0.395,-0.912,-0.048
92679,1755585175801,23.58,-93.05,-59.8,823,864,829,827,843,34.48275862068966,-0.393,-0.912,-0.049
92709,1755585175831,23.57,-93.06,-59.82,816,862,831,839,841,33.333333333333336,-0.395,-0.911,-0.05
92739,1755585175860,23.6,-93.05,-59.8,828,852,829,830,838,33.333333333333336,-0.398,-0.913,-0.05
92768,1755585175890,23.61,-93.04,-59.78,824,861,827,828,828,34.48275862068966,-0.394,-0.911,-0.049
92797,1755585175919,23.62,-93.02,-59.8,826,859,812,846,852,34.48275862068966,-0.392,-0.911,-0.049
92827,1755585175949,23.67,-92.98,-59.78,820,856,825,836,844,33.333333333333336,-0.395,-0.912,-0.048
92857,1755585175979,23.71,-93.03,-59.75,822,857,831,832,838,33.333333333333336,-0.396,-0.91,-0.051
92887,1755585176008,23.68,-93.08,-59.75,825,853,834,834,835,33.333333333333336,-0.394,-0.908,-0.053
92916,1755585176038,23.65,-93.07,-59.79,825,856,825,826,839,34.48275862068966,-0.395,-0.912,-0.05
92946,1755585176067,23.67,-93.06,-59.75,824,859,830,829,856,33.333333333333336,-0.395,-0.913,-0.049
92975,1755585176097,23.69,-93.13,-59.74,823,853,834,835,850,34.48275862068966,-0.394,-0.91,-0.049
93005,1755585176126,23.7,-93.05,-59.77,819,857,814,819,849,33.333333333333336,-0.396,-0.91,-0.051
93034,1755585176156,23.65,-93.09,-59.79,824,859,824,833,845,34.48275862068966,-0.396,-0.91,-0.055
93064,1755585176186,23.62,-93.16,-59.78,825,862,826,855,840,33.333333333333336,-0.396,-0.911,-0.05
93094,1755585176216,23.64,-93.09,-59.79,828,845,821,824,838,33.333333333333336,-0.396,-0.911,-0.048
93123,1755585176245,23.65,-93.01,-59.8,822,852,826,836,841,34.48275862068966,-0.396,-0.91,-0.052
93153,1755585176275,23.62,-93.06,-59.79,827,850,814,827,839,33.333333333333336,-0.398,-0.91,-0.054
93183,1755585176304,23.58,-93.12,-59.81,821,846,833,836,844,33.333333333333336,-0.398,-0.911,-0.05
93212,1755585176334,23.61,-93.05,-59.8,826,860,805,831,843,34.48275862068966,-0.397,-0.913,-0.048
93242,1755585176363,23.61,-92.97,-59.79,828,859,830,827,843,33.333333333333336,-0.395,-0.913,-0.052
93271,1755585176393,23.56,-93.03,-59.78,818,865,823,830,827,34.48275862068966,-0.396,-0.911,-0.053
93301,1755585176423,23.51,-93.1,-59.79,828,861,823,831,838,33.333333333333336,-0.397,-0.91,-0.051
93331,1755585176453,23.51,-93.07,-59.8,833,857,829,832,840,33.333333333333336,-0.397,-0.911,-0.047
93360,1755585176482,23.57,-93.0,-59.79,833,863,828,826,839,34.48275862068966,-0.396,-0.913,-0.048
93390,1755585176511,23.57,-93.0,-59.77,816,850,825,831,837,33.333333333333336,-0.396,-0.912,-0.052
93419,1755585176541,23.53,-93.07,-59.78,825,850,839,832,845,34.48275862068966,-0.397,-0.908,-0.052
93449,1755585176570,23.5,-93.12,-59.83,827,850,821,831,849,33.333333333333336,-0.398,-0.908,-0.049
93478,1755585176600,23.53,-93.08,-59.85,819,864,824,840,845,34.48275862068966,-0.397,-0.912,-0.047
93508,1755585176629,23.57,-93.05,-59.81,836,872,835,835,836,33.333333333333336,-0.395,-0.914,-0.048
93537,1755585176659,23.52,-93.1,-59.83,826,854,820,835,841,34.48275862068966,-0.392,-0.91,-0.054
93567,1755585176689,23.48,-93.15,-59.88,820,875,825,827,840,33.333333333333336,-0.397,-0.908,-0.052
93596,1755585176718,23.53,-93.11,-59.89,825,856,828,828,842,34.48275862068966,-0.401,-0.91,-0.045
93626,1755585176748,23.6,-93.03,-59.87,822,853,829,825,844,33.333333333333336,-0.397,-0.911,-0.046
93656,1755585176777,23.61,-93.03,-59.88,829,857,838,838,848,33.333333333333336,-0.394,-0.913,-0.051
93685,1755585176807,23.56,-93.04,-59.91,824,861,825,844,843,34.48275862068966,-0.394,-0.911,-0.052
93715,1755585176837,23.59,-93.04,-59.91,819,869,817,832,847,33.333333333333336,-0.399,-0.912,-0.048
93745,1755585176866,23.63,-93.01,-59.9,827,856,822,831,852,33.333333333333336,-0.398,-0.912,-0.047
93774,1755585176896,23.64,-93.02,-59.91,817,854,823,832,836,34.48275862068966,-0.397,-0.911,-0.051
93804,1755585176925,23.6,-93.07,-59.93,834,863,821,828,840,33.333333333333336,-0.397,-0.911,-0.05
93833,1755585176955,23.61,-93.05,-59.94,828,851,820,836,850,34.48275862068966,-0.396,-0.912,-0.046
93863,1755585176985,23.66,-92.99,-59.93,819,859,836,835,837,33.333333333333336,-0.395,-0.913,-0.046
93892,1755585177014,23.66,-92.99,-59.92,822,861,819,837,853,34.48275862068966,-0.395,-0.912,-0.05
93922,1755585177044,23.64,-93.03,-59.92,825,859,830,847,846,33.333333333333336,-0.397,-0.911,-0.051
93952,1755585177073,23.65,-93.0,-59.91,822,857,823,838,843,33.333333333333336,-0.397,-0.91,-0.047
93981,1755585177103,23.66,-92.98,-59.94,827,853,820,837,843,34.48275862068966,-0.396,-0.91,-0.045
94011,1755585177133,23.69,-92.97,-59.95,828,865,827,836,846,33.333333333333336,-0.396,-0.913,-0.049
94040,1755585177162,23.66,-92.99,-59.92,820,856,831,837,841,34.48275862068966,-0.394,-0.913,-0.052
94070,1755585177192,23.63,-93.07,-59.92,825,862,823,830,833,33.333333333333336,-0.395,-0.912,-0.049
94099,1755585177221,23.61,-93.06,-59.95,824,855,823,833,848,34.48275862068966,-0.396,-0.91,-0.046
94129,1755585177251,23.65,-93.01,-59.94,823,867,825,832,841,33.333333333333336,-0.397,-0.911,-0.047
94159,1755585177281,23.67,-93.04,-59.92,824,864,821,832,837,33.333333333333336,-0.397,-0.912,-0.048
94188,1755585177310,23.69,-93.05,-59.92,827,845,822,831,850,34.48275862068966,-0.396,-0.91,-0.048
