timestamp_ms,recv_timestamp_ms,pitch,roll,yaw,flex1,flex2,flex3,flex4,flex5,sampling_hz,accel_x,accel_y,accel_z
67197,1755586685794,19.8,-87.28,7.88,839,772,820,841,854,33.333333333333336,-0.359,-0.924,0.015
67226,1755586685823,19.81,-87.28,7.88,840,764,811,855,860,34.48275862068966,-0.358,-0.925,0.015
67256,1755586685853,19.82,-87.29,7.91,833,772,813,860,840,33.333333333333336,-0.358,-0.927,0.012
67285,1755586685882,19.82,-87.35,7.95,841,772,814,857,853,34.48275862068966,-0.361,-0.927,0.012
67315,1755586685912,19.84,-87.33,7.99,842,769,821,861,852,33.333333333333336,-0.361,-0.927,0.015
67344,1755586685941,19.86,-87.3,8.01,840,768,814,852,856,34.48275862068966,-0.359,-0.927,0.016
67374,1755586685971,19.91,-87.28,8.08,842,774,819,853,859,33.333333333333336,-0.36,-0.928,0.014
67404,1755586686001,19.92,-87.33,8.11,841,766,812,852,860,33.333333333333336,-0.363,-0.924,0.013
67433,1755586686030,19.96,-87.43,8.13,835,767,826,852,853,34.48275862068966,-0.365,-0.925,0.015
67463,1755586686060,20.0,-87.41,8.17,837,760,811,854,863,33.333333333333336,-0.365,-0.927,0.011
67492,1755586686089,19.96,-87.44,8.21,831,766,813,839,854,34.48275862068966,-0.363,-0.928,0.008
67522,1755586686119,19.96,-87.47,8.28,839,769,825,853,860,33.333333333333336,-0.363,-0.93,0.011
67551,1755586686148,20.01,-87.41,8.39,841,765,808,852,860,34.48275862068966,-0.366,-0.931,0.013
67581,1755586686178,20.0,-87.28,8.47,845,771,817,848,853,33.333333333333336,-0.367,-0.927,0.009
67610,1755586686207,19.94,-87.26,8.52,840,775,825,854,854,34.48275862068966,-0.367,-0.925,0.007
67640,1755586686237,19.89,-87.26,8.55,840,764,815,852,860,33.333333333333336,-0.366,-0.927,0.011
67669,1755586686266,19.84,-87.12,8.52,838,767,835,856,852,34.48275862068966,-0.366,-0.925,0.016
67698,1755586686296,19.8,-86.95,8.49,840,764,817,853,847,34.48275862068966,-0.365,-0.921,0.013
67728,1755586686325,19.8,-87.06,8.51,837,774,829,852,864,33.333333333333336,-0.368,-0.923,0.01
67758,1755586686355,19.74,-87.15,8.54,839,772,825,849,857,33.333333333333336,-0.368,-0.922,0.011
67787,1755586686384,19.7,-87.23,8.57,842,764,821,853,854,34.48275862068966,-0.366,-0.924,0.016
67816,1755586686414,19.7,-87.22,8.62,841,768,815,854,859,34.48275862068966,-0.366,-0.926,0.018
67846,1755586686443,19.69,-87.22,8.67,843,767,806,861,860,33.333333333333336,-0.366,-0.924,0.018
67876,1755586686473,19.67,-87.25,8.7,840,767,819,848,862,33.333333333333336,-0.366,-0.918,0.019
67906,1755586686503,19.69,-87.28,8.67,830,766,824,853,856,33.333333333333336,-0.368,-0.917,0.019
67935,1755586686532,19.68,-87.28,8.64,831,767,816,852,859,34.48275862068966,-0.369,-0.92,0.016
67965,1755586686562,19.65,-87.3,8.66,836,764,820,857,858,33.333333333333336,-0.368,-0.926,0.016
67995,1755586686592,19.66,-87.31,8.71,838,770,819,848,854,33.333333333333336,-0.367,-0.925,0.017
68024,1755586686621,19.63,-87.32,8.72,837,774,821,851,856,34.48275862068966,-0.367,-0.92,0.018
68054,1755586686651,19.58,-87.33,8.67,830,780,817,854,867,33.333333333333336,-0.364,-0.921,0.019
68083,1755586686680,19.6,-87.36,8.65,832,766,814,855,849,34.48275862068966,-0.366,-0.922,0.018
68113,1755586686710,19.64,-87.38,8.62,835,767,808,857,855,33.333333333333336,-0.368,-0.922,0.019
68142,1755586686740,19.67,-87.36,8.62,838,771,822,845,860,34.48275862068966,-0.367,-0.924,0.017
68172,1755586686769,19.68,-87.45,8.63,839,773,825,860,866,33.333333333333336,-0.366,-0.923,0.016
68202,1755586686799,19.7,-87.48,8.62,830,776,819,857,857,33.333333333333336,-0.366,-0.923,0.017
68231,1755586686828,19.74,-87.44,8.64,838,769,816,855,855,34.48275862068966,-0.363,-0.926,0.019
68260,1755586686857,19.79,-87.4,8.65,841,774,816,855,858,34.48275862068966,-0.362,-0.924,0.015
68290,1755586686887,19.84,-87.4,8.66,833,774,814,852,859,33.333333333333336,-0.364,-0.924,0.014
68319,1755586686917,19.89,-87.39,8.68,840,774,810,856,855,34.48275862068966,-0.364,-0.927,0.018
68349,1755586686946,19.99,-87.28,8.68,837,769,818,848,851,33.333333333333336,-0.366,-0.928,0.02
68379,1755586686976,20.09,-87.12,8.71,833,760,818,867,865,33.333333333333336,-0.365,-0.926,0.015
68408,1755586687005,20.06,-87.09,8.68,834,766,817,849,861,34.48275862068966,-0.364,-0.927,0.01
68438,1755586687035,19.99,-87.0,8.6,843,773,823,858,860,33.333333333333336,-0.364,-0.923,0.01
68467,1755586687064,19.96,-87.0,8.58,843,759,821,855,851,34.48275862068966,-0.363,-0.925,0.015
68496,1755586687094,20.02,-87.05,8.59,836,766,820,857,857,34.48275862068966,-0.363,-0.929,0.02
68526,1755586687123,20.05,-86.99,8.6,845,769,809,844,848,33.333333333333336,-0.365,-0.926,0.016
68556,1755586687153,19.98,-87.01,8.55,843,768,818,853,857,33.333333333333336,-0.362,-0.925,0.011
68585,1755586687182,19.92,-87.14,8.53,835,774,817,858,845,34.48275862068966,-0.362,-0.925,0.015
68615,1755586687212,19.87,-87.23,8.51,839,767,824,853,861,33.333333333333336,-0.362,-0.924,0.016
68644,1755586687241,19.76,-87.31,8.44,831,766,818,863,860,34.48275862068966,-0.36,-0.927,0.015
68674,1755586687271,19.63,-87.52,8.39,837,776,817,860,864,33.333333333333336,-0.36,-0.923,0.011
68703,1755586687300,19.48,-87.75,8.33,841,756,822,858,854,34.48275862068966,-0.36,-0.924,0.01
68733,1755586687330,19.36,-87.88,8.32,839,773,826,854,863,33.333333333333336,-0.36,-0.927,0.017
68763,1755586687360,19.44,-87.78,8.41,839,765,821,850,858,33.333333333333336,-0.358,-0.931,0.021
68792,1755586687389,19.46,-87.7,8.46,840,771,823,855,854,34.48275862068966,-0.358,-0.928,0.016
68821,1755586687419,19.45,-87.66,8.48,840,769,825,850,850,34.48275862068966,-0.357,-0.925,0.013
68851,1755586687448,19.46,-87.62,8.49,835,770,821,847,852,33.333333333333336,-0.356,-0.926,0.014
68881,1755586687478,19.49,-87.61,8.52,841,767,817,854,853,33.333333333333336,-0.356,-0.929,0.016
68910,1755586687507,19.55,-87.55,8.58,831,774,827,857,855,34.48275862068966,-0.357,-0.927,0.016
68939,1755586687536,19.6,-87.51,8.6,839,771,820,854,852,34.48275862068966,-0.355,-0.926,0.014
68969,1755586687566,19.55,-87.54,8.58,832,764,829,854,858,33.333333333333336,-0.355,-0.926,0.011
68998,1755586687595,19.56,-87.57,8.61,838,774,820,857,860,34.48275862068966,-0.356,-0.927,0.014
69028,1755586687625,19.62,-87.5,8.65,840,764,829,862,866,33.333333333333336,-0.356,-0.93,0.017
69057,1755586687654,19.64,-87.46,8.7,836,772,820,854,855,34.48275862068966,-0.356,-0.927,0.013
69087,1755586687684,19.66,-87.48,8.73,848,776,818,858,860,33.333333333333336,-0.357,-0.926,0.013
69116,1755586687714,19.66,-87.52,8.72,838,766,825,853,856,34.48275862068966,-0.356,-0.925,0.011
69146,1755586687743,19.63,-87.55,8.71,839,774,812,855,850,33.333333333333336,-0.357,-0.926,0.012
69175,1755586687773,19.65,-87.58,8.72,837,766,828,862,857,34.48275862068966,-0.356,-0.928,0.015
69205,1755586687802,19.72,-87.58,8.74,837,774,820,855,853,33.333333333333336,-0.357,-0.925,0.013
69235,1755586687831,19.73,-87.59,8.72,836,770,812,856,856,33.333333333333336,-0.356,-0.924,0.009
69264,1755586687861,19.71,-87.64,8.71,838,775,823,859,855,34.48275862068966,-0.359,-0.925,0.007
69293,1755586687891,19.69,-87.7,8.72,839,765,820,853,862,34.48275862068966,-0.357,-0.927,0.011
69323,1755586687920,19.73,-87.66,8.72,835,772,830,855,853,33.333333333333336,-0.353,-0.933,0.015
69352,1755586687949,19.77,-87.58,8.77,840,767,805,863,854,34.48275862068966,-0.353,-0.93,0.009
69382,1755586687980,19.76,-87.59,8.78,835,766,827,857,860,33.333333333333336,-0.354,-0.927,0.006
69402,1755586687999,19.76,-87.63,8.78,841,767,817,850,845,50.0,-0.354,-0.927,0.008
69431,1755586688028,19.77,-87.63,8.8,841,764,820,860,856,34.48275862068966,-0.355,-0.929,0.008
69461,1755586688058,19.75,-87.63,8.81,836,771,821,851,849,33.333333333333336,-0.356,-0.929,0.007
69491,1755586688088,19.79,-87.63,8.87,840,774,818,857,861,33.333333333333336,-0.355,-0.931,0.011
69520,1755586688117,19.82,-87.58,8.93,842,771,815,849,860,34.48275862068966,-0.354,-0.93,0.011
69549,1755586688146,19.79,-87.61,8.92,837,771,810,851,866,34.48275862068966,-0.356,-0.926,0.007
69579,1755586688176,19.77,-87.67,8.95,834,766,823,856,859,33.333333333333336,-0.356,-0.926,0.007
69608,1755586688205,19.79,-87.73,8.99,833,771,817,853,849,34.48275862068966,-0.356,-0.927,0.009
69638,1755586688235,19.77,-87.72,9.0,836,772,831,847,857,33.333333333333336,-0.356,-0.928,0.012
69667,1755586688264,19.8,-87.68,9.02,842,772,829,852,854,34.48275862068966,-0.356,-0.93,0.011
69697,1755586688294,19.82,-87.68,9.07,843,777,814,851,852,33.333333333333336,-0.357,-0.928,0.007
69726,1755586688323,19.8,-87.69,9.09,834,772,825,862,881,34.48275862068966,-0.357,-0.927,0.006
69756,1755586688353,19.78,-87.72,9.12,835,769,823,858,862,33.333333333333336,-0.357,-0.928,0.008
69785,1755586688382,19.8,-87.71,9.17,845,766,816,850,857,34.48275862068966,-0.357,-0.928,0.01
69815,1755586688412,19.82,-87.66,9.19,836,763,819,858,856,33.333333333333336,-0.357,-0.927,0.011
69844,1755586688442,19.84,-87.63,9.24,831,772,821,869,869,34.48275862068966,-0.358,-0.925,0.009
69874,1755586688471,19.88,-87.67,9.26,840,777,820,864,858,33.333333333333336,-0.358,-0.925,0.009
69903,1755586688500,19.91,-87.68,9.29,839,774,822,864,856,34.48275862068966,-0.358,-0.925,0.009
69933,1755586688530,19.92,-87.72,9.31,841,766,817,853,860,33.333333333333336,-0.358,-0.927,0.009
69963,1755586688560,19.93,-87.66,9.32,840,764,821,854,853,33.333333333333336,-0.359,-0.927,0.007
69992,1755586688589,19.91,-87.7,9.35,841,772,822,858,859,34.48275862068966,-0.359,-0.925,0.007
70022,1755586688619,19.94,-87.73,9.39,838,759,838,847,860,33.333333333333336,-0.36,-0.926,0.01
70052,1755586688649,19.95,-87.7,9.39,832,766,810,850,846,33.333333333333336,-0.36,-0.926,0.008
70081,1755586688678,19.95,-87.71,9.41,841,769,819,854,860,34.48275862068966,-0.361,-0.927,0.007
70111,1755586688708,19.95,-87.74,9.46,835,775,829,860,866,33.333333333333336,-0.361,-0.926,0.009
70140,1755586688737,19.97,-87.75,9.49,844,762,831,852,856,34.48275862068966,-0.36,-0.926,0.01
70170,1755586688767,20.01,-87.7,9.53,851,771,809,842,863,33.333333333333336,-0.361,-0.927,0.007
70199,1755586688797,20.01,-87.72,9.56,840,770,818,854,854,34.48275862068966,-0.362,-0.924,0.005
70229,1755586688826,20.02,-87.73,9.57,832,776,814,848,853,33.333333333333336,-0.362,-0.924,0.006
70259,1755586688856,20.04,-87.73,9.61,841,775,810,858,845,33.333333333333336,-0.363,-0.928,0.008
70288,1755586688886,20.06,-87.71,9.69,833,769,820,847,858,34.48275862068966,-0.363,-0.926,0.007
70318,1755586688915,20.08,-87.7,9.74,838,772,818,853,854,33.333333333333336,-0.365,-0.927,0.006
70347,1755586688944,20.06,-87.69,9.78,837,770,816,858,862,34.48275862068966,-0.363,-0.924,0.004
70377,1755586688974,20.05,-87.74,9.81,837,773,817,858,862,33.333333333333336,-0.364,-0.926,0.007
70406,1755586689003,20.07,-87.71,9.86,849,765,825,855,858,34.48275862068966,-0.365,-0.927,0.009
70436,1755586689033,20.08,-87.68,9.92,836,766,826,856,852,33.333333333333336,-0.365,-0.926,0.005
70465,1755586689062,20.05,-87.7,9.96,838,771,818,850,855,34.48275862068966,-0.365,-0.924,0.005
70495,1755586689092,20.03,-87.74,9.98,842,774,823,855,861,33.333333333333336,-0.365,-0.923,0.006
70524,1755586689121,20.06,-87.71,10.01,834,769,819,848,860,34.48275862068966,-0.365,-0.926,0.01
70554,1755586689151,20.1,-87.65,10.07,837,768,823,853,855,33.333333333333336,-0.366,-0.926,0.009
70583,1755586689181,20.12,-87.62,10.14,829,769,819,853,873,34.48275862068966,-0.367,-0.923,0.005
70613,1755586689210,20.09,-87.65,10.16,829,765,815,854,851,33.333333333333336,-0.367,-0.923,0.008
70642,1755586689239,20.08,-87.66,10.19,839,770,822,843,859,34.48275862068966,-0.366,-0.923,0.01
70672,1755586689269,20.1,-87.66,10.24,840,767,829,853,850,33.333333333333336,-0.367,-0.924,0.008
70701,1755586689298,20.09,-87.69,10.29,839,772,822,858,847,34.48275862068966,-0.367,-0.922,0.005
70731,1755586689328,20.07,-87.69,10.33,837,769,820,859,858,33.333333333333336,-0.367,-0.92,0.006
70760,1755586689357,20.08,-87.68,10.34,832,771,820,851,859,34.48275862068966,-0.367,-0.922,0.01
70790,1755586689387,20.1,-87.66,10.35,839,769,820,856,858,33.333333333333336,-0.368,-0.921,0.009
70819,1755586689417,20.13,-87.64,10.37,836,773,827,848,856,34.48275862068966,-0.37,-0.922,0.008
70849,1755586689446,20.15,-87.66,10.4,841,761,819,855,865,33.333333333333336,-0.369,-0.922,0.007
70879,1755586689476,20.14,-87.67,10.43,836,774,823,854,854,33.333333333333336,-0.368,-0.921,0.007
70908,1755586689506,20.15,-87.7,10.44,839,768,814,853,857,34.48275862068966,-0.369,-0.921,0.009
70938,1755586689535,20.2,-87.66,10.46,837,767,813,856,864,33.333333333333336,-0.37,-0.923,0.009
70967,1755586689566,20.22,-87.65,10.48,834,762,820,849,851,34.48275862068966,-0.37,-0.922,0.006
70988,1755586689585,20.23,-87.68,10.5,834,767,819,856,852,47.61904761904762,-0.37,-0.922,0.006
71018,1755586689615,20.24,-87.69,10.54,838,777,815,848,859,33.333333333333336,-0.371,-0.922,0.008
71047,1755586689644,20.26,-87.68,10.59,831,776,823,853,854,34.48275862068966,-0.371,-0.923,0.007
71077,1755586689674,20.27,-87.7,10.63,843,773,814,848,849,33.333333333333336,-0.372,-0.922,0.007
71106,1755586689703,20.31,-87.68,10.7,837,768,821,853,858,34.48275862068966,-0.372,-0.922,0.009
71136,1755586689733,20.34,-87.67,10.78,840,765,823,854,862,33.333333333333336,-0.372,-0.922,0.009
71165,1755586689762,20.37,-87.65,10.82,837,770,814,846,864,34.48275862068966,-0.374,-0.921,0.01
71194,1755586689791,20.42,-87.62,10.88,838,770,813,854,852,34.48275862068966,-0.374,-0.922,0.008
71224,1755586689821,20.42,-87.63,10.89,827,767,816,852,857,33.333333333333336,-0.374,-0.921,0.007
71253,1755586689850,20.42,-87.64,10.9,837,770,823,865,854,34.48275862068966,-0.375,-0.919,0.006
71283,1755586689880,20.4,-87.71,10.9,838,774,818,857,861,33.333333333333336,-0.375,-0.92,0.008
71312,1755586689909,20.43,-87.71,10.92,835,769,814,848,857,34.48275862068966,-0.374,-0.922,0.011
71341,1755586689939,20.47,-87.62,10.94,843,770,821,855,864,34.48275862068966,-0.375,-0.92,0.008
71371,1755586689968,20.43,-87.61,10.93,838,765,814,857,866,33.333333333333336,-0.375,-0.919,0.005
71400,1755586689997,20.39,-87.69,10.94,840,774,815,854,862,34.48275862068966,-0.375,-0.921,0.006
71430,1755586690027,20.38,-87.72,10.96,834,770,819,862,859,33.333333333333336,-0.374,-0.92,0.009
71459,1755586690056,20.39,-87.69,10.96,838,773,823,851,860,34.48275862068966,-0.373,-0.919,0.011
71488,1755586690085,20.43,-87.64,10.94,835,780,819,852,861,34.48275862068966,-0.373,-0.919,0.01
71518,1755586690115,20.43,-87.61,10.88,842,778,812,844,851,33.333333333333336,-0.373,-0.92,0.011
71547,1755586690145,20.41,-87.53,10.72,837,788,826,862,859,34.48275862068966,-0.368,-0.92,0.011
71577,1755586690174,20.43,-87.52,10.51,839,763,822,862,870,33.333333333333336,-0.368,-0.921,0.011
71607,1755586690204,20.42,-87.54,10.33,837,775,827,848,853,33.333333333333336,-0.368,-0.922,0.009
71636,1755586690234,20.37,-87.62,10.17,842,771,820,854,857,34.48275862068966,-0.367,-0.922,0.007
71666,1755586690263,20.32,-87.68,10.09,833,772,822,858,854,33.333333333333336,-0.368,-0.923,0.008
71695,1755586690293,20.3,-87.66,10.04,833,770,820,854,852,34.48275862068966,-0.366,-0.925,0.011
71725,1755586690322,20.3,-87.63,10.0,843,769,823,850,859,33.333333333333336,-0.363,-0.925,0.012
71754,1755586690352,20.32,-87.59,10.0,832,774,812,853,859,34.48275862068966,-0.361,-0.926,0.012
71784,1755586690382,20.32,-87.59,9.99,840,768,814,849,860,33.333333333333336,-0.359,-0.927,0.009
71814,1755586690411,20.31,-87.58,10.03,833,774,816,852,853,33.333333333333336,-0.359,-0.928,0.007
71844,1755586690441,20.29,-87.58,10.05,840,772,817,853,858,33.333333333333336,-0.356,-0.928,0.012
71873,1755586690471,20.31,-87.48,10.04,838,765,820,853,851,34.48275862068966,-0.354,-0.928,0.016
71903,1755586690500,20.32,-87.39,10.01,838,770,826,853,847,33.333333333333336,-0.353,-0.928,0.011
71932,1755586690529,20.28,-87.44,9.97,843,765,818,855,854,34.48275862068966,-0.354,-0.927,0.01
71962,1755586690559,20.25,-87.48,9.98,834,777,816,856,866,33.333333333333336,-0.353,-0.93,0.013
71991,1755586690588,20.22,-87.46,9.96,836,762,817,863,850,34.48275862068966,-0.35,-0.93,0.014
72021,1755586690618,20.16,-87.43,9.88,833,772,818,853,856,33.333333333333336,-0.346,-0.928,0.013
72050,1755586690648,20.11,-87.41,9.77,839,768,817,855,855,34.48275862068966,-0.347,-0.929,0.012
72080,1755586690677,20.06,-87.42,9.71,840,770,815,854,849,33.333333333333336,-0.348,-0.933,0.013
72109,1755586690707,20.08,-87.41,9.77,838,780,823,854,873,34.48275862068966,-0.348,-0.934,0.015
72139,1755586690736,20.1,-87.35,9.81,838,765,831,850,860,33.333333333333336,-0.348,-0.933,0.015
72169,1755586690766,20.01,-87.35,9.78,834,773,810,865,853,33.333333333333336,-0.345,-0.931,0.01
72198,1755586690795,19.89,-87.48,9.69,835,774,812,855,856,34.48275862068966,-0.344,-0.93,0.01
72227,1755586690825,19.86,-87.52,9.68,835,766,804,868,857,34.48275862068966,-0.348,-0.931,0.017
72257,1755586690854,19.92,-87.41,9.71,836,759,821,856,853,33.333333333333336,-0.346,-0.933,0.021
72286,1755586690883,19.97,-87.33,9.75,840,770,821,857,855,34.48275862068966,-0.345,-0.933,0.017
72316,1755586690913,19.95,-87.37,9.76,838,773,808,855,855,33.333333333333336,-0.346,-0.931,0.01
72345,1755586690943,19.89,-87.41,9.78,840,767,814,854,853,34.48275862068966,-0.345,-0.932,0.012
72375,1755586690972,19.84,-87.39,9.78,841,770,814,846,862,33.333333333333336,-0.343,-0.931,0.017
72404,1755586691002,19.85,-87.38,9.75,838,777,830,846,855,34.48275862068966,-0.342,-0.931,0.019
72434,1755586691031,19.87,-87.33,9.73,837,769,823,853,852,33.333333333333336,-0.342,-0.932,0.016
72463,1755586691061,19.86,-87.35,9.73,837,771,825,858,854,34.48275862068966,-0.342,-0.934,0.016
72493,1755586691090,19.88,-87.32,9.75,840,771,824,845,855,33.333333333333336,-0.342,-0.934,0.017
72523,1755586691120,19.89,-87.26,9.76,835,772,826,857,850,33.333333333333336,-0.339,-0.931,0.018
72552,1755586691149,19.96,-87.29,9.8,841,764,823,852,859,34.48275862068966,-0.34,-0.932,0.017
72582,1755586691179,19.97,-87.31,9.82,840,773,823,859,850,33.333333333333336,-0.34,-0.932,0.013
72611,1755586691209,19.97,-87.34,9.86,832,776,825,857,866,34.48275862068966,-0.343,-0.933,0.013
72641,1755586691238,20.01,-87.34,9.98,842,764,815,847,852,33.333333333333336,-0.343,-0.933,0.017
72671,1755586691268,20.09,-87.3,10.08,836,777,821,856,862,33.333333333333336,-0.342,-0.935,0.017
72700,1755586691297,20.1,-87.26,10.13,837,776,814,852,852,34.48275862068966,-0.342,-0.934,0.013
72730,1755586691327,20.09,-87.27,10.18,841,776,821,860,855,33.333333333333336,-0.343,-0.933,0.011
72759,1755586691356,20.08,-87.26,10.21,839,771,827,852,863,34.48275862068966,-0.343,-0.933,0.016
72789,1755586691386,20.12,-87.17,10.22,839,761,825,853,853,33.333333333333336,-0.345,-0.933,0.018
72818,1755586691416,20.15,-87.06,10.28,842,770,825,853,867,34.48275862068966,-0.347,-0.935,0.013
72848,1755586691445,20.13,-87.06,10.34,838,776,819,849,845,33.333333333333336,-0.345,-0.933,0.012
72877,1755586691475,20.15,-87.12,10.41,840,770,821,861,870,34.48275862068966,-0.349,-0.933,0.014
72907,1755586691504,20.08,-87.04,10.52,840,772,823,853,855,33.333333333333336,-0.352,-0.933,0.007
72937,1755586691534,19.97,-87.24,10.59,843,763,832,861,851,33.333333333333336,-0.348,-0.928,0.01
72966,1755586691563,20.0,-87.27,10.62,842,768,814,854,866,34.48275862068966,-0.346,-0.931,0.025
72995,1755586691593,20.09,-87.07,10.65,837,765,828,845,860,34.48275862068966,-0.344,-0.93,0.026
73025,1755586691622,20.2,-87.05,10.69,854,775,816,855,860,33.333333333333336,-0.345,-0.931,0.021
73054,1755586691651,20.33,-87.1,10.75,835,773,826,848,852,34.48275862068966,-0.353,-0.934,0.016
73084,1755586691681,20.41,-87.06,10.91,838,770,820,857,846,33.333333333333336,-0.355,-0.934,0.014
73113,1755586691710,20.48,-87.04,11.03,839,777,813,851,848,34.48275862068966,-0.35,-0.929,0.017
73142,1755586691739,20.53,-87.02,11.0,837,770,815,853,857,34.48275862068966,-0.347,-0.926,0.02
73172,1755586691769,20.6,-86.91,11.02,842,771,818,850,861,33.333333333333336,-0.351,-0.929,0.014
73202,1755586691799,20.6,-87.0,11.08,842,766,824,856,858,33.333333333333336,-0.356,-0.93,0.008
73231,1755586691828,20.6,-87.04,11.16,836,774,814,849,857,34.48275862068966,-0.36,-0.929,0.012
73261,1755586691858,20.59,-86.96,11.18,832,776,820,842,870,33.333333333333336,-0.358,-0.926,0.011
73290,1755586691887,20.54,-86.97,11.19,836,765,819,844,855,34.48275862068966,-0.356,-0.927,0.01
73319,1755586691916,20.54,-87.01,11.22,841,774,830,856,853,34.48275862068966,-0.358,-0.928,0.013
73349,1755586691946,20.53,-86.97,11.27,839,770,820,855,852,33.333333333333336,-0.359,-0.926,0.004
73378,1755586691975,20.5,-87.01,11.31,842,768,819,855,854,34.48275862068966,-0.359,-0.927,0.007
73408,1755586692006,20.51,-87.04,11.35,840,772,817,849,854,33.333333333333336,-0.361,-0.928,0.009
73428,1755586692026,20.51,-87.03,11.39,836,769,818,856,849,50.0,-0.361,-0.93,0.012
73448,1755586692046,20.53,-87.01,11.47,839,772,818,847,857,50.0,-0.363,-0.934,0.011
73478,1755586692075,20.57,-86.98,11.65,836,771,821,858,846,33.333333333333336,-0.365,-0.932,0.005
73507,1755586692105,20.53,-87.04,11.77,839,774,814,854,858,34.48275862068966,-0.363,-0.925,0.008
73527,1755586692125,20.51,-87.09,11.81,843,770,813,854,861,50.0,-0.364,-0.925,0.015
73557,1755586692155,20.49,-86.98,11.87,839,768,822,848,852,33.333333333333336,-0.362,-0.925,0.017
73587,1755586692184,20.47,-86.96,11.91,842,761,820,858,849,33.333333333333336,-0.364,-0.921,0.014
73617,1755586692214,20.46,-86.98,11.92,838,769,816,871,860,33.333333333333336,-0.366,-0.922,0.02
73646,1755586692243,20.47,-86.9,11.91,839,762,821,855,877,34.48275862068966,-0.364,-0.918,0.021
73675,1755586692273,20.48,-86.9,11.85,831,771,822,856,850,34.48275862068966,-0.365,-0.916,0.02
73705,1755586692302,20.55,-86.96,11.82,840,788,823,847,862,33.333333333333336,-0.369,-0.92,0.022
73734,1755586692331,20.63,-86.97,11.82,838,770,822,852,851,34.48275862068966,-0.368,-0.921,0.022
73764,1755586692361,20.68,-86.94,11.78,836,774,812,845,853,33.333333333333336,-0.366,-0.919,0.016
73793,1755586692390,20.68,-86.98,11.73,837,767,825,859,862,34.48275862068966,-0.365,-0.923,0.017
73823,1755586692420,20.74,-87.01,11.74,844,777,810,859,859,33.333333333333336,-0.366,-0.925,0.017
73853,1755586692450,20.75,-86.99,11.71,839,769,811,852,854,33.333333333333336,-0.369,-0.923,0.012
73882,1755586692479,20.72,-87.06,11.68,846,767,820,847,862,34.48275862068966,-0.367,-0.924,0.013
73911,1755586692508,20.76,-87.05,11.71,837,769,824,852,852,34.48275862068966,-0.367,-0.929,0.017
73941,1755586692539,20.76,-86.98,11.73,837,759,815,857,860,33.333333333333336,-0.365,-0.925,0.013
73961,1755586692558,20.72,-87.01,11.71,835,767,820,851,862,50.0,-0.362,-0.921,0.011
73990,1755586692588,20.72,-87.06,11.69,834,766,817,848,850,34.48275862068966,-0.364,-0.922,0.015
74020,1755586692617,20.73,-87.02,11.67,838,774,820,854,866,33.333333333333336,-0.365,-0.924,0.013
74050,1755586692647,20.69,-87.07,11.67,839,764,822,857,848,33.333333333333336,-0.363,-0.926,0.013
74079,1755586692676,20.71,-87.08,11.69,829,770,816,856,868,34.48275862068966,-0.364,-0.927,0.017
74108,1755586692706,20.73,-86.98,11.69,837,770,818,856,855,34.48275862068966,-0.362,-0.928,0.018
74138,1755586692735,20.71,-86.98,11.73,833,774,817,854,859,33.333333333333336,-0.36,-0.926,0.013
74168,1755586692765,20.75,-87.05,11.77,836,769,818,850,854,33.333333333333336,-0.362,-0.928,0.017
74197,1755586692794,20.78,-86.97,11.8,835,770,819,849,849,34.48275862068966,-0.363,-0.926,0.014
74227,1755586692824,20.75,-86.99,11.82,838,774,817,860,857,33.333333333333336,-0.362,-0.926,0.013
74256,1755586692853,20.75,-87.03,11.86,842,774,817,853,849,34.48275862068966,-0.363,-0.926,0.017
74286,1755586692883,20.73,-87.02,11.86,831,773,822,857,852,33.333333333333336,-0.362,-0.923,0.014
74315,1755586692912,20.71,-87.1,11.86,834,767,819,854,856,34.48275862068966,-0.36,-0.923,0.015
74345,1755586692942,20.73,-87.12,11.86,839,762,812,854,854,33.333333333333336,-0.361,-0.924,0.017
74374,1755586692972,20.72,-87.06,11.84,833,766,823,859,853,34.48275862068966,-0.361,-0.925,0.016
74404,1755586693001,20.69,-87.07,11.87,836,772,824,858,856,33.333333333333336,-0.361,-0.926,0.012
74433,1755586693030,20.67,-87.11,11.89,840,765,818,850,852,34.48275862068966,-0.363,-0.927,0.014
74463,1755586693060,20.61,-87.08,11.91,835,774,820,856,849,33.333333333333336,-0.364,-0.926,0.013
74492,1755586693089,20.53,-87.13,11.94,838,772,825,851,861,34.48275862068966,-0.361,-0.926,0.012
74522,1755586693119,20.52,-87.2,11.95,827,764,814,857,859,33.333333333333336,-0.359,-0.925,0.018
74551,1755586693149,20.57,-87.12,11.96,838,767,808,852,860,34.48275862068966,-0.36,-0.925,0.021
74581,1755586693178,20.61,-87.07,11.96,842,776,816,861,857,33.333333333333336,-0.36,-0.925,0.017
74610,1755586693208,20.61,-87.07,11.94,841,770,812,857,862,34.48275862068966,-0.364,-0.924,0.014
74640,1755586693237,20.58,-87.09,11.93,838,767,826,855,861,33.333333333333336,-0.363,-0.924,0.012
74670,1755586693267,20.51,-87.12,11.93,837,772,815,860,852,33.333333333333336,-0.361,-0.924,0.015
74699,1755586693296,20.51,-87.16,11.93,843,768,820,854,861,34.48275862068966,-0.363,-0.926,0.021
74729,1755586693326,20.59,-87.06,11.97,836,761,821,852,860,33.333333333333336,-0.363,-0.927,0.019
74758,1755586693355,20.59,-87.05,12.0,833,770,809,851,886,34.48275862068966,-0.362,-0.924,0.013
74787,1755586693384,20.56,-87.18,11.99,841,772,819,852,849,34.48275862068966,-0.359,-0.924,0.016
74817,1755586693414,20.62,-87.17,12.0,840,768,835,863,866,33.333333333333336,-0.36,-0.927,0.022
74846,1755586693443,20.69,-87.14,12.03,836,768,815,865,855,34.48275862068966,-0.358,-0.926,0.02
74876,1755586693473,20.76,-87.12,12.07,841,777,813,853,860,33.333333333333336,-0.362,-0.926,0.014
74906,1755586693503,20.71,-87.11,12.08,830,756,826,859,863,33.333333333333336,-0.364,-0.926,0.007
74935,1755586693532,20.65,-87.19,12.1,836,773,823,853,860,34.48275862068966,-0.362,-0.925,0.011
74964,1755586693561,20.64,-87.15,12.09,838,767,814,858,850,34.48275862068966,-0.361,-0.926,0.017
74994,1755586693592,20.62,-87.09,12.1,834,770,805,857,862,33.333333333333336,-0.36,-0.927,0.013
75023,1755586693621,20.62,-87.13,12.14,839,767,818,855,859,34.48275862068966,-0.362,-0.928,0.014
75043,1755586693641,20.63,-87.11,12.17,840,767,819,863,851,50.0,-0.364,-0.926,0.015
75073,1755586693670,20.59,-87.11,12.18,845,769,822,853,851,33.333333333333336,-0.362,-0.924,0.013
75102,1755586693700,20.56,-87.14,12.17,838,762,830,852,856,34.48275862068966,-0.36,-0.926,0.016
75132,1755586693729,20.58,-87.13,12.19,842,774,822,857,862,33.333333333333336,-0.362,-0.928,0.015
75161,1755586693759,20.56,-87.11,12.22,836,772,816,852,862,34.48275862068966,-0.361,-0.927,0.013
75191,1755586693788,20.53,-87.12,11.77,832,766,810,850,856,33.333333333333336,-0.361,-0.925,0.015
75220,1755586693818,20.52,-87.12,11.76,840,771,825,850,848,34.48275862068966,-0.361,-0.924,0.015
75250,1755586693847,20.51,-87.15,11.77,836,767,806,853,861,33.333333333333336,-0.36,-0.928,0.017
75279,1755586693876,20.55,-87.12,11.83,839,766,808,858,853,34.48275862068966,-0.362,-0.929,0.017
75309,1755586693906,20.55,-87.11,11.87,835,769,821,853,855,33.333333333333336,-0.361,-0.926,0.016
75338,1755586693936,20.55,-87.1,11.87,844,774,825,858,858,34.48275862068966,-0.359,-0.925,0.016
75368,1755586693966,20.56,-87.12,11.89,841,767,819,856,873,33.333333333333336,-0.359,-0.926,0.014
75398,1755586693995,20.55,-87.14,11.91,840,773,820,858,862,33.333333333333336,-0.361,-0.925,0.014
75428,1755586694025,20.56,-87.14,11.93,840,768,816,852,845,33.333333333333336,-0.361,-0.925,0.015
75457,1755586694054,20.57,-87.14,11.94,832,777,831,853,862,34.48275862068966,-0.36,-0.925,0.014
75487,1755586694084,20.55,-87.16,11.95,838,764,811,853,844,33.333333333333336,-0.361,-0.926,0.012
75516,1755586694113,20.5,-87.16,11.96,843,769,819,851,850,34.48275862068966,-0.36,-0.925,0.013
75546,1755586694143,20.52,-87.15,11.97,838,766,818,849,854,33.333333333333336,-0.36,-0.926,0.018
75575,1755586694172,20.58,-87.12,12.0,832,772,813,855,849,34.48275862068966,-0.361,-0.927,0.016
75605,1755586694202,20.61,-87.08,12.02,839,772,813,858,851,33.333333333333336,-0.361,-0.924,0.01
75634,1755586694231,20.55,-87.13,12.01,837,766,819,854,857,34.48275862068966,-0.359,-0.922,0.011
75663,1755586694260,21.0,-87.2,12.02,839,768,816,850,850,34.48275862068966,-0.359,-0.926,0.018
75693,1755586694290,21.05,-87.13,12.06,838,772,821,852,849,33.333333333333336,-0.36,-0.928,0.017
75722,1755586694319,21.06,-87.12,12.09,836,774,822,858,845,34.48275862068966,-0.359,-0.925,0.012
75752,1755586694349,21.04,-87.13,12.08,841,773,825,844,860,33.333333333333336,-0.36,-0.925,0.012
75781,1755586694378,21.01,-87.14,12.09,840,765,820,857,857,34.48275862068966,-0.36,-0.926,0.011
75811,1755586694408,20.97,-87.18,12.1,837,764,811,855,858,33.333333333333336,-0.36,-0.926,0.012
75840,1755586694437,20.96,-87.17,12.11,837,776,808,865,855,34.48275862068966,-0.36,-0.927,0.015
75870,1755586694467,20.98,-87.12,12.14,838,776,819,864,852,33.333333333333336,-0.36,-0.928,0.014
75899,1755586694497,20.96,-87.11,12.16,824,770,823,854,857,34.48275862068966,-0.361,-0.926,0.012
75929,1755586694526,20.9,-87.17,12.15,837,768,818,852,850,33.333333333333336,-0.359,-0.925,0.011
75959,1755586694556,20.88,-87.18,12.16,841,767,820,852,864,33.333333333333336,-0.361,-0.928,0.016
