timestamp_ms,recv_timestamp_ms,pitch,roll,yaw,flex1,flex2,flex3,flex4,flex5,sampling_hz,accel_x,accel_y,accel_z
41455,1755585124577,25.19,-87.71,-50.21,820,853,846,834,840,33.333333333333336,-0.414,-0.904,0.032
41485,1755585124606,25.3,-87.78,-50.19,833,870,835,839,847,33.333333333333336,-0.415,-0.902,0.034
41514,1755585124635,25.24,-87.78,-50.21,833,859,832,843,841,34.48275862068966,-0.416,-0.903,0.031
41544,1755585124665,25.21,-87.76,-50.21,825,866,826,837,836,33.333333333333336,-0.412,-0.903,0.029
41574,1755585124695,25.31,-87.82,-50.21,827,865,836,837,856,33.333333333333336,-0.413,-0.906,0.033
41603,1755585124724,25.28,-87.81,-50.21,833,875,833,838,844,34.48275862068966,-0.413,-0.903,0.038
41633,1755585124754,25.3,-87.84,-50.22,831,865,828,846,846,33.333333333333336,-0.417,-0.9,0.038
41662,1755585124783,25.26,-87.83,-50.26,832,856,821,853,843,34.48275862068966,-0.42,-0.901,0.037
41692,1755585124813,25.17,-87.81,-50.27,826,867,826,836,839,33.333333333333336,-0.42,-0.904,0.034
41721,1755585124843,25.23,-87.82,-50.24,830,870,832,828,844,34.48275862068966,-0.416,-0.904,0.033
41751,1755585124872,25.2,-87.8,-50.71,832,865,834,842,860,33.333333333333336,-0.414,-0.904,0.032
41781,1755585124902,25.16,-87.8,-50.72,832,862,843,833,847,33.333333333333336,-0.413,-0.905,0.035
41810,1755585124932,25.22,-87.75,-50.7,828,870,831,847,851,34.48275862068966,-0.414,-0.909,0.04
41840,1755585124961,25.17,-87.64,-50.63,826,872,838,836,850,33.333333333333336,-0.414,-0.909,0.036
41870,1755585124991,25.24,-87.7,-50.59,836,867,833,837,851,33.333333333333336,-0.41,-0.904,0.034
41899,1755585125020,25.24,-87.73,-50.62,831,858,834,830,845,34.48275862068966,-0.411,-0.897,0.036
41928,1755585125050,25.18,-87.7,-50.69,832,873,833,839,854,34.48275862068966,-0.418,-0.899,0.04
41958,1755585125079,25.22,-87.64,-50.68,833,874,834,837,838,33.333333333333336,-0.42,-0.906,0.042
41987,1755585125108,25.21,-87.68,-50.65,831,881,836,865,841,34.48275862068966,-0.414,-0.902,0.039
42017,1755585125138,25.28,-87.7,-50.67,828,864,827,835,852,33.333333333333336,-0.413,-0.9,0.039
42047,1755585125168,25.25,-87.62,-50.74,834,872,832,841,844,33.333333333333336,-0.417,-0.902,0.038
42076,1755585125197,25.26,-87.56,-50.73,827,864,832,840,843,34.48275862068966,-0.42,-0.906,0.036
42106,1755585125227,25.36,-87.61,-50.65,824,875,823,839,850,33.333333333333336,-0.418,-0.905,0.035
42135,1755585125256,25.35,-87.62,-50.64,834,872,834,839,844,34.48275862068966,-0.412,-0.901,0.037
42165,1755585125286,25.31,-87.56,-50.74,835,863,832,842,840,33.333333333333336,-0.41,-0.899,0.035
42194,1755585125315,25.31,-87.59,-50.81,828,873,838,841,848,34.48275862068966,-0.418,-0.903,0.03
42224,1755585125345,25.32,-87.68,-50.79,831,863,848,843,839,33.333333333333336,-0.416,-0.902,0.037
42253,1755585125374,25.34,-87.6,-50.86,834,870,836,845,839,34.48275862068966,-0.412,-0.901,0.043
42283,1755585125404,25.23,-87.42,-50.93,837,863,836,827,835,33.333333333333336,-0.415,-0.904,0.034
42312,1755585125434,25.21,-87.47,-50.92,832,876,832,835,841,34.48275862068966,-0.417,-0.907,0.03
42342,1755585125463,25.29,-87.54,-50.87,829,866,837,837,846,33.333333333333336,-0.418,-0.908,0.042
42371,1755585125493,25.25,-87.34,-50.83,832,873,835,843,849,34.48275862068966,-0.415,-0.907,0.048
42401,1755585125522,25.25,-87.19,-50.8,821,862,837,832,836,33.333333333333336,-0.411,-0.905,0.041
42430,1755585125552,25.28,-87.24,-50.81,832,868,810,838,852,34.48275862068966,-0.411,-0.903,0.037
42460,1755585125581,25.23,-87.23,-50.82,821,872,825,837,845,33.333333333333336,-0.417,-0.904,0.038
42489,1755585125611,25.27,-87.26,-50.83,843,856,840,835,853,34.48275862068966,-0.416,-0.902,0.043
42519,1755585125640,25.23,-87.24,-50.86,840,862,830,838,846,33.333333333333336,-0.414,-0.902,0.042
42548,1755585125670,25.14,-87.32,-50.9,831,862,833,837,850,34.48275862068966,-0.412,-0.904,0.041
42578,1755585125699,25.21,-87.26,-50.91,834,874,828,842,848,33.333333333333336,-0.413,-0.904,0.046
42608,1755585125729,25.16,-87.19,-50.94,831,861,833,835,844,33.333333333333336,-0.412,-0.902,0.041
42637,1755585125759,25.14,-87.29,-50.98,825,864,835,832,848,34.48275862068966,-0.415,-0.903,0.041
42667,1755585125788,25.1,-87.36,-51.01,836,874,825,837,850,33.333333333333336,-0.414,-0.903,0.043
42697,1755585125818,25.05,-87.37,-51.04,833,877,838,837,840,33.333333333333336,-0.416,-0.905,0.043
42726,1755585125848,25.1,-87.36,-51.04,834,863,825,839,850,34.48275862068966,-0.412,-0.905,0.042
42756,1755585125878,25.11,-87.37,-51.05,830,864,844,840,838,33.333333333333336,-0.413,-0.908,0.039
42786,1755585125908,25.1,-87.43,-51.04,833,864,860,838,848,33.333333333333336,-0.41,-0.907,0.036
42816,1755585125937,25.16,-87.42,-51.06,833,866,835,832,847,33.333333333333336,-0.41,-0.907,0.041
42845,1755585125967,25.12,-87.36,-51.06,827,857,834,838,850,34.48275862068966,-0.413,-0.91,0.041
42875,1755585125996,25.15,-87.36,-51.01,829,864,835,838,837,33.333333333333336,-0.413,-0.907,0.037
42905,1755585126026,25.14,-87.45,-51.02,828,868,819,836,839,33.333333333333336,-0.411,-0.902,0.037
42934,1755585126056,25.09,-87.47,-51.07,832,861,837,847,849,34.48275862068966,-0.41,-0.902,0.037
42964,1755585126085,25.1,-87.47,-51.08,825,872,825,827,837,33.333333333333336,-0.413,-0.908,0.038
42994,1755585126115,25.1,-87.47,-51.03,828,872,837,849,846,33.333333333333336,-0.412,-0.906,0.039
43023,1755585126144,25.09,-87.51,-51.0,833,868,832,842,855,34.48275862068966,-0.409,-0.902,0.039
43053,1755585126174,25.07,-87.52,-51.04,829,860,827,842,851,33.333333333333336,-0.409,-0.903,0.037
43082,1755585126203,25.07,-87.51,-51.03,824,869,830,837,837,34.48275862068966,-0.414,-0.907,0.037
43112,1755585126233,25.06,-87.53,-51.0,832,862,826,835,854,33.333333333333336,-0.413,-0.905,0.04
43141,1755585126263,25.05,-87.52,-51.02,833,869,841,837,852,34.48275862068966,-0.411,-0.902,0.041
43171,1755585126292,25.01,-87.51,-51.07,824,870,836,842,845,33.333333333333336,-0.41,-0.903,0.038
43201,1755585126322,25.0,-87.52,-51.07,824,872,825,840,844,33.333333333333336,-0.412,-0.907,0.034
43230,1755585126351,25.05,-87.58,-51.03,837,863,834,841,853,34.48275862068966,-0.414,-0.908,0.037
43260,1755585126381,25.06,-87.54,-51.0,834,873,840,841,844,33.333333333333336,-0.411,-0.905,0.041
43289,1755585126410,25.04,-87.51,-51.04,832,878,827,843,844,34.48275862068966,-0.408,-0.903,0.039
43319,1755585126440,25.01,-87.54,-51.07,829,871,822,841,845,33.333333333333336,-0.411,-0.905,0.036
43348,1755585126469,25.0,-87.55,-51.06,838,876,832,837,851,34.48275862068966,-0.412,-0.906,0.036
43378,1755585126499,25.03,-87.53,-51.05,832,867,851,852,853,33.333333333333336,-0.412,-0.907,0.038
43408,1755585126529,25.0,-87.48,-51.06,829,865,821,837,840,33.333333333333336,-0.411,-0.905,0.038
43437,1755585126559,25.01,-87.49,-51.06,836,872,835,837,846,34.48275862068966,-0.411,-0.905,0.035
43467,1755585126588,25.01,-87.54,-51.08,834,854,830,834,850,33.333333333333336,-0.412,-0.903,0.035
43496,1755585126618,24.98,-87.57,-51.1,825,864,820,843,845,34.48275862068966,-0.414,-0.906,0.036
43526,1755585126647,24.98,-87.56,-51.08,823,876,830,837,849,33.333333333333336,-0.413,-0.906,0.036
43556,1755585126677,25.0,-87.57,-51.09,834,854,843,851,852,33.333333333333336,-0.411,-0.903,0.037
43585,1755585126707,25.0,-87.54,-51.14,834,873,827,836,855,34.48275862068966,-0.411,-0.903,0.036
43615,1755585126736,24.97,-87.56,-51.17,834,859,815,843,839,33.333333333333336,-0.414,-0.907,0.033
43645,1755585126766,24.98,-87.62,-51.15,830,866,837,835,842,33.333333333333336,-0.411,-0.906,0.034
43674,1755585126795,25.0,-87.62,-51.16,831,870,822,832,847,34.48275862068966,-0.409,-0.906,0.039
43704,1755585126825,24.95,-87.58,-51.19,832,881,831,836,844,33.333333333333336,-0.41,-0.905,0.035
43733,1755585126854,24.96,-87.59,-51.18,831,871,833,841,844,34.48275862068966,-0.413,-0.906,0.029
43763,1755585126884,24.95,-87.64,-51.17,829,866,864,833,850,33.333333333333336,-0.412,-0.905,0.032
43792,1755585126914,24.91,-87.65,-51.18,828,859,833,843,844,34.48275862068966,-0.41,-0.904,0.037
43822,1755585126943,24.96,-87.57,-51.18,832,874,838,837,850,33.333333333333336,-0.41,-0.906,0.036
43852,1755585126973,24.95,-87.54,-51.17,816,868,835,835,845,33.333333333333336,-0.412,-0.905,0.033
43881,1755585127002,24.94,-87.57,-51.18,830,869,837,828,849,34.48275862068966,-0.411,-0.903,0.033
43911,1755585127032,24.93,-87.57,-51.2,832,871,826,845,844,33.333333333333336,-0.411,-0.905,0.035
43940,1755585127061,24.95,-87.55,-51.19,821,869,829,829,846,34.48275862068966,-0.41,-0.905,0.034
43970,1755585127091,24.95,-87.66,-51.18,825,876,823,840,834,33.333333333333336,-0.412,-0.908,0.034
43999,1755585127121,24.97,-87.7,-51.17,821,864,826,842,842,34.48275862068966,-0.411,-0.905,0.035
44029,1755585127150,24.96,-87.74,-51.19,825,875,839,845,846,33.333333333333336,-0.412,-0.904,0.036
44059,1755585127180,25.02,-87.75,-51.18,829,873,821,837,843,33.333333333333336,-0.413,-0.908,0.035
44088,1755585127210,25.0,-87.74,-51.17,843,876,832,840,842,34.48275862068966,-0.411,-0.907,0.031
44118,1755585127239,24.99,-87.79,-51.18,828,867,835,843,845,33.333333333333336,-0.411,-0.906,0.03
44148,1755585127269,25.02,-87.85,-51.18,838,881,824,850,853,33.333333333333336,-0.412,-0.906,0.031
44177,1755585127299,25.02,-87.91,-51.15,827,859,825,840,859,34.48275862068966,-0.414,-0.909,0.03
44207,1755585127329,25.03,-87.83,-51.14,827,865,839,844,857,33.333333333333336,-0.412,-0.906,0.031
44236,1755585127358,24.94,-87.79,-51.19,828,862,828,839,844,34.48275862068966,-0.41,-0.902,0.032
44266,1755585127387,24.94,-87.76,-51.24,831,865,838,838,849,33.333333333333336,-0.412,-0.904,0.031
44295,1755585127417,24.95,-87.77,-51.21,829,860,830,834,848,34.48275862068966,-0.413,-0.907,0.028
44325,1755585127446,25.0,-87.81,-51.17,822,866,840,835,843,33.333333333333336,-0.412,-0.905,0.029
44355,1755585127476,24.98,-87.8,-51.19,835,876,825,845,851,33.333333333333336,-0.411,-0.903,0.032
44384,1755585127505,24.91,-87.78,-51.23,828,859,835,839,839,34.48275862068966,-0.412,-0.905,0.033
44414,1755585127535,24.95,-87.77,-51.2,831,870,830,832,847,33.333333333333336,-0.414,-0.908,0.031
44443,1755585127564,24.92,-87.81,-51.18,831,867,841,842,845,34.48275862068966,-0.412,-0.905,0.03
44473,1755585127594,24.93,-87.85,-51.19,828,879,816,861,852,33.333333333333336,-0.411,-0.903,0.03
44502,1755585127624,24.93,-87.85,-51.21,834,866,832,848,842,34.48275862068966,-0.413,-0.905,0.031
44532,1755585127653,24.88,-87.86,-51.18,831,867,836,835,849,33.333333333333336,-0.413,-0.905,0.03
44562,1755585127683,24.95,-87.9,-51.15,827,865,827,835,842,33.333333333333336,-0.413,-0.906,0.032
44591,1755585127712,24.92,-87.9,-51.15,826,858,819,843,844,34.48275862068966,-0.41,-0.904,0.031
44621,1755585127742,24.89,-87.87,-51.16,826,869,822,845,845,33.333333333333336,-0.411,-0.902,0.03
44651,1755585127772,24.91,-87.88,-51.17,832,868,835,846,847,33.333333333333336,-0.414,-0.906,0.029
44680,1755585127801,24.89,-87.88,-51.13,842,861,834,838,848,34.48275862068966,-0.413,-0.905,0.028
44710,1755585127831,24.91,-87.89,-51.09,828,865,833,842,852,33.333333333333336,-0.411,-0.903,0.031
44739,1755585127861,24.88,-87.85,-51.08,828,863,841,841,854,34.48275862068966,-0.41,-0.905,0.032
44769,1755585127890,24.87,-87.77,-51.06,833,864,820,835,858,33.333333333333336,-0.413,-0.904,0.03
44799,1755585127920,24.89,-87.77,-50.99,834,872,824,838,834,33.333333333333336,-0.415,-0.903,0.028
44828,1755585127949,24.84,-87.87,-50.91,830,873,827,833,838,34.48275862068966,-0.413,-0.904,0.025
44858,1755585127979,24.87,-87.85,-50.88,818,871,840,831,840,33.333333333333336,-0.41,-0.905,0.031
44887,1755585128009,24.89,-87.71,-50.88,830,867,836,853,840,34.48275862068966,-0.412,-0.904,0.038
44917,1755585128038,24.93,-87.59,-50.81,839,877,842,837,847,33.333333333333336,-0.416,-0.906,0.037
44946,1755585128068,24.99,-87.66,-50.76,831,878,833,826,845,34.48275862068966,-0.415,-0.903,0.03
44976,1755585128097,25.03,-87.7,-50.76,834,857,830,840,847,33.333333333333336,-0.416,-0.9,0.031
45006,1755585128128,25.0,-87.67,-50.81,826,864,830,828,832,33.333333333333336,-0.417,-0.9,0.033
45026,1755585128147,24.98,-87.65,-50.84,825,871,830,849,846,50.0,-0.418,-0.903,0.033
45056,1755585128177,25.03,-87.64,-50.83,833,875,817,841,852,33.333333333333336,-0.418,-0.902,0.033
45085,1755585128207,25.01,-87.64,-50.86,835,871,834,836,831,34.48275862068966,-0.419,-0.901,0.031
45115,1755585128236,24.98,-88.08,-50.9,826,868,835,850,846,33.333333333333336,-0.42,-0.902,0.031
45145,1755585128266,25.05,-88.07,-50.85,828,868,824,840,840,33.333333333333336,-0.423,-0.907,0.036
45174,1755585128295,25.12,-87.9,-50.71,830,868,832,838,849,34.48275862068966,-0.423,-0.908,0.041
45204,1755585128325,25.15,-87.71,-50.64,835,868,811,833,848,33.333333333333336,-0.42,-0.903,0.041
45233,1755585128354,25.12,-87.49,-50.65,826,865,843,840,851,34.48275862068966,-0.421,-0.901,0.037
45263,1755585128384,25.14,-87.52,-50.6,823,873,826,836,848,33.333333333333336,-0.424,-0.901,0.033
45292,1755585128413,25.24,-87.61,-50.55,829,864,835,843,847,34.48275862068966,-0.425,-0.902,0.037
45322,1755585128443,25.28,-87.59,-50.5,827,869,826,843,840,33.333333333333336,-0.424,-0.902,0.041
45351,1755585128472,25.22,-87.53,-50.52,829,868,827,839,842,34.48275862068966,-0.424,-0.898,0.04
45381,1755585128502,25.27,-87.65,-50.53,824,867,836,843,838,33.333333333333336,-0.426,-0.898,0.038
45410,1755585128532,25.34,-87.68,-50.51,835,860,827,835,836,34.48275862068966,-0.427,-0.899,0.041
45440,1755585128561,25.3,-87.63,-50.55,824,862,823,845,844,33.333333333333336,-0.426,-0.899,0.041
45469,1755585128591,25.25,-87.64,-50.59,833,875,830,843,852,34.48275862068966,-0.425,-0.899,0.041
45499,1755585128621,25.28,-87.68,-50.61,834,873,825,832,851,33.333333333333336,-0.426,-0.899,0.039
45529,1755585128650,25.24,-87.7,-50.64,833,862,837,831,851,33.333333333333336,-0.425,-0.897,0.041
45559,1755585128680,25.27,-87.68,-50.68,837,855,837,842,839,33.333333333333336,-0.424,-0.897,0.041
45588,1755585128709,25.25,-87.71,-50.72,831,862,824,825,843,34.48275862068966,-0.424,-0.898,0.039
45618,1755585128739,25.21,-87.79,-50.76,826,869,830,836,847,33.333333333333336,-0.424,-0.899,0.038
45647,1755585128769,25.25,-87.81,-50.8,828,876,828,843,841,34.48275862068966,-0.423,-0.9,0.041
45677,1755585128798,25.22,-87.75,-50.84,827,871,836,846,849,33.333333333333336,-0.422,-0.899,0.041
45706,1755585128828,25.24,-87.75,-50.87,833,842,825,834,846,34.48275862068966,-0.423,-0.901,0.038
45736,1755585128857,25.28,-87.77,-50.86,826,865,825,830,866,33.333333333333336,-0.424,-0.901,0.035
45766,1755585128887,25.28,-87.8,-50.88,828,870,828,845,850,33.333333333333336,-0.424,-0.901,0.038
45795,1755585128916,25.26,-87.75,-50.89,834,865,831,843,846,34.48275862068966,-0.422,-0.901,0.04
45825,1755585128946,25.29,-87.74,-50.89,830,866,829,833,845,33.333333333333336,-0.421,-0.903,0.039
45854,1755585128976,25.33,-87.73,-50.86,827,871,824,848,844,34.48275862068966,-0.421,-0.903,0.036
45884,1755585129005,25.34,-87.73,-50.86,824,870,835,836,848,33.333333333333336,-0.421,-0.902,0.036
45913,1755585129035,25.36,-87.7,-50.85,835,865,841,844,842,34.48275862068966,-0.422,-0.9,0.035
45943,1755585129064,25.39,-87.73,-50.84,822,868,823,847,849,33.333333333333336,-0.423,-0.899,0.034
45972,1755585129094,25.35,-87.79,-50.86,825,870,826,853,839,34.48275862068966,-0.421,-0.898,0.034
45993,1755585129114,25.33,-87.81,-50.89,825,860,832,840,844,47.61904761904762,-0.42,-0.899,0.036
46022,1755585129143,25.33,-87.74,-50.91,831,871,834,833,846,34.48275862068966,-0.421,-0.902,0.037
46052,1755585129173,25.32,-87.76,-50.9,831,877,846,839,839,33.333333333333336,-0.421,-0.903,0.035
46082,1755585129203,25.37,-87.75,-50.88,828,866,838,842,845,33.333333333333336,-0.422,-0.9,0.036
46111,1755585129232,25.33,-87.79,-50.94,838,865,832,843,853,34.48275862068966,-0.419,-0.896,0.033
46140,1755585129262,25.29,-87.8,-51.02,827,870,837,839,848,34.48275862068966,-0.422,-0.898,0.035
46170,1755585129291,25.32,-87.81,-51.01,827,866,840,837,852,33.333333333333336,-0.423,-0.904,0.038
46200,1755585129321,25.35,-87.75,-50.96,828,868,834,845,849,33.333333333333336,-0.423,-0.904,0.038
46229,1755585129351,25.34,-87.75,-50.96,829,865,832,845,829,34.48275862068966,-0.42,-0.9,0.034
46259,1755585129380,25.31,-87.76,-51.0,834,872,834,857,848,33.333333333333336,-0.42,-0.899,0.034
46289,1755585129410,25.29,-87.76,-51.01,833,880,836,842,846,33.333333333333336,-0.422,-0.903,0.036
46318,1755585129440,25.31,-87.75,-50.98,832,862,831,840,859,34.48275862068966,-0.42,-0.902,0.037
46348,1755585129469,25.32,-87.73,-50.96,828,862,830,838,847,33.333333333333336,-0.42,-0.901,0.035
46378,1755585129499,25.32,-87.76,-50.96,831,871,821,848,850,33.333333333333336,-0.422,-0.899,0.032
46407,1755585129528,25.3,-87.81,-50.96,830,871,835,839,855,34.48275862068966,-0.423,-0.901,0.035
46437,1755585129558,25.31,-87.78,-50.93,826,873,829,843,849,33.333333333333336,-0.422,-0.903,0.04
46466,1755585129587,25.31,-87.72,-50.91,826,867,833,838,852,34.48275862068966,-0.419,-0.904,0.039
46496,1755585129617,25.3,-87.72,-50.9,828,865,835,835,837,33.333333333333336,-0.42,-0.898,0.034
46525,1755585129647,25.34,-87.79,-50.92,829,873,833,839,850,34.48275862068966,-0.422,-0.896,0.034
46555,1755585129676,25.32,-87.75,-50.94,827,864,841,847,841,33.333333333333336,-0.422,-0.898,0.037
46585,1755585129706,25.3,-87.76,-50.93,828,874,833,845,846,33.333333333333336,-0.42,-0.902,0.036
46614,1755585129736,25.35,-87.78,-50.93,833,864,830,842,848,34.48275862068966,-0.42,-0.901,0.039
46644,1755585129765,25.33,-87.72,-50.94,820,867,829,834,851,33.333333333333336,-0.42,-0.898,0.039
46673,1755585129795,25.35,-87.71,-50.96,837,873,846,830,847,34.48275862068966,-0.423,-0.899,0.035
46703,1755585129824,25.36,-87.75,-50.97,834,864,825,827,867,33.333333333333336,-0.423,-0.9,0.033
46732,1755585129854,25.35,-87.77,-50.97,825,869,833,836,848,34.48275862068966,-0.422,-0.901,0.037
46762,1755585129883,25.39,-87.75,-50.97,833,871,831,839,845,33.333333333333336,-0.421,-0.901,0.039
46791,1755585129913,25.4,-87.71,-50.99,833,871,833,843,846,34.48275862068966,-0.422,-0.899,0.036
46821,1755585129942,25.37,-87.73,-51.03,829,870,843,840,843,33.333333333333336,-0.422,-0.898,0.032
46851,1755585129972,25.41,-87.79,-51.05,824,871,840,838,840,33.333333333333336,-0.423,-0.901,0.034
46880,1755585130002,25.39,-87.89,-51.09,828,863,831,836,846,34.48275862068966,-0.421,-0.899,0.035
46910,1755585130031,25.37,-87.89,-51.14,829,867,836,836,852,33.333333333333336,-0.42,-0.901,0.036
46940,1755585130061,25.39,-87.87,-51.15,831,872,842,844,849,33.333333333333336,-0.422,-0.903,0.036
46969,1755585130090,25.39,-87.86,-51.15,823,859,833,836,837,34.48275862068966,-0.42,-0.901,0.033
46999,1755585130120,25.42,-87.89,-51.19,836,870,815,838,847,33.333333333333336,-0.42,-0.9,0.032
47029,1755585130151,25.41,-87.9,-51.22,829,859,835,846,842,33.333333333333336,-0.421,-0.903,0.031
47049,1755585130171,25.37,-87.92,-51.24,825,870,837,838,845,50.0,-0.421,-0.904,0.032
47079,1755585130200,25.35,-87.96,-51.25,826,859,833,840,874,33.333333333333336,-0.421,-0.903,0.034
47109,1755585130230,25.38,-87.95,-51.26,834,873,836,835,844,33.333333333333336,-0.421,-0.903,0.034
47138,1755585130259,25.35,-87.92,-51.28,834,874,829,838,844,34.48275862068966,-0.42,-0.903,0.031
47168,1755585130289,25.37,-87.95,-51.26,833,871,831,839,836,33.333333333333336,-0.42,-0.905,0.032
47197,1755585130319,25.37,-87.99,-51.24,824,865,831,839,846,34.48275862068966,-0.419,-0.905,0.034
47227,1755585130348,25.35,-87.94,-51.24,832,871,825,842,846,33.333333333333336,-0.418,-0.903,0.032
47257,1755585130378,25.31,-87.95,-51.25,826,861,826,842,851,33.333333333333336,-0.418,-0.902,0.027
47286,1755585130408,25.33,-88.03,-51.22,829,872,836,841,837,34.48275862068966,-0.418,-0.903,0.034
47316,1755585130437,25.36,-87.97,-51.21,836,862,831,837,856,33.333333333333336,-0.417,-0.904,0.039
47345,1755585130467,25.28,-87.89,-51.21,829,868,831,835,847,34.48275862068966,-0.417,-0.904,0.035
47375,1755585130496,25.32,-87.94,-51.17,830,868,827,836,854,33.333333333333336,-0.418,-0.902,0.031
47404,1755585130526,25.35,-88.0,-51.17,832,865,835,836,857,34.48275862068966,-0.417,-0.899,0.033
47434,1755585130555,25.33,-87.95,-51.18,830,867,835,854,841,33.333333333333336,-0.417,-0.901,0.034
47464,1755585130585,25.35,-88.0,-51.2,826,868,827,836,845,33.333333333333336,-0.416,-0.9,0.03
47493,1755585130614,25.33,-88.06,-51.27,830,860,827,837,848,34.48275862068966,-0.419,-0.898,0.031
47522,1755585130644,25.24,-88.07,-51.32,832,864,820,845,851,34.48275862068966,-0.421,-0.902,0.028
47552,1755585130673,25.25,-88.11,-51.33,834,869,832,838,840,33.333333333333336,-0.42,-0.902,0.03
47581,1755585130703,25.26,-88.11,-51.33,832,861,838,846,848,34.48275862068966,-0.419,-0.901,0.036
47611,1755585130733,25.23,-88.09,-51.37,832,873,835,836,844,33.333333333333336,-0.417,-0.903,0.039
47641,1755585130762,25.26,-88.02,-51.37,830,856,834,840,844,33.333333333333336,-0.419,-0.907,0.034
47671,1755585130792,25.26,-88.11,-51.33,835,876,845,846,838,33.333333333333336,-0.418,-0.907,0.029
47700,1755585130821,25.31,-88.14,-51.31,830,869,830,838,846,34.48275862068966,-0.418,-0.903,0.032
47730,1755585130851,25.26,-88.12,-51.35,819,865,818,843,835,33.333333333333336,-0.416,-0.901,0.03
47759,1755585130880,25.27,-88.12,-51.37,834,861,840,836,852,34.48275862068966,-0.415,-0.904,0.031
47789,1755585130910,25.29,-88.08,-51.37,826,871,828,834,845,33.333333333333336,-0.415,-0.904,0.032
47818,1755585130940,25.24,-88.04,-51.39,827,873,837,841,845,34.48275862068966,-0.419,-0.902,0.029
47848,1755585130970,25.22,-88.03,-51.4,836,868,828,835,852,33.333333333333336,-0.418,-0.9,0.025
47878,1755585130999,25.16,-88.11,-51.41,827,863,830,842,868,33.333333333333336,-0.42,-0.905,0.025
47908,1755585131029,25.19,-88.17,-51.34,826,870,835,837,847,33.333333333333336,-0.42,-0.908,0.031
47937,1755585131058,25.25,-88.17,-51.27,825,874,832,841,863,34.48275862068966,-0.414,-0.909,0.034
47967,1755585131088,25.29,-88.16,-51.2,830,864,833,844,842,33.333333333333336,-0.416,-0.908,0.031
47996,1755585131117,25.27,-88.1,-51.19,829,868,836,832,853,34.48275862068966,-0.419,-0.898,0.028
48026,1755585131147,25.25,-88.11,-51.25,834,872,824,838,849,33.333333333333336,-0.421,-0.895,0.029
48055,1755585131177,25.2,-88.14,-51.27,831,870,832,845,845,34.48275862068966,-0.42,-0.9,0.028
48076,1755585131197,25.18,-88.21,-51.26,831,867,831,846,839,47.61904761904762,-0.417,-0.907,0.027
48105,1755585131227,25.21,-88.23,-51.22,830,860,829,830,842,34.48275862068966,-0.416,-0.909,0.031
48135,1755585131256,25.19,-88.19,-51.19,833,858,833,844,845,33.333333333333336,-0.417,-0.905,0.031
48165,1755585131286,25.21,-88.16,-51.21,831,874,832,841,837,33.333333333333336,-0.418,-0.9,0.032
48194,1755585131315,25.21,-88.17,-51.24,829,873,832,843,827,34.48275862068966,-0.419,-0.902,0.029
48224,1755585131345,25.21,-88.2,-51.22,832,869,833,840,845,33.333333333333336,-0.42,-0.902,0.027
48253,1755585131374,25.26,-88.24,-51.22,823,877,820,854,839,34.48275862068966,-0.419,-0.901,0.03
48283,1755585131404,25.25,-88.17,-51.24,828,860,830,834,840,33.333333333333336,-0.419,-0.898,0.03
48312,1755585131434,25.24,-88.17,-51.28,830,865,827,839,845,34.48275862068966,-0.419,-0.9,0.026
48342,1755585131463,25.3,-88.22,-51.27,828,866,828,840,841,33.333333333333336,-0.419,-0.903,0.029
48371,1755585131493,25.36,-88.25,-51.26,827,867,828,828,843,34.48275862068966,-0.418,-0.902,0.033
48401,1755585131522,25.36,-88.18,-51.29,827,870,838,835,840,33.333333333333336,-0.42,-0.901,0.031
48430,1755585131552,25.38,-88.14,-51.3,835,869,826,831,845,34.48275862068966,-0.42,-0.902,0.027
48460,1755585131581,25.35,-88.19,-51.32,832,864,826,832,844,33.333333333333336,-0.42,-0.903,0.022
48490,1755585131611,25.32,-88.24,-51.31,828,870,834,839,840,33.333333333333336,-0.418,-0.903,0.021
48519,1755585131640,25.34,-88.24,-51.32,827,875,826,844,844,34.48275862068966,-0.418,-0.901,0.028
48549,1755585131670,25.33,-88.19,-51.36,836,866,820,839,847,33.333333333333336,-0.419,-0.901,0.033
48578,1755585131699,25.32,-88.18,-51.37,829,866,830,835,843,34.48275862068966,-0.42,-0.902,0.03
48608,1755585131729,25.34,-88.25,-51.39,823,867,827,841,845,33.333333333333336,-0.419,-0.902,0.026
48637,1755585131758,25.34,-88.23,-51.4,834,858,830,838,849,34.48275862068966,-0.418,-0.902,0.027
48667,1755585131788,25.35,-88.24,-51.42,831,864,828,838,841,33.333333333333336,-0.419,-0.903,0.026
48696,1755585131817,25.31,-88.26,-51.46,827,862,838,840,849,34.48275862068966,-0.42,-0.902,0.025
48726,1755585131847,25.29,-88.25,-51.45,829,870,820,844,839,33.333333333333336,-0.418,-0.908,0.026
48755,1755585131876,25.31,-88.18,-51.42,832,873,839,829,841,34.48275862068966,-0.416,-0.906,0.024
48785,1755585131906,25.3,-88.23,-51.43,827,869,835,836,839,33.333333333333336,-0.417,-0.9,0.023
48814,1755585131935,25.29,-88.25,-51.49,833,866,825,849,838,34.48275862068966,-0.42,-0.899,0.024
48844,1755585131965,25.25,-88.23,-51.5,828,860,832,837,845,33.333333333333336,-0.42,-0.905,0.026
48873,1755585131994,25.29,-88.26,-51.45,829,864,834,834,840,34.48275862068966,-0.415,-0.903,0.029
48903,1755585132024,25.23,-88.28,-51.51,825,877,836,843,850,33.333333333333336,-0.415,-0.898,0.026
48932,1755585132054,25.17,-88.3,-51.58,831,876,843,839,836,34.48275862068966,-0.419,-0.901,0.021
48962,1755585132083,25.12,-88.4,-51.6,835,864,836,838,849,33.333333333333336,-0.421,-0.902,0.021
48992,1755585132113,25.15,-88.43,-51.58,836,861,848,843,840,33.333333333333336,-0.415,-0.903,0.027
49021,1755585132142,25.2,-88.41,-51.6,826,866,831,850,840,34.48275862068966,-0.412,-0.904,0.031
49051,1755585132172,25.26,-88.28,-51.59,827,865,838,838,836,33.333333333333336,-0.414,-0.907,0.032
49080,1755585132201,25.28,-88.2,-51.56,835,872,843,839,845,34.48275862068966,-0.416,-0.901,0.023
49110,1755585132231,25.27,-88.31,-51.56,826,861,826,837,860,33.333333333333336,-0.418,-0.9,0.014
49139,1755585132261,25.26,-88.48,-51.56,835,866,826,846,839,34.48275862068966,-0.418,-0.901,0.015
49169,1755585132290,25.21,-88.5,-51.6,830,873,820,834,842,33.333333333333336,-0.414,-0.903,0.024
49199,1755585132320,25.18,-88.42,-51.59,838,866,835,834,848,33.333333333333336,-0.413,-0.912,0.034
49228,1755585132350,25.25,-88.31,-51.5,827,864,830,838,840,34.48275862068966,-0.413,-0.909,0.031
49258,1755585132379,25.26,-88.33,-51.51,838,870,841,838,837,33.333333333333336,-0.416,-0.896,0.031
49287,1755585132409,25.22,-88.3,-51.61,834,871,822,835,847,34.48275862068966,-0.416,-0.899,0.028
49317,1755585132438,25.21,-88.32,-51.65,828,867,831,832,849,33.333333333333336,-0.414,-0.905,0.018
49346,1755585132468,25.28,-88.39,-51.64,835,864,828,833,839,34.48275862068966,-0.415,-0.906,0.023
49376,1755585132498,25.37,-88.34,-51.67,826,865,834,846,839,33.333333333333336,-0.411,-0.9,0.029
49406,1755585132527,25.49,-88.11,-51.77,830,862,835,836,837,33.333333333333336,-0.413,-0.9,0.025
49436,1755585132557,25.46,-88.1,-51.82,831,865,822,842,847,33.333333333333336,-0.418,-0.909,0.019
49465,1755585132587,25.56,-88.21,-51.71,832,874,837,837,842,34.48275862068966,-0.42,-0.911,0.019
49495,1755585132616,25.74,-88.24,-51.61,829,870,830,836,853,33.333333333333336,-0.41,-0.902,0.023
49525,1755585132646,25.66,-88.18,-51.72,829,869,827,835,848,33.333333333333336,-0.408,-0.9,0.026
49554,1755585132675,25.56,-88.12,-51.74,829,870,823,847,851,34.48275862068966,-0.414,-0.907,0.024
49584,1755585132705,25.73,-88.19,-51.65,830,869,838,838,854,33.333333333333336,-0.415,-0.908,0.026
49613,1755585132734,25.78,-88.12,-51.64,831,871,829,837,848,34.48275862068966,-0.414,-0.906,0.03
49643,1755585132764,25.68,-88.07,-51.67,829,859,834,825,861,33.333333333333336,-0.418,-0.904,0.025
49672,1755585132794,25.72,-88.12,-51.65,838,859,818,835,847,34.48275862068966,-0.416,-0.903,0.022
49702,1755585132823,25.74,-88.14,-51.66,829,871,825,836,860,33.333333333333336,-0.413,-0.903,0.026
49731,1755585132853,25.66,-88.09,-51.69,827,864,835,832,857,34.48275862068966,-0.415,-0.907,0.023
49761,1755585132882,25.6,-88.12,-51.68,828,859,830,838,847,33.333333333333336,-0.415,-0.902,0.016
49791,1755585132912,25.61,-88.29,-51.67,832,878,831,839,837,33.333333333333336,-0.415,-0.903,0.019
49820,1755585132941,25.6,-88.33,-51.69,830,861,832,838,847,34.48275862068966,-0.414,-0.904,0.025
49850,1755585132971,25.53,-88.24,-51.72,824,868,837,834,851,33.333333333333336,-0.414,-0.906,0.023
49879,1755585133001,25.51,-88.34,-51.72,834,860,836,831,839,34.48275862068966,-0.412,-0.906,0.024
49909,1755585133030,25.56,-88.37,-51.7,827,864,833,832,850,33.333333333333336,-0.414,-0.904,0.026
49938,1755585133060,25.48,-88.36,-51.76,829,857,826,854,841,34.48275862068966,-0.416,-0.903,0.022
49968,1755585133090,25.43,-88.33,-51.75,833,866,833,851,840,33.333333333333336,-0.417,-0.911,0.019
49998,1755585133119,25.51,-88.35,-51.67,829,865,834,842,849,33.333333333333336,-0.411,-0.91,0.02
50027,1755585133148,25.56,-88.36,-51.64,828,864,825,839,844,34.48275862068966,-0.41,-0.906,0.026
50057,1755585133178,25.58,-88.29,-51.65,833,862,840,841,852,33.333333333333336,-0.415,-0.904,0.026
50086,1755585133207,25.56,-88.27,-51.66,836,861,832,847,842,34.48275862068966,-0.419,-0.901,0.021
50116,1755585133237,25.56,-88.3,-51.66,831,875,827,839,847,33.333333333333336,-0.419,-0.905,0.023
50145,1755585133267,25.57,-88.28,-51.64,824,870,834,841,841,34.48275862068966,-0.415,-0.906,0.024
50175,1755585133296,25.55,-88.29,-51.65,828,870,833,835,849,33.333333333333336,-0.412,-0.902,0.019
50204,1755585133326,25.56,-88.32,-51.67,825,872,826,851,842,34.48275862068966,-0.416,-0.903,0.019
50234,1755585133356,25.54,-88.33,-51.67,831,867,822,839,861,33.333333333333336,-0.417,-0.906,0.021
50263,1755585133385,25.5,-88.32,-51.65,827,859,825,836,844,34.48275862068966,-0.414,-0.905,0.023
