timestamp_ms,recv_timestamp_ms,pitch,roll,yaw,flex1,flex2,flex3,flex4,flex5,sampling_hz,accel_x,accel_y,accel_z
42070,1755587305401,13.74,59.42,-10.8,787,778,768,852,864,34.48275862068966,-0.242,0.845,0.504
42100,1755587305431,13.76,59.46,-10.75,783,774,770,852,872,33.333333333333336,-0.24,0.844,0.496
42129,1755587305460,13.81,59.44,-10.75,787,770,768,846,873,34.48275862068966,-0.238,0.843,0.492
42159,1755587305489,13.93,59.47,-10.83,791,777,773,851,879,33.333333333333336,-0.238,0.847,0.496
42188,1755587305519,14.01,59.29,-10.95,797,780,774,853,864,34.48275862068966,-0.239,0.848,0.492
42217,1755587305548,14.02,59.07,-11.02,792,775,772,834,870,34.48275862068966,-0.233,0.834,0.494
42247,1755587305577,14.07,59.1,-11.09,789,770,769,847,861,33.333333333333336,-0.24,0.845,0.496
42276,1755587305607,14.04,59.05,-11.12,790,776,774,842,867,34.48275862068966,-0.244,0.848,0.49
42306,1755587305637,13.94,58.96,-11.14,800,781,770,845,889,33.333333333333336,-0.243,0.84,0.493
42335,1755587305666,13.96,58.93,-11.13,794,771,770,838,866,34.48275862068966,-0.242,0.842,0.5
42365,1755587305696,13.53,59.17,-11.09,793,782,771,847,869,33.333333333333336,-0.246,0.851,0.499
42394,1755587305725,13.52,59.33,-11.02,794,770,776,845,879,34.48275862068966,-0.242,0.837,0.498
42424,1755587305755,13.53,59.29,-10.99,793,773,767,852,864,33.333333333333336,-0.24,0.834,0.495
42453,1755587305785,13.45,59.34,-10.91,790,780,778,845,876,34.48275862068966,-0.242,0.844,0.492
42483,1755587305814,13.44,59.24,-10.98,795,777,774,844,862,33.333333333333336,-0.239,0.839,0.492
42513,1755587305843,13.47,59.32,-10.97,791,784,780,846,869,33.333333333333336,-0.241,0.843,0.496
42542,1755587305873,13.41,59.41,-10.9,795,783,773,847,869,34.48275862068966,-0.239,0.847,0.495
42572,1755587305903,13.39,59.34,-10.88,787,776,770,851,861,33.333333333333336,-0.238,0.84,0.491
42601,1755587305932,13.42,59.36,-10.89,791,781,776,844,865,34.48275862068966,-0.24,0.839,0.5
42631,1755587305961,13.43,59.46,-10.85,793,779,765,845,867,33.333333333333336,-0.243,0.846,0.499
42660,1755587305991,13.38,59.49,-10.8,784,774,770,844,866,34.48275862068966,-0.238,0.842,0.491
42690,1755587306020,13.35,59.45,-10.76,797,780,772,839,866,33.333333333333336,-0.234,0.838,0.492
42719,1755587306050,13.34,59.53,-10.73,793,778,766,851,873,34.48275862068966,-0.237,0.849,0.498
42748,1755587306079,13.33,59.44,-10.79,790,777,769,843,871,34.48275862068966,-0.234,0.84,0.497
42778,1755587306109,13.29,59.44,-10.79,788,778,772,851,857,33.333333333333336,-0.234,0.839,0.496
42807,1755587306138,13.27,59.4,-10.81,804,788,776,837,869,34.48275862068966,-0.234,0.845,0.496
42837,1755587306167,13.25,59.38,-10.84,791,775,770,841,868,33.333333333333336,-0.235,0.845,0.495
42866,1755587306197,13.17,59.27,-10.82,787,773,776,845,868,34.48275862068966,-0.232,0.837,0.498
42896,1755587306226,13.15,59.23,-10.83,789,783,777,841,859,33.333333333333336,-0.232,0.844,0.497
42925,1755587306256,13.18,59.18,-10.92,783,775,773,839,870,34.48275862068966,-0.232,0.842,0.498
42954,1755587306285,13.2,59.17,-10.93,793,780,771,842,866,34.48275862068966,-0.234,0.842,0.5
42984,1755587306315,13.17,59.13,-10.93,795,772,770,841,876,33.333333333333336,-0.233,0.843,0.498
43013,1755587306344,13.12,59.07,-10.93,797,772,773,848,863,34.48275862068966,-0.231,0.842,0.498
43043,1755587306373,13.07,59.02,-10.94,799,774,773,837,869,33.333333333333336,-0.228,0.838,0.503
43072,1755587306403,13.08,59.09,-10.94,799,771,777,842,859,34.48275862068966,-0.229,0.84,0.506
43101,1755587306432,13.11,59.16,-10.98,788,769,773,852,875,34.48275862068966,-0.23,0.845,0.503
43131,1755587306462,13.1,59.17,-10.99,790,784,775,849,868,33.333333333333336,-0.227,0.839,0.501
43160,1755587306491,13.09,59.15,-11.02,792,778,772,845,867,34.48275862068966,-0.228,0.84,0.501
43190,1755587306520,13.07,59.09,-11.05,791,781,769,843,862,33.333333333333336,-0.231,0.843,0.498
43219,1755587306550,13.03,59.03,-11.06,786,778,773,835,871,34.48275862068966,-0.23,0.837,0.503
43249,1755587306579,13.05,59.1,-11.05,790,795,771,861,868,33.333333333333336,-0.232,0.842,0.508
43278,1755587306609,13.05,59.15,-11.04,791,772,766,842,866,34.48275862068966,-0.23,0.842,0.506
43308,1755587306638,13.01,59.15,-11.05,788,785,774,848,867,33.333333333333336,-0.229,0.837,0.501
43337,1755587306668,12.98,59.08,-11.04,792,782,773,839,861,34.48275862068966,-0.221,0.837,0.504
43366,1755587306697,13.01,59.13,-11.07,798,777,772,850,866,34.48275862068966,-0.225,0.843,0.507
43396,1755587306726,13.07,59.16,-11.1,792,776,778,849,872,33.333333333333336,-0.226,0.841,0.507
43425,1755587306756,13.07,59.56,-11.08,792,776,775,848,863,34.48275862068966,-0.226,0.837,0.507
43455,1755587306786,13.06,59.56,-11.04,791,778,768,845,867,33.333333333333336,-0.223,0.84,0.505
43484,1755587306815,13.07,59.52,-11.11,788,771,776,851,868,34.48275862068966,-0.224,0.846,0.499
43514,1755587306844,13.05,59.58,-11.13,781,778,774,843,865,33.333333333333336,-0.222,0.842,0.504
43543,1755587306874,13.05,59.59,-11.14,795,776,767,838,859,34.48275862068966,-0.224,0.841,0.505
43573,1755587306904,13.0,59.52,-11.16,793,779,770,839,859,33.333333333333336,-0.225,0.844,0.498
43602,1755587306933,12.9,59.36,-11.24,794,770,772,840,866,34.48275862068966,-0.224,0.839,0.497
43632,1755587306963,12.86,59.29,-11.23,781,781,775,845,866,33.333333333333336,-0.226,0.842,0.503
43662,1755587306993,12.89,59.3,-11.29,802,772,769,851,870,33.333333333333336,-0.227,0.843,0.508
43691,1755587307022,12.92,59.29,-11.31,799,767,768,843,864,34.48275862068966,-0.23,0.841,0.507
43721,1755587307052,12.85,59.2,-11.29,786,800,778,839,876,33.333333333333336,-0.229,0.839,0.502
43750,1755587307081,12.84,59.11,-11.31,795,779,769,838,872,34.48275862068966,-0.225,0.836,0.504
43780,1755587307111,12.81,59.0,-11.35,789,775,761,848,877,33.333333333333336,-0.225,0.84,0.505
43809,1755587307140,12.85,59.02,-11.41,789,782,774,852,862,34.48275862068966,-0.228,0.841,0.507
43839,1755587307170,12.87,59.01,-11.42,787,782,771,852,863,33.333333333333336,-0.227,0.836,0.51
43868,1755587307199,12.87,59.0,-11.44,788,771,769,840,867,34.48275862068966,-0.227,0.837,0.508
43897,1755587307228,12.82,59.06,-11.39,794,788,781,842,865,34.48275862068966,-0.225,0.839,0.509
43927,1755587307257,12.84,59.15,-11.41,793,781,773,838,860,33.333333333333336,-0.223,0.839,0.512
43956,1755587307287,12.88,59.15,-11.45,785,777,770,845,870,34.48275862068966,-0.226,0.841,0.51
43986,1755587307316,12.87,59.14,-11.45,789,782,778,849,877,33.333333333333336,-0.225,0.837,0.507
44015,1755587307346,12.86,59.07,-11.46,789,776,774,836,860,34.48275862068966,-0.221,0.834,0.508
44044,1755587307375,12.91,59.19,-11.49,791,773,767,844,865,34.48275862068966,-0.226,0.842,0.513
44074,1755587307405,12.96,59.24,-11.51,784,777,766,853,862,33.333333333333336,-0.228,0.841,0.511
44104,1755587307435,12.97,59.23,-11.51,797,779,763,839,871,33.333333333333336,-0.227,0.838,0.504
44133,1755587307464,12.95,59.21,-11.52,791,772,770,838,863,34.48275862068966,-0.226,0.841,0.502
44163,1755587307494,12.91,59.13,-11.5,790,788,777,836,867,33.333333333333336,-0.224,0.841,0.504
44193,1755587307523,12.94,59.14,-11.59,798,774,775,843,861,33.333333333333336,-0.224,0.84,0.509
44222,1755587307553,12.95,59.19,-11.61,800,774,774,840,854,34.48275862068966,-0.228,0.841,0.511
44251,1755587307582,12.92,59.19,-11.59,792,775,769,842,865,34.48275862068966,-0.227,0.839,0.506
44281,1755587307612,12.92,59.17,-11.61,783,780,762,839,860,33.333333333333336,-0.224,0.835,0.507
44310,1755587307641,12.89,59.09,-11.62,793,776,769,847,853,34.48275862068966,-0.223,0.835,0.51
44340,1755587307671,12.92,59.17,-11.67,793,770,773,846,867,33.333333333333336,-0.226,0.839,0.509
44370,1755587307700,12.5,59.17,-11.72,794,777,774,848,861,33.333333333333336,-0.228,0.838,0.507
44399,1755587307730,12.47,59.06,-11.69,778,778,770,845,862,34.48275862068966,-0.227,0.834,0.504
44428,1755587307759,12.48,59.09,-11.69,792,777,772,833,861,34.48275862068966,-0.229,0.844,0.505
44458,1755587307788,12.48,59.12,-11.69,787,777,764,843,858,33.333333333333336,-0.224,0.837,0.51
44487,1755587307818,12.56,59.14,-11.81,792,774,769,847,862,34.48275862068966,-0.226,0.842,0.509
44517,1755587307848,12.53,59.05,-11.81,791,777,769,843,873,33.333333333333336,-0.227,0.834,0.506
44546,1755587307877,12.47,58.99,-11.77,793,766,772,840,871,34.48275862068966,-0.226,0.837,0.504
44576,1755587307907,12.48,59.01,-11.8,794,783,777,842,863,33.333333333333336,-0.224,0.839,0.509
44606,1755587307936,12.52,59.05,-11.85,787,774,770,850,873,33.333333333333336,-0.226,0.841,0.511
44635,1755587307966,12.54,59.02,-11.88,791,778,773,848,868,34.48275862068966,-0.23,0.838,0.505
44664,1755587307995,12.45,58.93,-11.82,796,774,776,837,863,34.48275862068966,-0.227,0.836,0.501
44694,1755587308025,12.39,58.71,-11.83,791,777,776,831,863,33.333333333333336,-0.223,0.833,0.508
44724,1755587308055,12.47,58.75,-11.91,787,783,776,841,867,33.333333333333336,-0.225,0.839,0.518
44753,1755587308084,12.56,58.8,-11.96,794,776,769,842,867,34.48275862068966,-0.23,0.836,0.52
44783,1755587308114,12.56,58.8,-11.9,789,777,771,852,868,33.333333333333336,-0.227,0.832,0.511
44812,1755587308143,12.56,58.79,-11.89,793,770,768,844,860,34.48275862068966,-0.224,0.836,0.511
44842,1755587308172,12.65,58.78,-11.94,793,780,770,852,869,33.333333333333336,-0.226,0.841,0.513
44871,1755587308202,12.69,58.73,-11.97,791,768,772,854,867,34.48275862068966,-0.226,0.837,0.513
44901,1755587308231,12.69,58.65,-11.96,793,777,767,841,863,33.333333333333336,-0.226,0.832,0.514
44930,1755587308261,12.71,58.67,-11.96,790,780,771,845,867,34.48275862068966,-0.226,0.836,0.515
44960,1755587308291,12.75,58.63,-11.98,791,780,765,843,865,33.333333333333336,-0.226,0.837,0.515
44989,1755587308320,12.79,58.65,-12.01,792,788,773,840,860,34.48275862068966,-0.225,0.836,0.516
45019,1755587308350,12.84,58.68,-12.03,796,779,774,846,861,33.333333333333336,-0.226,0.833,0.518
45048,1755587308379,12.88,58.75,-11.97,791,777,773,839,863,34.48275862068966,-0.228,0.835,0.515
45078,1755587308409,12.88,58.68,-11.97,794,775,762,856,857,33.333333333333336,-0.225,0.834,0.512
45107,1755587308438,12.9,58.64,-11.98,791,780,766,853,863,34.48275862068966,-0.226,0.835,0.512
45137,1755587308468,12.94,58.67,-11.98,787,780,772,847,865,33.333333333333336,-0.224,0.836,0.515
45167,1755587308497,13.01,58.64,-12.02,790,781,768,847,869,33.333333333333336,-0.223,0.836,0.514
45196,1755587308527,13.02,58.68,-12.04,794,774,773,850,865,34.48275862068966,-0.226,0.838,0.51
45225,1755587308556,13.01,58.61,-12.06,786,762,774,844,862,34.48275862068966,-0.223,0.835,0.507
45255,1755587308586,12.98,58.59,-12.09,792,780,773,845,861,33.333333333333336,-0.224,0.839,0.51
45284,1755587308616,12.98,58.63,-12.11,784,776,776,847,863,34.48275862068966,-0.224,0.84,0.515
45314,1755587308645,13.03,58.69,-12.12,796,772,790,845,864,33.333333333333336,-0.225,0.836,0.515
45344,1755587308675,13.04,58.73,-12.14,790,776,777,837,866,33.333333333333336,-0.225,0.838,0.508
45373,1755587308705,13.01,58.68,-12.17,789,769,765,843,857,34.48275862068966,-0.225,0.837,0.504
45403,1755587308735,13.01,58.59,-12.21,794,768,771,829,856,33.333333333333336,-0.226,0.837,0.508
45424,1755587308754,13.02,58.6,-12.23,791,777,772,853,871,47.61904761904762,-0.229,0.837,0.515
45453,1755587308784,13.06,58.7,-12.24,795,777,771,834,867,34.48275862068966,-0.23,0.838,0.516
45483,1755587308814,13.09,58.69,-12.27,787,786,768,839,866,33.333333333333336,-0.229,0.838,0.509
45513,1755587308844,13.06,58.64,-12.27,794,781,774,848,861,33.333333333333336,-0.229,0.835,0.506
45542,1755587308873,13.06,58.6,-12.27,797,776,770,846,863,34.48275862068966,-0.226,0.836,0.508
45572,1755587308903,13.1,58.62,-12.32,791,781,796,848,864,33.333333333333336,-0.227,0.84,0.512
45601,1755587308932,13.09,58.59,-12.37,789,777,759,849,870,34.48275862068966,-0.228,0.837,0.511
45631,1755587308962,13.03,58.63,-12.32,793,769,773,838,863,33.333333333333336,-0.22,0.836,0.511
45660,1755587308992,13.05,58.69,-12.32,790,780,768,854,865,34.48275862068966,-0.222,0.841,0.509
45690,1755587309021,13.07,58.71,-12.37,788,776,771,840,860,33.333333333333336,-0.221,0.84,0.51
45720,1755587309051,13.09,58.73,-12.42,791,776,776,846,859,33.333333333333336,-0.225,0.836,0.511
45749,1755587309080,13.09,58.75,-12.39,797,778,770,844,873,34.48275862068966,-0.225,0.836,0.508
45779,1755587309110,13.1,58.81,-12.39,794,775,769,847,860,33.333333333333336,-0.225,0.838,0.505
45808,1755587309139,13.09,58.78,-12.43,786,770,773,841,857,34.48275862068966,-0.224,0.839,0.507
45838,1755587309168,13.08,58.87,-12.42,785,777,771,848,871,33.333333333333336,-0.225,0.839,0.509
45867,1755587309198,13.21,59.09,-12.45,788,776,771,847,864,34.48275862068966,-0.226,0.839,0.511
45896,1755587309227,13.33,59.22,-12.45,781,780,774,844,873,34.48275862068966,-0.229,0.843,0.505
45926,1755587309257,13.27,59.07,-12.44,797,773,771,835,878,33.333333333333336,-0.226,0.838,0.494
45955,1755587309287,13.18,59.01,-12.44,788,777,772,838,872,34.48275862068966,-0.222,0.84,0.501
45985,1755587309316,13.25,59.14,-12.5,793,778,772,846,862,33.333333333333336,-0.226,0.848,0.51
46015,1755587309346,13.31,59.22,-12.51,793,768,774,849,865,33.333333333333336,-0.231,0.846,0.503
46045,1755587309375,13.26,59.05,-12.51,782,783,770,845,864,33.333333333333336,-0.229,0.835,0.496
46074,1755587309405,13.24,58.95,-12.5,792,783,767,861,874,34.48275862068966,-0.228,0.842,0.505
46103,1755587309434,13.29,59.01,-12.54,786,779,774,844,858,34.48275862068966,-0.227,0.845,0.506
46133,1755587309463,13.32,59.03,-12.58,787,776,774,855,862,33.333333333333336,-0.227,0.839,0.501
46162,1755587309493,13.27,58.92,-12.61,788,777,771,841,860,34.48275862068966,-0.227,0.838,0.498
46192,1755587309523,13.19,58.8,-12.59,793,773,776,845,859,33.333333333333336,-0.225,0.834,0.502
46221,1755587309552,13.22,58.78,-12.64,791,776,771,839,860,34.48275862068966,-0.227,0.841,0.504
46251,1755587309582,13.25,58.78,-12.68,793,771,771,843,860,33.333333333333336,-0.229,0.839,0.503
46280,1755587309611,13.22,58.73,-12.69,793,785,771,836,876,34.48275862068966,-0.23,0.834,0.504
46310,1755587309640,13.24,58.77,-12.69,790,778,771,838,865,33.333333333333336,-0.229,0.837,0.512
46339,1755587309670,13.3,58.89,-12.7,786,780,771,840,872,34.48275862068966,-0.23,0.842,0.511
46369,1755587309699,13.29,58.76,-12.75,786,778,766,842,863,33.333333333333336,-0.228,0.837,0.499
46398,1755587309729,13.26,58.59,-12.79,792,770,776,845,863,34.48275862068966,-0.226,0.832,0.501
46428,1755587309759,13.33,58.58,-12.85,792,779,784,843,863,33.333333333333336,-0.232,0.841,0.513
46457,1755587309789,13.36,58.67,-12.84,792,779,769,847,862,34.48275862068966,-0.235,0.842,0.511
46478,1755587309808,13.35,58.67,-12.83,786,784,769,845,872,47.61904761904762,-0.233,0.836,0.503
46507,1755587309838,13.29,58.53,-12.81,792,780,767,840,868,34.48275862068966,-0.228,0.832,0.497
46537,1755587309868,13.27,58.45,-12.82,791,777,773,840,867,33.333333333333336,-0.226,0.838,0.509
46566,1755587309897,13.35,58.54,-12.88,795,771,776,838,875,34.48275862068966,-0.231,0.84,0.513
46596,1755587309927,13.33,58.54,-12.84,789,778,773,844,861,33.333333333333336,-0.23,0.832,0.505
46626,1755587309957,13.31,58.4,-12.86,799,779,768,845,863,33.333333333333336,-0.227,0.835,0.498
46655,1755587309986,13.27,58.25,-12.86,791,778,766,846,870,34.48275862068966,-0.224,0.835,0.508
46685,1755587310016,13.31,58.28,-12.95,796,768,767,842,864,33.333333333333336,-0.225,0.835,0.517
46714,1755587310045,13.36,58.33,-12.98,791,778,769,839,871,34.48275862068966,-0.232,0.833,0.516
46744,1755587310074,13.34,58.28,-12.95,793,780,766,841,871,33.333333333333336,-0.231,0.829,0.51
46773,1755587310104,13.38,58.27,-12.96,788,778,772,854,870,34.48275862068966,-0.227,0.831,0.516
46803,1755587310134,13.46,58.39,-13.03,790,778,772,841,860,33.333333333333336,-0.229,0.837,0.519
46832,1755587310163,13.54,58.48,-13.09,784,778,775,852,860,34.48275862068966,-0.23,0.833,0.514
46862,1755587310193,13.58,58.49,-13.11,786,770,766,847,853,33.333333333333336,-0.23,0.83,0.513
46892,1755587310222,13.66,58.52,-13.15,785,779,777,838,861,33.333333333333336,-0.233,0.839,0.513
46921,1755587310252,13.65,58.51,-13.18,793,772,774,846,865,34.48275862068966,-0.229,0.832,0.513
46951,1755587310281,13.66,58.47,-13.23,783,775,774,845,872,33.333333333333336,-0.231,0.834,0.509
46980,1755587310311,13.67,58.48,-13.22,792,780,780,841,861,34.48275862068966,-0.232,0.835,0.509
47009,1755587310340,13.7,58.5,-13.29,790,776,779,849,862,34.48275862068966,-0.234,0.837,0.508
47039,1755587310370,13.69,58.45,-13.3,791,796,754,850,867,33.333333333333336,-0.235,0.834,0.504
47069,1755587310399,13.67,58.36,-13.34,789,768,775,856,867,33.333333333333336,-0.234,0.832,0.505
47098,1755587310429,13.7,58.36,-13.39,791,780,773,844,861,34.48275862068966,-0.236,0.836,0.512
47128,1755587310458,13.68,58.36,-13.4,786,772,779,845,862,33.333333333333336,-0.239,0.837,0.509
47157,1755587310488,13.63,58.28,-13.43,787,776,770,853,858,34.48275862068966,-0.236,0.832,0.509
47187,1755587310517,13.59,58.17,-13.48,787,777,779,842,852,33.333333333333336,-0.234,0.83,0.517
47216,1755587310547,13.61,58.21,-13.51,787,777,774,844,864,34.48275862068966,-0.237,0.833,0.525
47246,1755587310576,13.67,58.29,-13.55,792,779,770,825,863,33.333333333333336,-0.235,0.832,0.521
47275,1755587310606,13.67,58.28,-13.61,793,784,771,842,865,34.48275862068966,-0.232,0.831,0.51
47304,1755587310635,13.68,58.15,-13.73,790,772,771,851,875,34.48275862068966,-0.232,0.827,0.509
47334,1755587310665,13.74,58.04,-13.86,788,775,770,848,861,33.333333333333336,-0.236,0.829,0.517
47363,1755587310694,13.8,58.11,-13.92,791,778,769,844,862,34.48275862068966,-0.243,0.834,0.525
47393,1755587310723,13.84,58.1,-13.98,794,776,777,844,862,33.333333333333336,-0.241,0.827,0.52
47422,1755587310753,13.94,58.12,-14.05,792,778,763,844,866,34.48275862068966,-0.241,0.825,0.52
47451,1755587310782,14.08,58.25,-14.08,789,780,767,849,866,34.48275862068966,-0.245,0.832,0.523
47481,1755587310812,14.14,58.32,-14.11,792,776,775,836,861,33.333333333333336,-0.247,0.831,0.514
47510,1755587310841,14.08,58.26,-14.11,795,768,772,841,852,34.48275862068966,-0.245,0.827,0.511
47540,1755587310871,14.05,58.25,-14.12,785,786,779,840,859,33.333333333333336,-0.246,0.831,0.52
47569,1755587310900,14.1,57.83,-14.16,786,783,773,848,866,34.48275862068966,-0.253,0.832,0.518
47599,1755587310930,14.07,57.77,-14.08,792,776,778,844,861,33.333333333333336,-0.251,0.823,0.509
47629,1755587310960,14.06,57.67,-14.01,791,776,772,850,870,33.333333333333336,-0.251,0.826,0.506
47658,1755587310989,14.08,57.71,-13.93,787,773,769,844,860,34.48275862068966,-0.249,0.831,0.511
47688,1755587311019,14.16,57.76,-14.06,792,779,772,846,865,33.333333333333336,-0.249,0.834,0.519
47717,1755587311048,14.24,57.74,-14.14,789,772,765,848,861,34.48275862068966,-0.251,0.828,0.522
47747,1755587311078,14.15,57.8,-13.96,793,778,766,844,866,33.333333333333336,-0.244,0.824,0.517
47777,1755587311108,14.08,57.71,-13.95,790,781,766,845,858,33.333333333333336,-0.231,0.823,0.521
47806,1755587311137,14.16,57.63,-14.29,792,770,765,849,859,34.48275862068966,-0.233,0.831,0.529
47836,1755587311167,14.2,57.7,-14.35,784,782,769,841,861,33.333333333333336,-0.241,0.828,0.525
47866,1755587311196,14.13,57.76,-14.26,797,771,776,861,888,33.333333333333336,-0.24,0.825,0.514
47895,1755587311226,14.12,57.77,-14.34,792,773,788,858,860,34.48275862068966,-0.244,0.831,0.511
47915,1755587311245,14.14,57.78,-14.43,788,777,778,850,867,50.0,-0.248,0.834,0.517
47944,1755587311275,14.08,57.85,-14.43,786,773,773,847,862,34.48275862068966,-0.252,0.827,0.514
47974,1755587311305,14.1,57.9,-14.4,789,777,769,846,863,33.333333333333336,-0.252,0.822,0.507
48004,1755587311335,14.03,57.86,-14.34,789,778,768,836,867,33.333333333333336,-0.249,0.826,0.505
48033,1755587311364,14.0,57.74,-14.34,790,770,776,848,862,34.48275862068966,-0.248,0.827,0.511
48063,1755587311394,14.14,57.93,-14.39,785,778,779,838,871,33.333333333333336,-0.256,0.829,0.522
48083,1755587311414,14.24,58.08,-14.29,790,780,777,844,863,50.0,-0.262,0.831,0.526
48113,1755587311443,14.2,58.25,-14.09,786,774,768,845,859,33.333333333333336,-0.254,0.833,0.513
48142,1755587311473,14.13,58.28,-14.03,784,775,772,842,865,34.48275862068966,-0.243,0.829,0.506
48171,1755587311502,14.2,58.26,-14.06,786,777,776,844,859,34.48275862068966,-0.242,0.828,0.512
48201,1755587311532,14.32,58.4,-14.08,791,773,770,837,869,33.333333333333336,-0.248,0.833,0.518
48230,1755587311561,14.34,58.59,-14.02,792,773,769,841,864,34.48275862068966,-0.25,0.836,0.511
48260,1755587311590,14.28,58.63,-13.96,787,776,772,841,861,33.333333333333336,-0.242,0.832,0.505
48289,1755587311620,14.32,58.6,-14.07,794,782,769,850,854,34.48275862068966,-0.239,0.837,0.504
48319,1755587311650,14.33,58.66,-14.08,789,772,762,849,861,33.333333333333336,-0.239,0.835,0.508
48348,1755587311679,14.4,58.7,-14.15,789,775,772,841,868,34.48275862068966,-0.24,0.835,0.501
48378,1755587311709,14.39,58.61,-14.1,794,773,769,844,878,33.333333333333336,-0.24,0.835,0.499
48407,1755587311738,14.31,58.58,-14.09,790,780,768,838,871,34.48275862068966,-0.241,0.838,0.501
48437,1755587311767,14.29,58.59,-14.11,784,774,773,850,866,33.333333333333336,-0.242,0.841,0.506
48466,1755587311797,14.25,58.65,-14.15,791,780,777,849,870,34.48275862068966,-0.238,0.84,0.511
48496,1755587311826,14.22,58.7,-14.19,790,780,776,841,860,33.333333333333336,-0.235,0.838,0.507
48525,1755587311856,14.21,58.57,-14.31,785,776,777,851,868,34.48275862068966,-0.228,0.837,0.501
48554,1755587311885,14.22,58.47,-14.46,791,778,767,846,860,34.48275862068966,-0.232,0.831,0.499
48584,1755587311914,14.23,58.47,-14.41,789,773,765,847,865,33.333333333333336,-0.246,0.838,0.499
48613,1755587311944,14.19,58.47,-14.43,787,780,776,836,868,34.48275862068966,-0.252,0.84,0.499
48642,1755587311973,14.2,58.49,-14.45,787,773,778,846,856,34.48275862068966,-0.257,0.837,0.502
48672,1755587312003,14.2,58.47,-14.36,791,781,770,834,860,33.333333333333336,-0.256,0.836,0.503
48701,1755587312033,14.15,58.41,-14.24,788,782,771,840,860,34.48275862068966,-0.244,0.833,0.505
48721,1755587312052,14.16,58.38,-14.26,792,777,773,845,868,50.0,-0.232,0.835,0.508
48751,1755587312082,14.25,58.36,-14.39,794,778,772,852,869,33.333333333333336,-0.23,0.834,0.505
48781,1755587312111,14.17,58.32,-14.25,787,778,770,831,858,33.333333333333336,-0.237,0.833,0.497
48810,1755587312141,14.07,58.07,-14.25,788,780,776,842,856,34.48275862068966,-0.241,0.835,0.498
48839,1755587312170,14.1,57.95,-14.36,789,774,769,847,863,34.48275862068966,-0.247,0.837,0.514
48869,1755587312200,14.17,58.14,-14.31,790,777,776,843,860,33.333333333333336,-0.248,0.835,0.52
48898,1755587312229,14.17,58.26,-14.22,783,781,772,835,873,34.48275862068966,-0.238,0.833,0.514
48928,1755587312258,14.17,58.23,-14.3,784,782,783,844,868,33.333333333333336,-0.228,0.829,0.508
48957,1755587312288,14.23,58.68,-14.31,788,778,787,840,859,34.48275862068966,-0.232,0.832,0.5
48987,1755587312317,14.13,58.62,-14.23,793,766,765,847,858,33.333333333333336,-0.234,0.836,0.497
49016,1755587312347,14.14,58.52,-14.45,792,772,776,843,862,34.48275862068966,-0.237,0.839,0.503
49045,1755587312376,14.18,58.45,-14.57,790,785,769,840,866,34.48275862068966,-0.245,0.836,0.512
49075,1755587312406,14.1,58.48,-14.45,780,778,773,846,859,33.333333333333336,-0.241,0.829,0.511
49104,1755587312435,14.08,58.42,-14.46,787,778,773,842,864,34.48275862068966,-0.238,0.832,0.508
49134,1755587312464,14.12,58.41,-14.53,791,780,772,846,865,33.333333333333336,-0.241,0.83,0.511
49163,1755587312494,14.14,58.4,-14.47,788,778,771,835,867,34.48275862068966,-0.244,0.829,0.507
49192,1755587312523,14.12,58.32,-14.47,790,775,772,840,864,34.48275862068966,-0.245,0.83,0.502
49222,1755587312553,14.11,58.09,-14.55,789,783,768,838,858,33.333333333333336,-0.244,0.832,0.506
49251,1755587312582,14.15,57.98,-14.73,785,777,772,844,866,34.48275862068966,-0.238,0.832,0.52
49281,1755587312612,14.27,57.87,-14.92,790,773,770,846,864,33.333333333333336,-0.235,0.834,0.523
49311,1755587312642,14.36,57.7,-15.1,789,778,771,841,858,33.333333333333336,-0.229,0.824,0.526
49340,1755587312671,14.48,57.52,-15.29,792,773,766,848,870,34.48275862068966,-0.231,0.822,0.521
49370,1755587312701,14.52,57.35,-15.4,787,763,767,841,867,33.333333333333336,-0.235,0.822,0.519
49399,1755587312730,14.63,57.12,-15.53,788,772,765,847,864,34.48275862068966,-0.25,0.82,0.53
49429,1755587312759,14.62,57.19,-15.55,787,777,780,834,872,33.333333333333336,-0.259,0.821,0.531
49458,1755587312789,14.61,57.27,-15.47,786,779,766,839,863,34.48275862068966,-0.258,0.816,0.526
49488,1755587312818,14.63,57.19,-15.43,781,770,769,844,867,33.333333333333336,-0.258,0.812,0.525
49517,1755587312848,14.68,57.12,-15.4,784,778,777,831,863,34.48275862068966,-0.258,0.814,0.526
49547,1755587312878,14.72,57.1,-15.4,783,767,763,850,860,33.333333333333336,-0.257,0.817,0.528
49576,1755587312907,14.89,56.92,-15.48,792,768,769,845,864,34.48275862068966,-0.259,0.82,0.528
49606,1755587312937,14.94,56.84,-15.42,791,768,776,848,873,33.333333333333336,-0.26,0.814,0.534
49635,1755587312966,14.85,56.83,-15.42,785,783,766,844,862,34.48275862068966,-0.254,0.814,0.534
49665,1755587312995,14.88,56.73,-15.58,792,776,767,848,881,33.333333333333336,-0.251,0.814,0.53
49694,1755587313025,14.97,56.63,-15.7,796,773,777,841,868,34.48275862068966,-0.255,0.81,0.533
49723,1755587313054,14.94,56.56,-15.65,792,782,770,835,860,34.48275862068966,-0.261,0.813,0.533
49753,1755587313084,14.93,56.55,-15.69,789,772,774,840,860,33.333333333333336,-0.261,0.811,0.533
49782,1755587313114,15.01,56.46,-15.73,794,777,771,846,844,34.48275862068966,-0.265,0.811,0.534
49812,1755587313144,15.03,56.4,-15.61,790,780,773,844,864,33.333333333333336,-0.268,0.807,0.546
49842,1755587313173,15.05,56.51,-15.57,795,776,776,837,870,33.333333333333336,-0.262,0.808,0.547
49872,1755587313203,15.17,56.54,-15.61,788,778,770,849,864,33.333333333333336,-0.256,0.804,0.537
49902,1755587313233,15.15,56.48,-15.66,794,781,771,846,863,33.333333333333336,-0.253,0.808,0.528
49931,1755587313262,15.15,56.37,-15.73,788,774,768,844,867,34.48275862068966,-0.255,0.808,0.539
49961,1755587313291,15.19,56.41,-15.81,791,770,771,847,864,33.333333333333336,-0.262,0.811,0.544
49990,1755587313321,15.19,56.44,-15.82,783,770,781,834,859,34.48275862068966,-0.263,0.807,0.538
50019,1755587313350,15.16,56.24,-15.78,780,774,776,843,866,34.48275862068966,-0.266,0.803,0.533
50049,1755587313380,15.06,56.11,-15.59,793,780,775,840,866,33.333333333333336,-0.27,0.805,0.541
50079,1755587313410,15.05,56.08,-15.5,793,783,766,841,864,33.333333333333336,-0.265,0.806,0.547
50108,1755587313439,15.13,56.01,-15.53,798,769,774,845,869,34.48275862068966,-0.26,0.806,0.545
50138,1755587313468,15.18,55.92,-15.58,791,774,767,855,876,33.333333333333336,-0.26,0.802,0.551
50167,1755587313498,15.19,56.01,-15.55,792,779,784,843,861,34.48275862068966,-0.258,0.805,0.554
50196,1755587313527,15.25,56.16,-15.48,787,780,774,842,869,34.48275862068966,-0.259,0.806,0.551
50226,1755587313556,15.29,56.24,-15.52,782,770,770,854,865,33.333333333333336,-0.258,0.803,0.545
50255,1755587313586,15.29,56.24,-15.53,790,774,767,846,871,34.48275862068966,-0.263,0.805,0.542
50285,1755587313615,15.24,56.24,-15.49,791,782,768,850,866,33.333333333333336,-0.264,0.806,0.543
50314,1755587313645,15.27,56.22,-15.44,788,780,777,839,875,34.48275862068966,-0.262,0.803,0.546
50343,1755587313674,15.28,56.29,-15.41,795,773,771,840,858,34.48275862068966,-0.26,0.807,0.549
50373,1755587313704,15.29,56.36,-15.38,789,771,771,844,857,33.333333333333336,-0.256,0.808,0.547
50402,1755587313733,15.28,56.41,-15.36,787,774,773,855,866,34.48275862068966,-0.253,0.806,0.541
50432,1755587313763,15.26,56.33,-15.37,794,775,774,847,868,33.333333333333336,-0.253,0.805,0.537
50462,1755587313793,15.24,56.27,-15.41,790,779,778,840,871,33.333333333333336,-0.258,0.811,0.539
50491,1755587313822,15.26,56.38,-15.41,792,777,778,847,864,34.48275862068966,-0.259,0.81,0.544
50521,1755587313852,15.27,56.41,-15.36,787,775,770,844,864,33.333333333333336,-0.258,0.808,0.541
50550,1755587313881,15.28,56.35,-15.35,790,774,772,834,859,34.48275862068966,-0.255,0.809,0.537
50580,1755587313910,15.29,56.33,-15.36,786,778,769,837,871,33.333333333333336,-0.253,0.813,0.539
50609,1755587313940,15.27,56.29,-15.43,791,785,778,844,853,34.48275862068966,-0.253,0.81,0.547
50638,1755587313969,15.27,56.33,-15.41,794,779,773,846,864,34.48275862068966,-0.253,0.806,0.55
50668,1755587313999,15.35,56.39,-15.42,790,777,767,847,859,33.333333333333336,-0.252,0.808,0.547
50697,1755587314029,15.41,56.33,-15.45,787,773,771,854,863,34.48275862068966,-0.25,0.808,0.54
50727,1755587314058,15.42,56.34,-15.48,780,778,772,839,865,33.333333333333336,-0.251,0.808,0.539
50756,1755587314087,15.4,56.33,-15.5,790,778,771,844,884,34.48275862068966,-0.252,0.81,0.543
50786,1755587314117,15.42,56.39,-15.58,797,769,772,843,856,33.333333333333336,-0.254,0.811,0.542
50815,1755587314146,15.45,56.48,-15.61,785,778,770,838,865,34.48275862068966,-0.258,0.81,0.54
50845,1755587314176,15.44,56.59,-15.6,783,771,771,846,859,33.333333333333336,-0.257,0.813,0.536
