timestamp_ms,recv_timestamp_ms,pitch,roll,yaw,flex1,flex2,flex3,flex4,flex5,sampling_hz,accel_x,accel_y,accel_z
53349,1755587400326,50.91,-80.31,-33.38,773,778,764,816,846,34.48275862068966,-0.776,-0.624,0.107
53379,1755587400356,50.91,-80.33,-33.39,780,777,765,822,837,33.333333333333336,-0.774,-0.62,0.106
53408,1755587400386,50.92,-80.31,-33.42,773,770,764,824,846,34.48275862068966,-0.777,-0.618,0.107
53438,1755587400415,50.93,-80.25,-33.42,778,775,764,818,847,33.333333333333336,-0.779,-0.619,0.108
53467,1755587400445,50.92,-80.23,-33.41,777,775,773,818,847,34.48275862068966,-0.776,-0.622,0.105
53497,1755587400474,50.93,-80.28,-33.41,772,779,764,816,844,33.333333333333336,-0.773,-0.623,0.103
53527,1755587400504,50.93,-80.3,-33.43,775,773,775,813,832,33.333333333333336,-0.774,-0.621,0.112
53556,1755587400533,50.95,-80.24,-33.45,775,772,767,814,844,34.48275862068966,-0.778,-0.62,0.112
53586,1755587400563,50.95,-80.27,-33.43,784,779,770,824,846,33.333333333333336,-0.776,-0.624,0.108
53615,1755587400592,50.99,-80.26,-33.4,777,774,767,817,843,34.48275862068966,-0.773,-0.625,0.107
53645,1755587400622,50.98,-80.25,-33.41,776,754,765,811,844,33.333333333333336,-0.773,-0.621,0.109
53674,1755587400652,50.96,-80.26,-33.43,779,777,771,821,849,34.48275862068966,-0.776,-0.618,0.11
53695,1755587400672,50.99,-80.26,-33.43,776,782,768,814,836,47.61904761904762,-0.78,-0.62,0.11
53725,1755587400702,50.98,-80.2,-33.41,774,777,774,819,843,33.333333333333336,-0.778,-0.622,0.108
53754,1755587400731,50.96,-80.24,-33.41,776,774,768,812,845,34.48275862068966,-0.774,-0.621,0.105
53784,1755587400761,51.0,-80.29,-33.43,785,775,773,825,844,33.333333333333336,-0.777,-0.62,0.107
53813,1755587400791,50.93,-80.25,-33.44,779,776,774,821,843,34.48275862068966,-0.779,-0.619,0.108
53843,1755587400820,50.92,-80.2,-33.45,778,772,768,813,848,33.333333333333336,-0.778,-0.621,0.108
53872,1755587400850,50.94,-80.22,-33.43,776,768,773,825,840,34.48275862068966,-0.777,-0.623,0.105
53892,1755587400870,50.91,-80.26,-33.42,777,774,769,818,839,50.0,-0.775,-0.622,0.102
53922,1755587400899,50.87,-80.32,-33.45,766,779,767,819,848,33.333333333333336,-0.776,-0.618,0.103
53952,1755587400929,50.81,-80.31,-33.49,772,772,768,820,845,33.333333333333336,-0.778,-0.619,0.11
53981,1755587400959,50.79,-80.3,-33.49,778,776,765,817,844,34.48275862068966,-0.777,-0.625,0.109
54011,1755587400988,50.84,-80.28,-33.47,780,779,769,815,837,33.333333333333336,-0.772,-0.626,0.108
54040,1755587401018,50.8,-80.28,-33.48,781,774,769,815,840,34.48275862068966,-0.772,-0.625,0.109
54070,1755587401047,50.8,-80.24,-33.47,778,771,773,813,846,33.333333333333336,-0.775,-0.625,0.108
54099,1755587401077,50.8,-80.29,-33.44,770,768,771,820,843,34.48275862068966,-0.776,-0.624,0.103
54129,1755587401106,50.83,-80.32,-33.42,777,779,769,818,840,33.333333333333336,-0.775,-0.622,0.106
54159,1755587401136,50.8,-80.25,-33.44,782,775,775,817,839,33.333333333333336,-0.775,-0.621,0.11
54188,1755587401166,50.75,-80.22,-33.45,784,771,773,810,842,34.48275862068966,-0.777,-0.621,0.109
54218,1755587401196,50.83,-80.27,-33.43,780,769,762,819,849,33.333333333333336,-0.778,-0.622,0.109
54248,1755587401226,50.85,-80.22,-33.42,776,772,766,821,840,33.333333333333336,-0.776,-0.621,0.111
54268,1755587401245,50.81,-80.17,-33.41,775,768,765,826,848,50.0,-0.775,-0.62,0.11
54298,1755587401275,50.83,-80.17,-33.42,771,771,768,818,841,33.333333333333336,-0.776,-0.619,0.108
54327,1755587401304,50.9,-80.23,-33.42,776,783,768,822,843,34.48275862068966,-0.778,-0.62,0.111
54357,1755587401334,50.9,-80.17,-33.41,777,774,772,813,845,33.333333333333336,-0.776,-0.618,0.11
54386,1755587401363,50.88,-80.18,-33.43,773,778,768,824,841,34.48275862068966,-0.778,-0.62,0.108
54416,1755587401393,50.9,-80.23,-33.42,785,783,772,816,847,33.333333333333336,-0.778,-0.622,0.107
54446,1755587401423,50.89,-80.21,-33.4,774,771,772,817,838,33.333333333333336,-0.776,-0.621,0.11
54475,1755587401452,50.91,-80.19,-33.41,776,777,766,815,828,34.48275862068966,-0.775,-0.62,0.11
54505,1755587401482,50.91,-80.18,-33.42,776,771,768,823,846,33.333333333333336,-0.776,-0.619,0.109
54534,1755587401511,50.91,-80.15,-33.42,779,779,775,821,838,34.48275862068966,-0.778,-0.621,0.109
54564,1755587401541,50.9,-80.15,-33.41,777,771,766,821,850,33.333333333333336,-0.775,-0.622,0.105
54593,1755587401570,50.93,-80.16,-33.41,776,768,771,811,853,34.48275862068966,-0.776,-0.62,0.106
54623,1755587401600,50.9,-80.21,-33.42,778,779,766,834,839,33.333333333333336,-0.777,-0.619,0.109
54652,1755587401629,50.92,-80.2,-33.42,775,773,769,814,845,34.48275862068966,-0.778,-0.62,0.108
54682,1755587401660,50.94,-80.13,-33.41,787,769,761,824,843,33.333333333333336,-0.778,-0.622,0.111
54702,1755587401679,50.92,-80.1,-33.41,772,768,767,817,844,50.0,-0.775,-0.622,0.109
54731,1755587401709,50.94,-80.16,-33.4,771,770,771,815,844,34.48275862068966,-0.776,-0.622,0.107
54761,1755587401738,50.97,-80.18,-33.39,779,777,774,821,845,33.333333333333336,-0.777,-0.622,0.11
54791,1755587401768,50.99,-80.11,-33.39,780,774,772,822,841,33.333333333333336,-0.778,-0.622,0.112
54820,1755587401798,51.02,-80.05,-33.37,780,776,769,821,838,34.48275862068966,-0.778,-0.623,0.109
54850,1755587401827,51.07,-80.09,-33.35,777,776,765,820,844,33.333333333333336,-0.777,-0.621,0.106
54880,1755587401857,51.03,-80.14,-33.36,761,772,762,823,842,33.333333333333336,-0.776,-0.618,0.105
54909,1755587401886,51.02,-80.14,-33.36,784,775,768,811,843,34.48275862068966,-0.779,-0.618,0.106
54939,1755587401916,51.0,-80.11,-33.36,777,774,768,821,850,33.333333333333336,-0.778,-0.622,0.107
54968,1755587401945,50.99,-80.15,-33.34,772,780,774,819,826,34.48275862068966,-0.776,-0.622,0.106
54998,1755587401975,51.01,-80.16,-33.34,785,775,768,812,852,33.333333333333336,-0.775,-0.621,0.107
55027,1755587402004,51.02,-80.14,-33.35,779,774,774,824,836,34.48275862068966,-0.775,-0.618,0.108
55057,1755587402035,51.0,-80.07,-33.35,783,776,768,812,843,33.333333333333336,-0.779,-0.618,0.108
55077,1755587402055,51.01,-80.07,-33.34,778,781,768,827,865,50.0,-0.779,-0.621,0.106
55107,1755587402084,50.99,-80.11,-33.32,783,778,771,817,842,33.333333333333336,-0.776,-0.624,0.103
55136,1755587402113,51.0,-80.17,-33.31,777,777,770,817,849,34.48275862068966,-0.773,-0.621,0.104
55166,1755587402143,51.0,-80.13,-33.33,772,769,766,818,843,33.333333333333336,-0.778,-0.618,0.109
55195,1755587402172,51.03,-80.1,-33.32,779,774,758,825,855,34.48275862068966,-0.781,-0.62,0.111
55225,1755587402202,51.08,-80.04,-33.3,775,769,766,815,841,33.333333333333336,-0.778,-0.621,0.105
55254,1755587402232,51.07,-80.12,-33.3,781,769,772,825,838,34.48275862068966,-0.775,-0.621,0.101
55284,1755587402261,51.04,-80.18,-33.31,776,769,774,824,834,33.333333333333336,-0.777,-0.619,0.102
55314,1755587402291,51.04,-80.15,-33.32,784,772,777,819,843,33.333333333333336,-0.779,-0.619,0.105
55343,1755587402320,51.05,-80.13,-33.33,775,770,763,823,851,34.48275862068966,-0.778,-0.618,0.105
55373,1755587402350,51.03,-80.15,-33.32,781,774,771,812,847,33.333333333333336,-0.777,-0.621,0.105
55403,1755587402380,51.02,-80.2,-33.32,775,771,771,819,849,33.333333333333336,-0.776,-0.622,0.104
55432,1755587402409,51.05,-80.17,-33.3,771,763,766,819,841,34.48275862068966,-0.777,-0.62,0.106
55462,1755587402439,51.05,-80.13,-33.31,788,769,769,834,841,33.333333333333336,-0.778,-0.618,0.107
55492,1755587402469,51.06,-80.12,-33.32,777,773,774,821,843,33.333333333333336,-0.777,-0.618,0.105
55521,1755587402499,51.03,-80.16,-33.32,773,765,767,823,838,34.48275862068966,-0.777,-0.62,0.104
55551,1755587402528,51.02,-80.17,-33.3,772,776,773,819,849,33.333333333333336,-0.776,-0.621,0.105
55580,1755587402558,51.06,-80.17,-33.29,781,778,769,819,853,34.48275862068966,-0.777,-0.619,0.107
55610,1755587402587,51.07,-80.17,-33.3,775,776,770,820,847,33.333333333333336,-0.778,-0.618,0.107
55639,1755587402617,51.09,-80.2,-33.3,772,778,769,819,850,34.48275862068966,-0.779,-0.621,0.105
55669,1755587402646,51.06,-80.18,-33.28,777,776,760,811,837,33.333333333333336,-0.778,-0.621,0.104
55699,1755587402676,51.07,-80.22,-33.29,779,773,771,812,851,33.333333333333336,-0.778,-0.619,0.105
55728,1755587402705,51.12,-80.17,-33.29,776,776,767,818,846,34.48275862068966,-0.78,-0.618,0.108
55758,1755587402735,51.14,-80.12,-33.3,778,777,771,824,838,33.333333333333336,-0.779,-0.618,0.105
55787,1755587402764,51.1,-80.12,-33.29,777,775,768,819,842,34.48275862068966,-0.777,-0.62,0.101
55817,1755587402794,51.09,-80.19,-33.28,776,765,763,824,841,33.333333333333336,-0.779,-0.622,0.102
55846,1755587402824,51.1,-80.21,-33.28,778,773,767,805,853,34.48275862068966,-0.777,-0.619,0.106
55876,1755587402853,51.11,-80.15,-33.29,778,778,769,834,842,33.333333333333336,-0.778,-0.617,0.108
55905,1755587402883,51.08,-80.16,-33.29,777,769,774,819,843,34.48275862068966,-0.78,-0.618,0.106
55935,1755587402912,51.1,-80.21,-33.28,778,777,768,821,839,33.333333333333336,-0.777,-0.62,0.102
55965,1755587402942,51.11,-80.23,-33.28,774,777,772,815,832,33.333333333333336,-0.777,-0.619,0.103
55994,1755587402972,51.07,-80.25,-33.29,775,772,774,820,836,34.48275862068966,-0.779,-0.619,0.105
56024,1755587403001,51.07,-80.24,-33.3,782,775,772,823,859,33.333333333333336,-0.78,-0.62,0.107
56053,1755587403031,51.09,-80.22,-33.28,772,774,767,823,881,34.48275862068966,-0.778,-0.621,0.105
56083,1755587403060,51.08,-80.25,-33.29,777,776,775,816,843,33.333333333333336,-0.775,-0.621,0.105
56112,1755587403090,51.06,-80.24,-33.28,785,772,768,815,850,34.48275862068966,-0.776,-0.62,0.106
56142,1755587403119,51.06,-80.23,-33.27,774,770,770,818,840,33.333333333333336,-0.778,-0.619,0.105
56171,1755587403149,51.07,-80.28,-33.27,775,781,770,816,842,34.48275862068966,-0.777,-0.619,0.104
56201,1755587403178,51.02,-80.32,-33.28,769,775,772,823,840,33.333333333333336,-0.777,-0.621,0.103
56231,1755587403208,51.03,-80.3,-33.27,781,770,767,816,844,33.333333333333336,-0.777,-0.62,0.104
56261,1755587403238,51.06,-80.27,-33.26,776,781,765,817,839,33.333333333333336,-0.779,-0.618,0.107
56290,1755587403267,51.08,-80.27,-33.26,796,792,779,808,839,34.48275862068966,-0.778,-0.617,0.107
56320,1755587403297,51.08,-80.25,-33.27,774,773,766,819,849,33.333333333333336,-0.779,-0.62,0.105
56349,1755587403326,51.07,-80.23,-33.26,785,770,771,816,845,34.48275862068966,-0.777,-0.621,0.104
56379,1755587403356,51.12,-80.27,-33.27,772,768,770,815,853,33.333333333333336,-0.777,-0.62,0.103
56408,1755587403386,51.13,-80.3,-33.27,768,781,769,815,829,34.48275862068966,-0.778,-0.618,0.104
56428,1755587403406,51.11,-80.32,-33.28,779,773,774,822,851,50.0,-0.778,-0.618,0.104
56458,1755587403435,51.09,-80.35,-33.3,773,780,761,821,848,33.333333333333336,-0.777,-0.62,0.102
56488,1755587403465,51.07,-80.39,-33.3,779,765,772,823,844,33.333333333333336,-0.777,-0.623,0.103
56517,1755587403495,51.1,-80.41,-33.3,776,770,762,819,844,34.48275862068966,-0.775,-0.62,0.106
56547,1755587403524,51.09,-80.38,-33.3,773,776,764,819,841,33.333333333333336,-0.775,-0.619,0.107
56576,1755587403554,51.08,-80.31,-33.32,781,774,770,823,852,34.48275862068966,-0.777,-0.619,0.104
56606,1755587403583,51.07,-80.34,-33.33,779,767,776,817,841,33.333333333333336,-0.777,-0.622,0.101
56636,1755587403613,51.07,-80.37,-33.32,777,782,767,820,847,33.333333333333336,-0.775,-0.623,0.101
56665,1755587403642,51.05,-80.41,-33.33,782,776,769,822,846,34.48275862068966,-0.775,-0.621,0.105
56695,1755587403672,51.04,-80.34,-33.34,776,776,775,819,851,33.333333333333336,-0.776,-0.618,0.107
56724,1755587403701,51.07,-80.36,-33.38,776,777,772,824,854,34.48275862068966,-0.779,-0.619,0.105
56754,1755587403731,51.06,-80.37,-33.37,778,775,769,822,840,33.333333333333336,-0.779,-0.621,0.103
56783,1755587403761,51.02,-80.48,-33.39,775,778,769,817,849,34.48275862068966,-0.774,-0.621,0.1
56813,1755587403790,51.11,-80.57,-33.42,778,775,775,816,844,33.333333333333336,-0.776,-0.622,0.105
56843,1755587403820,51.04,-80.55,-33.43,781,771,771,815,882,33.333333333333336,-0.778,-0.621,0.106
56872,1755587403849,51.04,-80.53,-33.44,779,770,770,819,843,34.48275862068966,-0.776,-0.621,0.103
56902,1755587403879,51.01,-80.52,-33.43,780,777,768,823,839,33.333333333333336,-0.776,-0.623,0.104
56931,1755587403908,50.93,-80.51,-33.43,773,778,770,833,850,34.48275862068966,-0.774,-0.623,0.101
56961,1755587403938,51.01,-80.54,-33.43,778,780,768,820,851,33.333333333333336,-0.775,-0.621,0.102
56990,1755587403967,50.94,-80.53,-33.44,776,772,763,810,850,34.48275862068966,-0.777,-0.62,0.104
57020,1755587403997,50.94,-80.53,-33.48,773,770,763,809,833,33.333333333333336,-0.776,-0.62,0.103
57049,1755587404027,50.94,-80.56,-33.49,778,776,766,817,847,34.48275862068966,-0.776,-0.623,0.102
57079,1755587404056,50.88,-80.55,-33.48,777,773,769,819,839,33.333333333333336,-0.775,-0.624,0.103
57109,1755587404086,50.91,-80.57,-33.49,770,780,767,824,842,33.333333333333336,-0.774,-0.623,0.104
57138,1755587404115,50.88,-80.6,-33.51,777,774,765,818,842,34.48275862068966,-0.773,-0.622,0.102
57168,1755587404145,50.81,-80.76,-33.57,776,782,771,826,853,33.333333333333336,-0.772,-0.622,0.097
57197,1755587404175,50.77,-80.96,-33.66,773,773,767,814,837,34.48275862068966,-0.773,-0.623,0.096
57227,1755587404204,50.66,-81.1,-33.75,785,771,774,817,848,33.333333333333336,-0.776,-0.623,0.1
57256,1755587404234,50.59,-81.15,-33.8,777,773,759,817,846,34.48275862068966,-0.775,-0.625,0.104
57286,1755587404264,50.67,-81.11,-33.8,769,773,770,824,844,33.333333333333336,-0.776,-0.626,0.107
57316,1755587404294,50.62,-81.05,-33.8,773,777,769,818,853,33.333333333333336,-0.773,-0.627,0.104
57346,1755587404323,50.61,-81.03,-33.78,776,771,771,822,836,33.333333333333336,-0.771,-0.627,0.102
57376,1755587404353,50.62,-80.96,-33.77,774,777,765,818,843,33.333333333333336,-0.774,-0.628,0.102
57405,1755587404383,50.63,-80.92,-33.77,775,763,774,815,841,34.48275862068966,-0.773,-0.627,0.103
57435,1755587404412,50.64,-80.89,-33.76,776,773,767,821,844,33.333333333333336,-0.771,-0.628,0.103
57464,1755587404442,50.64,-80.83,-33.74,773,779,769,822,842,34.48275862068966,-0.771,-0.63,0.101
57494,1755587404471,50.65,-80.8,-33.74,780,771,767,823,851,33.333333333333336,-0.771,-0.629,0.1
57523,1755587404501,50.68,-80.73,-33.74,779,770,775,820,845,34.48275862068966,-0.77,-0.627,0.102
57553,1755587404530,50.67,-80.66,-33.73,773,767,776,821,845,33.333333333333336,-0.771,-0.627,0.102
57582,1755587404560,50.65,-80.7,-33.72,777,776,768,817,838,34.48275862068966,-0.77,-0.628,0.098
57612,1755587404589,50.63,-80.74,-33.71,772,774,775,820,846,33.333333333333336,-0.772,-0.63,0.099
57642,1755587404619,50.61,-80.69,-33.69,768,764,775,816,840,33.333333333333336,-0.773,-0.629,0.102
57671,1755587404648,50.6,-80.69,-33.69,766,769,773,821,831,34.48275862068966,-0.771,-0.627,0.103
57701,1755587404678,50.63,-80.68,-33.68,778,774,777,813,850,33.333333333333336,-0.772,-0.627,0.101
57730,1755587404708,50.56,-80.68,-33.67,779,777,756,812,848,34.48275862068966,-0.772,-0.629,0.101
57760,1755587404737,50.59,-80.66,-33.66,776,776,771,817,842,33.333333333333336,-0.771,-0.63,0.104
57789,1755587404767,50.6,-80.65,-33.64,777,782,770,821,853,34.48275862068966,-0.771,-0.629,0.103
57819,1755587404796,50.61,-80.68,-33.64,770,770,769,812,847,33.333333333333336,-0.77,-0.625,0.102
57848,1755587404826,50.59,-80.67,-33.66,777,771,767,825,856,34.48275862068966,-0.773,-0.625,0.104
57878,1755587404855,50.52,-80.63,-33.67,774,776,772,820,833,33.333333333333336,-0.773,-0.626,0.104
57908,1755587404885,50.58,-80.66,-33.66,774,782,772,806,846,33.333333333333336,-0.775,-0.63,0.103
57937,1755587404915,50.58,-80.69,-33.65,776,779,774,811,856,34.48275862068966,-0.77,-0.627,0.104
57967,1755587404945,50.54,-80.66,-33.67,778,770,774,820,845,33.333333333333336,-0.77,-0.625,0.105
57997,1755587404974,50.57,-80.64,-33.68,774,782,775,820,841,33.333333333333336,-0.775,-0.627,0.103
58027,1755587405004,50.62,-80.67,-33.67,778,779,772,811,838,33.333333333333336,-0.773,-0.626,0.101
58056,1755587405033,50.59,-80.67,-33.67,780,779,761,818,847,34.48275862068966,-0.77,-0.626,0.104
58086,1755587405063,50.55,-80.65,-33.68,776,778,769,812,848,33.333333333333336,-0.772,-0.627,0.103
58115,1755587405092,50.61,-80.66,-33.68,777,775,757,819,839,34.48275862068966,-0.774,-0.627,0.103
58145,1755587405122,50.62,-80.2,-33.67,779,786,780,827,848,33.333333333333336,-0.772,-0.625,0.103
58174,1755587405152,50.54,-80.22,-33.68,777,782,763,822,843,34.48275862068966,-0.771,-0.626,0.101
58195,1755587405172,50.52,-80.23,-33.7,773,770,769,820,846,47.61904761904762,-0.771,-0.627,0.101
58225,1755587405202,50.58,-80.24,-33.69,772,779,772,819,852,33.333333333333336,-0.773,-0.626,0.105
58245,1755587405222,50.57,-80.24,-33.7,775,778,768,820,851,50.0,-0.771,-0.625,0.107
58265,1755587405242,50.55,-80.25,-33.71,775,786,766,826,843,50.0,-0.769,-0.626,0.104
58294,1755587405273,50.57,-80.25,-33.72,774,765,768,821,839,34.48275862068966,-0.77,-0.628,0.101
58315,1755587405292,50.56,-80.27,-33.72,776,773,769,807,845,47.61904761904762,-0.772,-0.629,0.099
58345,1755587405322,50.59,-80.32,-33.72,779,776,770,818,840,33.333333333333336,-0.772,-0.627,0.1
58374,1755587405351,50.57,-80.34,-33.74,773,766,770,826,835,34.48275862068966,-0.77,-0.626,0.102
58404,1755587405381,50.57,-80.28,-33.74,779,772,773,813,851,33.333333333333336,-0.772,-0.627,0.101
58433,1755587405411,50.57,-80.32,-33.74,777,778,761,823,845,34.48275862068966,-0.771,-0.63,0.1
58463,1755587405440,50.61,-80.33,-33.73,771,772,769,819,845,33.333333333333336,-0.77,-0.63,0.101
58493,1755587405470,50.54,-80.33,-33.73,774,775,774,815,865,33.333333333333336,-0.769,-0.627,0.101
58522,1755587405499,50.55,-80.32,-33.74,774,775,767,823,843,34.48275862068966,-0.77,-0.626,0.102
58552,1755587405529,50.51,-80.36,-33.75,783,775,766,816,846,33.333333333333336,-0.771,-0.628,0.101
58581,1755587405558,50.49,-80.37,-33.73,779,769,771,821,844,34.48275862068966,-0.771,-0.63,0.1
58610,1755587405588,50.5,-80.46,-33.73,770,770,758,823,846,34.48275862068966,-0.77,-0.627,0.1
58640,1755587405617,50.47,-80.46,-33.77,775,775,779,825,835,33.333333333333336,-0.772,-0.621,0.105
58669,1755587405647,50.54,-80.51,-33.83,778,773,774,814,831,34.48275862068966,-0.774,-0.621,0.102
58699,1755587405676,50.66,-80.57,-33.87,774,763,769,820,849,33.333333333333336,-0.774,-0.629,0.098
58729,1755587405706,50.6,-80.64,-33.85,786,775,767,814,842,33.333333333333336,-0.768,-0.634,0.095
58758,1755587405735,50.59,-80.71,-33.88,781,772,760,821,844,34.48275862068966,-0.763,-0.63,0.101
58788,1755587405765,50.57,-80.66,-33.92,780,776,769,809,852,33.333333333333336,-0.768,-0.63,0.112
58817,1755587405795,50.55,-80.47,-33.88,773,779,770,817,841,34.48275862068966,-0.771,-0.635,0.108
58847,1755587405825,50.61,-80.45,-33.81,777,778,774,815,839,33.333333333333336,-0.769,-0.633,0.102
58877,1755587405854,50.56,-80.47,-33.82,776,777,768,822,835,33.333333333333336,-0.766,-0.626,0.102
58907,1755587405884,50.51,-80.45,-33.87,775,767,775,828,840,33.333333333333336,-0.769,-0.624,0.1
58936,1755587405913,50.56,-80.52,-33.88,771,776,769,818,850,34.48275862068966,-0.774,-0.625,0.099
58966,1755587405943,50.56,-80.59,-33.9,785,766,764,823,842,33.333333333333336,-0.771,-0.625,0.1
58996,1755587405973,50.47,-80.57,-33.93,777,773,775,816,851,33.333333333333336,-0.767,-0.63,0.101
59025,1755587406002,50.45,-80.59,-33.94,777,779,775,821,838,34.48275862068966,-0.767,-0.633,0.102
59055,1755587406032,50.54,-80.59,-33.9,771,772,774,817,846,33.333333333333336,-0.769,-0.635,0.106
59084,1755587406061,50.52,-80.57,-33.87,778,772,768,819,838,34.48275862068966,-0.767,-0.633,0.106
59114,1755587406091,50.51,-80.52,-33.86,778,775,774,819,842,33.333333333333336,-0.768,-0.632,0.106
59143,1755587406121,50.54,-80.49,-33.84,775,778,776,811,840,34.48275862068966,-0.769,-0.631,0.102
59173,1755587406150,50.56,-80.52,-33.81,773,771,766,816,844,33.333333333333336,-0.77,-0.63,0.099
59202,1755587406179,50.56,-80.52,-33.79,785,771,767,824,843,34.48275862068966,-0.771,-0.628,0.1
59232,1755587406209,50.52,-80.49,-33.78,771,788,768,830,836,33.333333333333336,-0.771,-0.626,0.102
59261,1755587406239,50.49,-80.53,-33.78,783,778,772,819,842,34.48275862068966,-0.771,-0.626,0.101
59291,1755587406268,50.54,-80.53,-33.79,778,776,769,819,844,33.333333333333336,-0.771,-0.627,0.104
59321,1755587406298,50.53,-80.37,-33.76,776,775,762,827,836,33.333333333333336,-0.772,-0.63,0.106
59350,1755587406327,50.57,-80.3,-33.72,778,772,761,824,848,34.48275862068966,-0.769,-0.63,0.103
59380,1755587406357,50.63,-80.33,-33.73,776,773,771,825,852,33.333333333333336,-0.769,-0.629,0.103
59409,1755587406387,50.63,-80.26,-33.73,778,776,767,811,841,34.48275862068966,-0.77,-0.63,0.103
59439,1755587406416,50.67,-80.22,-33.72,782,778,769,816,846,33.333333333333336,-0.771,-0.628,0.101
59469,1755587406446,50.69,-80.24,-33.71,778,772,767,819,851,33.333333333333336,-0.771,-0.627,0.101
59498,1755587406476,50.68,-80.23,-33.71,780,767,771,817,850,34.48275862068966,-0.773,-0.63,0.102
59528,1755587406505,50.7,-80.18,-33.68,779,775,771,822,848,33.333333333333336,-0.772,-0.631,0.104
59557,1755587406534,50.76,-80.16,-33.65,778,775,771,824,851,34.48275862068966,-0.772,-0.627,0.107
59587,1755587406564,50.77,-80.15,-33.65,778,769,770,810,841,33.333333333333336,-0.771,-0.624,0.106
59616,1755587406593,50.81,-80.11,-33.64,780,767,770,816,845,34.48275862068966,-0.773,-0.624,0.103
59646,1755587406623,50.8,-80.01,-33.61,780,775,770,814,841,33.333333333333336,-0.774,-0.626,0.103
59675,1755587406653,50.78,-80.04,-33.6,782,780,765,814,848,34.48275862068966,-0.771,-0.627,0.103
59705,1755587406682,50.84,-80.06,-33.58,783,776,765,813,837,33.333333333333336,-0.773,-0.625,0.105
59735,1755587406712,50.83,-80.01,-33.57,774,776,766,811,840,33.333333333333336,-0.774,-0.624,0.105
59764,1755587406741,50.82,-79.99,-33.57,776,778,771,818,854,34.48275862068966,-0.774,-0.622,0.105
59794,1755587406771,50.86,-80.02,-33.55,777,784,764,820,842,33.333333333333336,-0.775,-0.624,0.105
59823,1755587406800,50.9,-79.99,-33.51,780,779,764,821,841,34.48275862068966,-0.774,-0.625,0.105
59853,1755587406830,50.87,-79.9,-33.49,779,776,770,825,845,33.333333333333336,-0.774,-0.623,0.107
59883,1755587406860,50.87,-79.89,-33.49,781,773,763,811,848,33.333333333333336,-0.773,-0.622,0.105
59912,1755587406890,50.92,-79.88,-33.48,774,770,765,821,849,34.48275862068966,-0.773,-0.622,0.103
59942,1755587406919,50.9,-79.88,-33.48,777,772,766,821,847,33.333333333333336,-0.774,-0.621,0.104
59972,1755587406949,50.9,-79.89,-33.51,773,777,770,818,843,33.333333333333336,-0.776,-0.621,0.105
60002,1755587406979,50.91,-79.87,-33.5,776,771,770,822,849,33.333333333333336,-0.777,-0.622,0.106
60031,1755587407009,50.91,-79.88,-33.51,779,774,771,818,838,34.48275862068966,-0.773,-0.624,0.105
60061,1755587407038,50.98,-79.87,-33.5,770,768,770,822,846,33.333333333333336,-0.773,-0.624,0.107
60090,1755587407067,50.93,-79.83,-33.5,777,776,769,809,844,34.48275862068966,-0.775,-0.622,0.106
60120,1755587407097,50.94,-79.83,-33.5,774,791,766,813,845,33.333333333333336,-0.776,-0.624,0.106
60149,1755587407126,50.94,-79.84,-33.5,770,779,759,827,845,34.48275862068966,-0.772,-0.623,0.106
60179,1755587407156,50.91,-79.86,-33.51,781,767,771,814,844,33.333333333333336,-0.775,-0.622,0.105
60208,1755587407186,50.91,-79.85,-33.51,776,771,767,814,844,34.48275862068966,-0.777,-0.623,0.106
60238,1755587407215,50.96,-79.82,-33.5,775,767,773,825,841,33.333333333333336,-0.775,-0.623,0.105
60268,1755587407245,50.9,-79.81,-33.5,782,780,775,819,845,33.333333333333336,-0.774,-0.624,0.104
60298,1755587407275,50.91,-79.81,-33.5,773,773,768,814,840,33.333333333333336,-0.775,-0.624,0.106
60327,1755587407305,50.93,-79.78,-33.5,780,765,768,815,838,34.48275862068966,-0.774,-0.624,0.108
60357,1755587407334,50.96,-79.76,-33.49,779,778,773,825,843,33.333333333333336,-0.774,-0.624,0.109
60387,1755587407364,50.98,-79.74,-33.47,768,778,776,813,842,33.333333333333336,-0.776,-0.624,0.109
60416,1755587407394,51.03,-79.67,-33.47,774,771,769,821,855,34.48275862068966,-0.777,-0.621,0.109
60436,1755587407413,51.04,-79.68,-33.47,775,773,773,811,847,50.0,-0.778,-0.62,0.106
60466,1755587407443,51.02,-79.7,-33.45,776,772,770,819,846,33.333333333333336,-0.779,-0.619,0.105
60495,1755587407473,51.02,-79.7,-33.46,777,777,768,820,846,34.48275862068966,-0.779,-0.62,0.107
60525,1755587407502,50.98,-79.68,-33.46,771,781,773,820,835,33.333333333333336,-0.778,-0.622,0.108
60554,1755587407532,50.96,-79.69,-33.44,774,776,756,821,845,34.48275862068966,-0.775,-0.624,0.108
60584,1755587407562,50.97,-79.69,-33.41,772,782,765,817,846,33.333333333333336,-0.776,-0.624,0.109
60614,1755587407591,51.0,-79.67,-33.39,775,774,770,835,846,33.333333333333336,-0.777,-0.622,0.11
60644,1755587407621,51.0,-79.63,-33.38,773,776,779,823,851,33.333333333333336,-0.777,-0.62,0.11
60673,1755587407650,50.97,-79.6,-33.38,772,778,772,817,844,34.48275862068966,-0.778,-0.619,0.109
60703,1755587407681,50.97,-79.66,-33.37,772,768,767,821,833,33.333333333333336,-0.778,-0.619,0.109
60723,1755587407700,51.0,-79.68,-33.36,780,770,772,813,841,50.0,-0.779,-0.619,0.111
60752,1755587407730,50.95,-79.66,-33.37,779,775,767,818,842,34.48275862068966,-0.779,-0.617,0.11
60782,1755587407759,50.95,-79.68,-33.37,777,780,772,812,848,33.333333333333336,-0.78,-0.618,0.108
60811,1755587407789,50.93,-79.72,-33.37,781,775,768,814,841,34.48275862068966,-0.778,-0.619,0.108
60841,1755587407819,50.93,-79.74,-33.39,780,775,772,824,843,33.333333333333336,-0.779,-0.619,0.109
60861,1755587407838,50.92,-79.74,-33.4,778,778,767,820,844,50.0,-0.779,-0.621,0.11
60891,1755587407868,50.91,-79.74,-33.38,773,771,763,819,840,33.333333333333336,-0.777,-0.622,0.108
60920,1755587407898,50.92,-79.8,-33.38,783,775,772,820,840,34.48275862068966,-0.777,-0.621,0.109
60950,1755587407927,50.92,-79.76,-33.37,778,773,765,821,836,33.333333333333336,-0.778,-0.622,0.112
60979,1755587407957,50.93,-79.7,-33.35,777,779,770,819,843,34.48275862068966,-0.777,-0.62,0.112
61009,1755587407987,50.97,-79.74,-33.36,774,773,772,815,841,33.333333333333336,-0.777,-0.618,0.111
61029,1755587408007,50.96,-79.76,-33.36,773,776,765,824,840,50.0,-0.778,-0.618,0.11
61059,1755587408037,50.92,-79.71,-33.36,775,774,770,822,840,33.333333333333336,-0.778,-0.618,0.109
61089,1755587408066,50.95,-79.73,-33.36,772,767,774,813,843,33.333333333333336,-0.778,-0.619,0.109
61118,1755587408096,50.95,-79.74,-33.37,776,774,767,816,845,34.48275862068966,-0.777,-0.619,0.11
61148,1755587408125,50.92,-79.74,-33.37,774,770,765,827,845,33.333333333333336,-0.776,-0.621,0.108
61178,1755587408155,50.94,-79.69,-33.37,778,778,770,823,840,33.333333333333336,-0.777,-0.621,0.109
61207,1755587408184,50.91,-79.71,-33.37,768,769,772,821,840,34.48275862068966,-0.778,-0.62,0.108
61237,1755587408214,50.96,-79.78,-33.36,777,774,766,819,847,33.333333333333336,-0.778,-0.62,0.108
61266,1755587408243,50.95,-79.74,-33.36,771,772,777,813,842,34.48275862068966,-0.777,-0.618,0.111
61296,1755587408273,50.94,-79.7,-33.36,776,769,765,813,842,33.333333333333336,-0.779,-0.619,0.109
61326,1755587408303,50.97,-79.76,-33.37,778,767,772,820,850,33.333333333333336,-0.779,-0.619,0.107
61355,1755587408332,50.92,-79.74,-33.37,772,767,769,821,841,34.48275862068966,-0.777,-0.619,0.108
61384,1755587408361,50.9,-79.72,-33.37,777,769,770,816,860,34.48275862068966,-0.777,-0.62,0.109
61414,1755587408391,50.96,-79.75,-33.37,782,771,774,820,851,33.333333333333336,-0.777,-0.62,0.11
61443,1755587408421,50.96,-79.69,-33.36,774,766,770,821,842,34.48275862068966,-0.777,-0.619,0.11
61473,1755587408450,50.92,-79.7,-33.37,777,769,768,808,846,33.333333333333336,-0.777,-0.619,0.108
61503,1755587408480,50.89,-79.74,-33.38,777,774,760,822,852,33.333333333333336,-0.777,-0.62,0.107
61532,1755587408509,50.91,-79.74,-33.36,771,773,772,820,830,34.48275862068966,-0.777,-0.621,0.11
61562,1755587408539,50.93,-79.73,-33.35,783,767,766,816,839,33.333333333333336,-0.775,-0.619,0.111
61591,1755587408569,50.93,-79.76,-33.36,773,772,770,823,852,34.48275862068966,-0.775,-0.619,0.111
61621,1755587408599,50.94,-79.73,-33.34,776,775,773,820,840,33.333333333333336,-0.777,-0.62,0.111
61651,1755587408629,50.94,-79.72,-33.32,780,776,772,820,854,33.333333333333336,-0.776,-0.618,0.11
61681,1755587408658,50.94,-79.76,-33.34,775,769,769,823,843,33.333333333333336,-0.777,-0.617,0.11
61710,1755587408688,50.91,-79.79,-33.34,776,772,769,811,836,34.48275862068966,-0.778,-0.618,0.108
61740,1755587408718,50.91,-79.79,-33.36,773,774,769,813,844,33.333333333333336,-0.778,-0.617,0.109
61770,1755587408747,50.85,-79.76,-33.36,774,780,770,817,842,33.333333333333336,-0.779,-0.62,0.111
61799,1755587408777,50.88,-79.76,-33.34,773,771,766,816,839,34.48275862068966,-0.776,-0.624,0.112
61829,1755587408806,50.89,-79.73,-33.32,777,775,774,821,846,33.333333333333336,-0.774,-0.622,0.114
61858,1755587408836,50.91,-79.7,-33.32,769,770,776,819,838,34.48275862068966,-0.778,-0.62,0.114
61888,1755587408866,50.94,-79.67,-33.29,774,777,770,819,839,33.333333333333336,-0.779,-0.619,0.111
61918,1755587408895,50.95,-79.68,-33.29,773,773,772,819,845,33.333333333333336,-0.779,-0.618,0.109
61947,1755587408925,50.97,-79.7,-33.29,772,782,771,819,847,34.48275862068966,-0.777,-0.617,0.109
61977,1755587408954,50.94,-79.75,-33.3,778,769,770,817,852,33.333333333333336,-0.777,-0.616,0.111
62006,1755587408984,50.95,-79.7,-33.31,773,772,768,818,837,34.48275862068966,-0.779,-0.617,0.113
62036,1755587409013,50.95,-79.66,-33.31,777,775,762,821,837,33.333333333333336,-0.778,-0.618,0.111
62066,1755587409043,50.96,-79.71,-33.32,776,778,765,820,844,33.333333333333336,-0.776,-0.619,0.109
