timestamp_ms,recv_timestamp_ms,pitch,roll,yaw,flex1,flex2,flex3,flex4,flex5,sampling_hz,accel_x,accel_y,accel_z
41286,1755586765364,60.0,-107.84,-17.85,811,766,832,872,874,34.48275862068966,-0.879,-0.468,-0.126
41316,1755586765394,60.03,-107.8,-17.84,811,769,834,873,877,33.333333333333336,-0.877,-0.466,-0.131
41345,1755586765424,59.99,-107.76,-17.85,808,772,837,870,878,34.48275862068966,-0.876,-0.467,-0.129
41375,1755586765453,59.98,-107.69,-17.84,810,776,832,870,882,33.333333333333336,-0.878,-0.464,-0.132
41405,1755586765483,60.0,-107.67,-17.81,808,766,825,883,897,33.333333333333336,-0.878,-0.466,-0.131
41435,1755586765513,60.04,-107.64,-17.82,813,770,831,867,880,33.333333333333336,-0.874,-0.465,-0.128
41464,1755586765543,60.0,-107.59,-17.83,812,767,828,866,887,34.48275862068966,-0.876,-0.466,-0.13
41494,1755586765572,60.06,-107.54,-17.8,810,754,830,879,879,33.333333333333336,-0.879,-0.469,-0.122
41524,1755586765602,60.21,-107.36,-17.76,811,770,821,866,881,33.333333333333336,-0.879,-0.468,-0.116
41554,1755586765632,60.19,-107.21,-17.73,811,772,824,876,885,33.333333333333336,-0.88,-0.467,-0.122
41583,1755586765661,60.26,-107.14,-17.72,810,766,829,879,886,34.48275862068966,-0.879,-0.464,-0.128
41613,1755586765691,60.34,-107.14,-17.73,806,764,834,871,878,33.333333333333336,-0.881,-0.463,-0.13
41643,1755586765721,60.33,-107.1,-17.73,806,756,823,869,880,33.333333333333336,-0.881,-0.465,-0.126
41673,1755586765751,60.39,-107.03,-17.75,808,766,835,880,880,33.333333333333336,-0.879,-0.464,-0.126
41693,1755586765771,60.43,-106.99,-17.77,807,761,847,867,876,50.0,-0.88,-0.465,-0.129
41723,1755586765801,60.42,-106.95,-17.76,819,769,829,867,875,33.333333333333336,-0.879,-0.467,-0.128
41752,1755586765830,60.42,-106.91,-17.78,809,776,837,879,879,34.48275862068966,-0.879,-0.465,-0.126
41782,1755586765860,60.33,-106.89,-17.8,811,769,841,872,872,33.333333333333336,-0.88,-0.465,-0.13
41811,1755586765889,60.35,-106.88,-17.78,806,772,834,873,874,34.48275862068966,-0.879,-0.47,-0.124
41841,1755586765919,60.46,-106.76,-17.76,822,775,830,870,877,33.333333333333336,-0.878,-0.469,-0.117
41871,1755586765949,60.47,-106.64,-17.74,811,774,834,870,869,33.333333333333336,-0.88,-0.468,-0.122
41900,1755586765978,60.49,-106.61,-17.73,816,769,827,865,878,34.48275862068966,-0.877,-0.468,-0.13
41930,1755586766008,60.47,-106.66,-17.78,810,768,838,873,887,33.333333333333336,-0.877,-0.464,-0.13
41959,1755586766037,60.41,-106.61,-17.79,809,770,845,875,879,34.48275862068966,-0.879,-0.464,-0.125
41989,1755586766067,60.43,-106.57,-17.79,810,768,832,871,887,33.333333333333336,-0.877,-0.468,-0.123
42019,1755586766096,60.48,-106.58,-17.81,808,780,827,867,888,33.333333333333336,-0.876,-0.466,-0.125
42048,1755586766126,60.48,-106.53,-17.86,804,766,832,866,877,34.48275862068966,-0.876,-0.465,-0.121
42078,1755586766156,60.46,-106.41,-17.9,815,763,835,873,888,33.333333333333336,-0.879,-0.467,-0.123
42107,1755586766185,60.54,-106.39,-17.91,808,770,843,867,879,34.48275862068966,-0.876,-0.469,-0.124
42137,1755586766215,60.65,-106.38,-18.0,816,767,836,879,882,33.333333333333336,-0.872,-0.471,-0.121
42167,1755586766245,60.61,-106.28,-18.14,804,777,837,866,878,33.333333333333336,-0.873,-0.471,-0.12
42196,1755586766274,60.52,-106.3,-18.36,808,777,831,863,892,34.48275862068966,-0.875,-0.47,-0.124
42226,1755586766304,60.45,-106.4,-18.53,810,772,833,872,887,33.333333333333336,-0.879,-0.472,-0.124
42256,1755586766334,60.45,-106.44,-18.56,801,765,850,871,880,33.333333333333336,-0.878,-0.475,-0.119
42285,1755586766363,60.51,-106.37,-18.56,804,765,836,871,887,34.48275862068966,-0.878,-0.476,-0.114
42315,1755586766393,60.45,-106.28,-18.55,810,776,826,873,913,33.333333333333336,-0.878,-0.478,-0.12
42344,1755586766422,60.42,-106.32,-18.55,815,766,831,872,889,34.48275862068966,-0.873,-0.479,-0.125
42374,1755586766452,60.45,-106.37,-18.59,810,762,832,871,877,33.333333333333336,-0.874,-0.479,-0.121
42404,1755586766481,60.37,-106.3,-18.59,808,762,830,874,882,33.333333333333336,-0.876,-0.478,-0.117
42433,1755586766511,60.37,-106.25,-18.59,811,770,831,871,878,34.48275862068966,-0.874,-0.481,-0.118
42463,1755586766541,60.44,-106.25,-18.58,808,773,849,868,887,33.333333333333336,-0.873,-0.481,-0.119
42492,1755586766570,60.42,-106.23,-18.6,809,778,842,866,877,34.48275862068966,-0.873,-0.48,-0.12
42522,1755586766600,60.28,-106.21,-18.64,808,773,828,876,883,33.333333333333336,-0.872,-0.482,-0.118
42551,1755586766630,60.23,-106.18,-18.65,811,764,827,876,880,34.48275862068966,-0.869,-0.482,-0.118
42581,1755586766659,60.33,-106.19,-18.66,808,767,816,873,889,33.333333333333336,-0.87,-0.481,-0.118
42611,1755586766689,60.31,-106.16,-18.67,807,774,836,871,889,33.333333333333336,-0.87,-0.482,-0.12
42640,1755586766718,60.24,-106.09,-18.66,811,765,829,871,880,34.48275862068966,-0.869,-0.483,-0.119
42670,1755586766748,60.2,-106.03,-18.68,807,764,833,872,876,33.333333333333336,-0.869,-0.481,-0.119
42699,1755586766777,60.22,-106.04,-18.69,810,766,831,876,879,34.48275862068966,-0.872,-0.483,-0.119
42729,1755586766807,60.25,-106.0,-18.69,804,768,834,862,877,33.333333333333336,-0.869,-0.482,-0.115
42758,1755586766836,60.2,-105.89,-18.7,811,772,825,872,884,34.48275862068966,-0.87,-0.482,-0.117
42788,1755586766866,60.2,-105.88,-18.68,807,771,838,871,873,33.333333333333336,-0.871,-0.485,-0.12
42817,1755586766895,60.28,-105.84,-18.66,816,769,832,872,879,34.48275862068966,-0.868,-0.483,-0.118
42847,1755586766925,60.23,-105.8,-18.68,814,769,833,869,885,33.333333333333336,-0.869,-0.483,-0.119
42877,1755586766955,60.21,-105.74,-18.66,809,773,832,873,881,33.333333333333336,-0.869,-0.484,-0.119
42906,1755586766984,60.29,-105.71,-18.65,805,771,827,873,880,34.48275862068966,-0.87,-0.484,-0.117
42936,1755586767014,60.26,-105.67,-18.64,810,772,836,866,882,33.333333333333336,-0.869,-0.484,-0.119
42966,1755586767044,60.27,-105.65,-18.63,812,780,826,874,882,33.333333333333336,-0.869,-0.483,-0.119
42995,1755586767073,60.26,-105.63,-18.65,812,765,834,866,884,34.48275862068966,-0.869,-0.484,-0.12
43025,1755586767103,60.2,-105.59,-18.65,811,762,836,867,884,33.333333333333336,-0.869,-0.486,-0.12
43054,1755586767132,60.27,-105.59,-18.63,811,765,834,864,878,34.48275862068966,-0.869,-0.487,-0.118
43084,1755586767162,60.33,-105.52,-18.61,810,779,835,876,885,33.333333333333336,-0.87,-0.483,-0.115
43113,1755586767192,60.3,-105.46,-18.61,809,772,837,866,878,34.48275862068966,-0.869,-0.482,-0.119
43143,1755586767221,60.27,-105.44,-18.62,811,768,841,867,874,33.333333333333336,-0.868,-0.483,-0.123
43173,1755586767251,60.25,-105.44,-18.63,805,766,833,870,874,33.333333333333336,-0.868,-0.485,-0.121
43203,1755586767281,60.23,-105.42,-18.63,810,770,824,877,878,33.333333333333336,-0.869,-0.486,-0.117
43232,1755586767310,60.28,-105.36,-18.6,805,771,833,877,885,34.48275862068966,-0.869,-0.485,-0.116
43262,1755586767340,60.33,-105.32,-18.58,809,763,835,873,879,33.333333333333336,-0.87,-0.483,-0.119
43291,1755586767369,60.25,-105.27,-18.59,819,768,824,871,868,34.48275862068966,-0.869,-0.484,-0.122
43321,1755586767399,60.22,-105.31,-18.57,808,770,832,878,884,33.333333333333336,-0.868,-0.487,-0.12
43351,1755586767429,60.3,-105.31,-18.56,810,776,826,869,872,33.333333333333336,-0.868,-0.485,-0.115
43380,1755586767459,60.24,-105.23,-18.56,810,762,823,871,879,34.48275862068966,-0.869,-0.484,-0.118
43410,1755586767488,60.26,-105.22,-18.53,810,774,830,873,888,33.333333333333336,-0.869,-0.486,-0.122
43440,1755586767518,60.33,-105.21,-18.52,814,763,835,871,882,33.333333333333336,-0.868,-0.486,-0.119
43469,1755586767548,60.24,-105.13,-18.54,806,769,833,868,896,34.48275862068966,-0.869,-0.484,-0.118
43499,1755586767577,60.21,-105.11,-18.55,812,769,829,871,872,33.333333333333336,-0.871,-0.484,-0.12
43529,1755586767607,60.35,-105.12,-18.52,807,769,830,869,871,33.333333333333336,-0.869,-0.485,-0.12
43558,1755586767636,60.33,-105.09,-18.52,814,769,827,875,881,34.48275862068966,-0.867,-0.485,-0.12
43588,1755586767666,60.23,-105.07,-18.54,811,771,839,870,882,33.333333333333336,-0.868,-0.484,-0.122
43608,1755586767686,60.2,-105.07,-18.56,812,766,841,870,873,50.0,-0.869,-0.483,-0.121
43637,1755586767716,60.24,-105.08,-18.55,810,764,822,873,878,34.48275862068966,-0.871,-0.482,-0.12
43667,1755586767745,60.21,-105.05,-18.54,809,773,831,867,877,33.333333333333336,-0.87,-0.482,-0.118
43697,1755586767775,60.15,-105.05,-18.56,810,760,833,875,864,33.333333333333336,-0.869,-0.485,-0.115
43726,1755586767805,60.17,-105.05,-18.55,809,768,828,874,873,34.48275862068966,-0.869,-0.485,-0.112
43756,1755586767835,60.17,-104.98,-18.54,815,778,830,878,878,33.333333333333336,-0.871,-0.483,-0.111
43786,1755586767864,60.11,-104.94,-18.53,815,769,836,873,873,33.333333333333336,-0.871,-0.484,-0.117
43816,1755586767894,60.12,-104.93,-18.54,805,765,827,878,882,33.333333333333336,-0.868,-0.484,-0.12
43846,1755586767923,60.1,-104.93,-18.57,807,784,829,869,876,33.333333333333336,-0.87,-0.485,-0.117
43875,1755586767953,59.96,-104.81,-18.55,824,763,833,873,878,34.48275862068966,-0.87,-0.485,-0.112
43905,1755586767983,59.96,-104.79,-18.57,805,772,819,875,893,33.333333333333336,-0.871,-0.485,-0.113
43934,1755586768012,60.07,-104.8,-18.56,810,765,832,877,885,34.48275862068966,-0.87,-0.484,-0.115
43964,1755586768042,60.04,-104.73,-18.57,808,768,822,873,881,33.333333333333336,-0.869,-0.484,-0.115
43994,1755586768072,59.99,-104.69,-18.58,807,772,839,875,879,33.333333333333336,-0.87,-0.485,-0.115
44023,1755586768101,60.07,-104.67,-18.56,812,772,817,867,889,34.48275862068966,-0.87,-0.486,-0.113
44053,1755586768131,60.03,-104.61,-18.56,809,766,821,870,900,33.333333333333336,-0.869,-0.485,-0.114
44083,1755586768160,59.95,-104.61,-18.58,804,775,837,866,877,33.333333333333336,-0.87,-0.485,-0.114
44112,1755586768190,59.96,-104.57,-18.56,808,777,830,870,890,34.48275862068966,-0.869,-0.484,-0.112
44142,1755586768220,59.99,-104.53,-18.54,810,768,830,876,878,33.333333333333336,-0.869,-0.486,-0.112
44171,1755586768249,59.98,-104.5,-18.54,804,777,825,866,881,34.48275862068966,-0.867,-0.486,-0.113
44201,1755586768279,59.96,-104.5,-18.55,813,765,835,870,875,33.333333333333336,-0.869,-0.484,-0.115
44230,1755586768309,59.95,-104.5,-18.55,812,758,825,884,876,34.48275862068966,-0.869,-0.484,-0.114
44260,1755586768338,59.97,-104.51,-18.56,808,766,842,879,880,33.333333333333336,-0.869,-0.486,-0.113
44290,1755586768368,59.92,-104.52,-18.57,812,776,843,876,883,33.333333333333336,-0.868,-0.487,-0.113
44319,1755586768397,59.93,-104.48,-18.56,808,765,830,860,876,34.48275862068966,-0.869,-0.487,-0.11
44349,1755586768427,59.97,-104.41,-18.54,805,760,831,872,876,33.333333333333336,-0.869,-0.486,-0.11
44378,1755586768456,59.96,-104.39,-18.55,809,765,826,869,882,34.48275862068966,-0.868,-0.484,-0.115
44408,1755586768486,59.94,-104.42,-18.56,816,767,826,866,880,33.333333333333336,-0.87,-0.485,-0.116
44437,1755586768515,59.95,-104.42,-18.56,809,772,825,879,883,34.48275862068966,-0.87,-0.487,-0.11
44467,1755586768545,59.95,-104.36,-18.56,807,772,824,876,873,33.333333333333336,-0.868,-0.488,-0.11
44497,1755586768575,60.01,-104.31,-18.52,811,757,833,873,888,33.333333333333336,-0.868,-0.489,-0.111
44526,1755586768604,60.0,-104.28,-18.52,809,768,833,871,872,34.48275862068966,-0.867,-0.486,-0.115
44556,1755586768634,59.92,-104.29,-18.54,807,776,825,865,884,33.333333333333336,-0.868,-0.484,-0.119
44586,1755586768664,59.97,-104.33,-18.55,811,769,835,872,877,33.333333333333336,-0.87,-0.487,-0.114
44615,1755586768693,59.96,-104.3,-18.54,812,761,836,879,876,34.48275862068966,-0.87,-0.488,-0.109
44645,1755586768723,59.93,-104.22,-18.53,809,771,833,873,879,33.333333333333336,-0.87,-0.487,-0.11
44674,1755586768752,59.97,-104.22,-18.51,819,770,841,873,885,34.48275862068966,-0.869,-0.487,-0.114
44704,1755586768782,59.99,-104.21,-18.5,806,764,829,876,871,33.333333333333336,-0.869,-0.486,-0.113
44734,1755586768812,59.97,-104.19,-18.51,812,767,823,877,884,33.333333333333336,-0.869,-0.486,-0.112
44763,1755586768842,59.94,-104.17,-18.52,809,769,822,873,878,34.48275862068966,-0.868,-0.487,-0.113
44793,1755586768871,59.97,-104.14,-18.5,811,768,829,869,878,33.333333333333336,-0.87,-0.486,-0.113
44823,1755586768901,59.96,-104.15,-18.5,806,770,830,880,877,33.333333333333336,-0.87,-0.485,-0.114
44852,1755586768930,59.93,-104.17,-18.5,811,770,830,873,877,34.48275862068966,-0.87,-0.488,-0.113
44882,1755586768960,59.96,-104.13,-18.5,811,769,828,871,871,33.333333333333336,-0.869,-0.488,-0.11
44911,1755586768989,59.98,-104.09,-18.49,802,765,824,883,879,34.48275862068966,-0.871,-0.486,-0.113
44941,1755586769019,59.97,-104.09,-18.49,808,773,828,867,878,33.333333333333336,-0.869,-0.487,-0.114
44970,1755586769048,59.99,-104.1,-18.49,809,772,837,872,880,34.48275862068966,-0.869,-0.488,-0.113
45000,1755586769078,59.94,-104.07,-18.49,804,771,831,869,879,33.333333333333336,-0.869,-0.488,-0.113
45030,1755586769108,59.97,-104.06,-18.48,807,767,831,875,880,33.333333333333336,-0.869,-0.488,-0.113
45059,1755586769137,60.0,-104.02,-18.47,813,774,827,871,876,34.48275862068966,-0.87,-0.485,-0.112
45089,1755586769167,59.97,-104.01,-18.48,809,770,830,868,893,33.333333333333336,-0.869,-0.488,-0.114
45118,1755586769196,59.97,-104.01,-18.48,812,768,824,871,881,34.48275862068966,-0.867,-0.488,-0.116
45148,1755586769226,59.94,-104.03,-18.5,811,769,834,872,879,33.333333333333336,-0.869,-0.487,-0.113
45177,1755586769256,59.93,-103.99,-18.47,813,767,835,873,877,34.48275862068966,-0.871,-0.488,-0.11
45207,1755586769286,60.02,-103.96,-18.44,810,767,834,875,882,33.333333333333336,-0.87,-0.485,-0.111
45237,1755586769315,59.96,-103.97,-18.46,811,774,829,868,878,33.333333333333336,-0.869,-0.486,-0.115
45267,1755586769345,59.85,-103.97,-18.45,811,773,839,869,872,33.333333333333336,-0.871,-0.491,-0.114
45296,1755586769374,59.88,-103.94,-18.42,809,766,817,873,872,34.48275862068966,-0.87,-0.491,-0.11
45326,1755586769404,59.92,-103.9,-18.41,811,772,835,869,877,33.333333333333336,-0.869,-0.489,-0.109
45356,1755586769433,59.92,-103.85,-18.4,808,768,840,875,881,33.333333333333336,-0.869,-0.487,-0.111
45385,1755586769463,59.95,-103.85,-18.37,811,766,838,880,883,34.48275862068966,-0.87,-0.487,-0.114
45415,1755586769493,59.97,-103.87,-18.36,809,774,837,880,881,33.333333333333336,-0.868,-0.487,-0.111
45444,1755586769523,59.93,-103.8,-18.36,812,772,835,868,877,34.48275862068966,-0.869,-0.487,-0.106
45474,1755586769552,60.01,-103.73,-18.33,804,776,828,870,883,33.333333333333336,-0.871,-0.486,-0.109
45504,1755586769582,60.05,-103.75,-18.33,808,766,825,873,884,33.333333333333336,-0.869,-0.485,-0.115
45533,1755586769611,59.94,-103.77,-18.37,813,764,833,873,880,34.48275862068966,-0.868,-0.485,-0.112
45563,1755586769641,59.91,-103.74,-18.4,810,764,822,871,875,33.333333333333336,-0.87,-0.486,-0.111
45592,1755586769670,60.0,-103.73,-18.39,807,769,828,875,879,34.48275862068966,-0.869,-0.486,-0.109
45622,1755586769700,60.01,-103.7,-18.38,809,770,826,875,879,33.333333333333336,-0.87,-0.487,-0.108
45651,1755586769729,59.97,-103.63,-18.38,808,766,829,868,878,34.48275862068966,-0.869,-0.486,-0.108
45681,1755586769759,60.05,-103.64,-18.41,805,771,831,875,884,33.333333333333336,-0.869,-0.485,-0.11
45711,1755586769788,60.07,-103.61,-18.41,811,759,827,867,883,33.333333333333336,-0.869,-0.486,-0.11
45740,1755586769818,60.0,-103.62,-18.42,809,776,819,881,877,34.48275862068966,-0.868,-0.486,-0.113
45770,1755586769848,60.06,-103.67,-18.43,807,770,837,868,877,33.333333333333336,-0.868,-0.487,-0.112
45800,1755586769878,60.09,-103.65,-18.45,810,763,842,866,889,33.333333333333336,-0.869,-0.488,-0.109
45829,1755586769908,60.06,-103.66,-18.49,810,772,840,868,883,34.48275862068966,-0.866,-0.489,-0.11
45859,1755586769937,60.04,-103.67,-18.55,810,773,820,869,878,33.333333333333336,-0.867,-0.488,-0.112
45889,1755586769967,60.02,-103.68,-18.58,812,771,833,877,879,33.333333333333336,-0.87,-0.487,-0.112
45918,1755586769996,60.01,-103.67,-18.59,804,761,836,867,882,34.48275862068966,-0.87,-0.488,-0.113
45948,1755586770026,60.05,-103.72,-18.6,808,767,827,861,876,33.333333333333336,-0.868,-0.488,-0.112
45978,1755586770056,60.04,-103.69,-18.63,808,770,831,869,870,33.333333333333336,-0.869,-0.49,-0.108
46007,1755586770085,60.04,-103.69,-18.62,808,770,836,870,879,34.48275862068966,-0.869,-0.491,-0.112
46037,1755586770115,60.05,-103.71,-18.62,808,769,825,872,879,33.333333333333336,-0.866,-0.49,-0.115
46066,1755586770144,60.05,-103.72,-18.62,804,761,825,866,878,34.48275862068966,-0.869,-0.491,-0.111
46096,1755586770175,60.04,-103.68,-18.61,809,774,839,869,885,33.333333333333336,-0.868,-0.49,-0.107
46126,1755586770204,60.01,-103.63,-18.6,809,769,831,866,879,33.333333333333336,-0.868,-0.491,-0.113
46156,1755586770234,60.02,-103.67,-18.59,816,766,835,871,878,33.333333333333336,-0.866,-0.491,-0.116
46185,1755586770264,59.98,-103.72,-18.63,807,765,832,868,873,34.48275862068966,-0.865,-0.491,-0.114
46215,1755586770294,59.96,-103.72,-18.65,813,768,833,869,877,33.333333333333336,-0.868,-0.491,-0.11
46245,1755586770323,60.05,-103.67,-18.63,811,768,838,873,882,33.333333333333336,-0.867,-0.491,-0.109
46275,1755586770353,60.07,-103.66,-18.62,809,770,840,870,877,33.333333333333336,-0.866,-0.492,-0.113
46304,1755586770382,60.04,-103.69,-18.64,804,767,836,870,887,34.48275862068966,-0.866,-0.491,-0.116
46334,1755586770412,60.02,-103.73,-18.66,810,768,831,873,878,33.333333333333336,-0.866,-0.49,-0.116
46363,1755586770441,60.02,-103.75,-18.66,802,769,844,862,887,34.48275862068966,-0.867,-0.493,-0.11
46393,1755586770471,60.04,-103.7,-18.64,806,767,826,864,877,33.333333333333336,-0.868,-0.493,-0.108
46423,1755586770501,60.01,-103.68,-18.63,803,768,830,873,882,33.333333333333336,-0.865,-0.492,-0.114
46452,1755586770531,59.98,-103.72,-18.64,812,765,826,876,881,34.48275862068966,-0.864,-0.491,-0.117
46472,1755586770550,59.96,-103.77,-18.67,813,769,836,877,876,50.0,-0.863,-0.489,-0.118
46502,1755586770580,59.9,-103.8,-18.68,807,767,832,872,883,33.333333333333336,-0.864,-0.491,-0.114
46532,1755586770610,59.9,-103.76,-18.67,811,768,836,869,875,33.333333333333336,-0.863,-0.491,-0.112
46561,1755586770639,59.86,-103.8,-18.71,809,770,824,872,885,34.48275862068966,-0.864,-0.492,-0.115
46591,1755586770669,59.84,-103.87,-18.74,812,767,837,870,869,33.333333333333336,-0.865,-0.491,-0.118
46621,1755586770699,59.78,-103.87,-18.76,812,773,840,876,877,33.333333333333336,-0.865,-0.489,-0.114
46650,1755586770728,59.7,-103.89,-18.8,808,762,831,870,871,34.48275862068966,-0.865,-0.492,-0.112
46680,1755586770758,59.78,-103.9,-18.78,806,771,857,870,887,33.333333333333336,-0.865,-0.495,-0.113
46710,1755586770788,59.77,-103.93,-18.8,805,775,831,876,871,33.333333333333336,-0.862,-0.499,-0.113
46739,1755586770817,59.68,-103.93,-18.8,813,769,833,864,886,34.48275862068966,-0.861,-0.499,-0.112
46769,1755586770847,59.72,-103.89,-18.78,800,762,828,871,882,33.333333333333336,-0.864,-0.494,-0.111
46799,1755586770877,59.77,-103.89,-18.77,807,772,815,875,878,33.333333333333336,-0.865,-0.495,-0.112
46828,1755586770906,59.8,-103.92,-18.77,808,772,837,868,885,34.48275862068966,-0.863,-0.497,-0.112
46858,1755586770936,59.78,-103.87,-18.78,812,769,836,869,875,33.333333333333336,-0.863,-0.493,-0.111
46887,1755586770965,59.71,-103.83,-18.78,807,776,838,872,887,34.48275862068966,-0.863,-0.496,-0.113
46917,1755586770995,59.84,-103.84,-18.77,806,769,835,871,877,33.333333333333336,-0.861,-0.493,-0.113
46946,1755586771024,59.76,-103.83,-18.82,814,763,831,873,880,34.48275862068966,-0.862,-0.492,-0.115
46976,1755586771054,59.67,-103.95,-19.04,810,772,838,872,881,33.333333333333336,-0.861,-0.494,-0.115
47006,1755586771084,59.66,-104.02,-19.18,811,772,820,865,873,33.333333333333336,-0.864,-0.494,-0.114
47035,1755586771114,59.64,-104.04,-19.23,811,768,832,870,883,34.48275862068966,-0.868,-0.493,-0.112
47065,1755586771143,59.59,-104.05,-19.27,814,772,833,870,878,33.333333333333336,-0.866,-0.496,-0.113
47095,1755586771173,59.61,-104.06,-19.27,811,764,833,869,882,33.333333333333336,-0.866,-0.496,-0.112
47124,1755586771203,59.57,-104.11,-19.32,808,775,834,868,878,34.48275862068966,-0.864,-0.494,-0.114
47154,1755586771232,59.44,-104.21,-19.41,810,771,831,876,881,33.333333333333336,-0.865,-0.495,-0.107
47184,1755586771262,59.47,-104.15,-19.42,808,761,837,865,886,33.333333333333336,-0.866,-0.498,-0.104
47213,1755586771291,59.6,-104.12,-19.39,813,771,818,880,880,34.48275862068966,-0.863,-0.503,-0.116
47243,1755586771321,59.53,-104.24,-19.43,812,772,832,872,881,33.333333333333336,-0.855,-0.509,-0.124
47272,1755586771350,59.41,-104.29,-19.43,808,762,839,875,881,34.48275862068966,-0.857,-0.51,-0.115
47302,1755586771379,59.47,-104.26,-19.42,807,774,821,868,873,33.333333333333336,-0.859,-0.505,-0.112
47331,1755586771409,59.49,-104.23,-19.41,811,762,841,879,876,34.48275862068966,-0.861,-0.51,-0.113
47361,1755586771438,59.92,-104.18,-19.36,810,780,837,874,889,33.333333333333336,-0.855,-0.507,-0.114
47390,1755586771468,59.96,-104.15,-19.38,810,770,834,875,880,34.48275862068966,-0.857,-0.505,-0.114
47420,1755586771498,59.92,-104.08,-19.35,808,762,838,877,876,33.333333333333336,-0.861,-0.507,-0.115
47449,1755586771527,59.93,-104.01,-19.33,813,768,828,870,876,34.48275862068966,-0.86,-0.503,-0.115
47479,1755586771557,59.85,-103.99,-19.34,805,768,832,865,871,33.333333333333336,-0.859,-0.499,-0.118
47508,1755586771587,59.76,-104.03,-19.39,807,761,825,872,880,34.48275862068966,-0.858,-0.501,-0.114
47538,1755586771617,59.82,-103.98,-19.41,811,764,836,868,869,33.333333333333336,-0.86,-0.5,-0.113
47568,1755586771646,59.79,-103.94,-19.43,812,776,831,877,878,33.333333333333336,-0.86,-0.502,-0.115
47598,1755586771676,59.77,-103.93,-19.43,804,773,822,876,882,33.333333333333336,-0.861,-0.503,-0.118
47627,1755586771705,59.75,-103.95,-19.46,809,779,832,870,872,34.48275862068966,-0.86,-0.504,-0.116
47657,1755586771735,59.72,-103.91,-19.44,804,773,821,873,876,33.333333333333336,-0.86,-0.507,-0.11
47687,1755586771765,59.84,-103.84,-19.41,811,772,833,869,877,33.333333333333336,-0.86,-0.505,-0.109
47716,1755586771795,59.78,-103.77,-19.42,810,763,824,873,879,34.48275862068966,-0.86,-0.505,-0.117
47736,1755586771814,59.68,-103.77,-19.42,805,776,836,866,877,50.0,-0.861,-0.506,-0.119
47766,1755586771844,59.75,-103.78,-19.41,806,774,825,879,876,33.333333333333336,-0.86,-0.505,-0.115
47796,1755586771874,59.71,-103.74,-19.43,806,765,831,870,875,33.333333333333336,-0.859,-0.506,-0.114
47816,1755586771894,59.63,-103.72,-19.44,806,766,839,868,872,50.0,-0.858,-0.507,-0.117
47846,1755586771924,59.63,-103.72,-19.41,809,766,830,866,887,33.333333333333336,-0.86,-0.506,-0.116
47875,1755586771953,59.67,-103.71,-19.39,808,773,826,873,866,34.48275862068966,-0.859,-0.503,-0.115
47905,1755586771983,59.51,-103.69,-19.42,813,772,821,873,874,33.333333333333336,-0.859,-0.504,-0.118
47935,1755586772013,59.44,-103.73,-19.43,811,772,838,867,877,33.333333333333336,-0.858,-0.505,-0.119
47964,1755586772043,59.5,-103.75,-19.43,808,767,827,863,882,34.48275862068966,-0.858,-0.504,-0.113
47994,1755586772073,59.43,-103.72,-19.43,811,773,832,866,887,33.333333333333336,-0.859,-0.506,-0.112
48024,1755586772102,59.39,-103.71,-19.42,810,765,829,886,886,33.333333333333336,-0.858,-0.505,-0.114
48054,1755586772132,59.43,-103.73,-19.42,807,763,837,872,891,33.333333333333336,-0.86,-0.506,-0.111
48083,1755586772161,59.43,-103.7,-19.41,811,773,832,875,882,34.48275862068966,-0.859,-0.506,-0.112
48113,1755586772191,59.43,-103.7,-19.42,808,772,837,871,861,33.333333333333336,-0.858,-0.506,-0.114
48142,1755586772220,59.43,-103.72,-19.41,805,766,833,871,880,34.48275862068966,-0.859,-0.505,-0.114
48172,1755586772250,59.4,-103.72,-19.4,803,765,846,874,871,33.333333333333336,-0.858,-0.504,-0.113
48202,1755586772280,59.35,-103.69,-19.39,808,766,834,868,884,33.333333333333336,-0.858,-0.505,-0.113
48231,1755586772309,59.35,-103.7,-19.39,811,773,831,867,875,34.48275862068966,-0.859,-0.505,-0.114
48261,1755586772339,59.3,-103.71,-19.4,806,768,826,875,876,33.333333333333336,-0.855,-0.504,-0.115
48291,1755586772369,59.24,-103.72,-19.42,809,771,829,882,885,33.333333333333336,-0.857,-0.504,-0.113
48320,1755586772399,59.23,-103.71,-19.42,814,767,836,863,883,34.48275862068966,-0.858,-0.504,-0.111
48350,1755586772428,59.28,-103.67,-19.41,807,769,838,868,878,33.333333333333336,-0.858,-0.505,-0.111
48380,1755586772458,59.28,-103.62,-19.39,808,772,829,879,874,33.333333333333336,-0.857,-0.507,-0.114
48409,1755586772487,59.26,-103.62,-19.38,811,771,826,869,873,34.48275862068966,-0.856,-0.507,-0.114
48439,1755586772518,59.19,-103.57,-19.4,813,769,832,872,887,33.333333333333336,-0.858,-0.506,-0.113
48459,1755586772537,59.17,-103.53,-19.39,816,764,839,867,876,50.0,-0.86,-0.506,-0.114
48489,1755586772567,59.27,-103.52,-19.36,812,773,831,887,893,33.333333333333336,-0.857,-0.507,-0.114
48518,1755586772597,59.21,-103.51,-19.38,813,764,826,879,883,34.48275862068966,-0.858,-0.506,-0.111
48548,1755586772627,59.19,-103.47,-19.36,809,765,834,874,883,33.333333333333336,-0.859,-0.505,-0.111
48578,1755586772656,59.26,-103.45,-19.36,808,761,823,868,877,33.333333333333336,-0.858,-0.503,-0.113
48608,1755586772686,59.19,-103.46,-19.36,809,770,831,868,881,33.333333333333336,-0.859,-0.506,-0.116
48637,1755586772715,59.19,-103.46,-19.35,811,774,825,869,876,34.48275862068966,-0.856,-0.507,-0.115
48667,1755586772745,59.22,-103.44,-19.37,808,760,830,870,878,33.333333333333336,-0.857,-0.505,-0.114
48696,1755586772775,59.17,-103.46,-19.36,812,765,829,864,881,34.48275862068966,-0.859,-0.506,-0.116
48726,1755586772805,59.23,-103.45,-19.32,813,765,830,868,877,33.333333333333336,-0.857,-0.507,-0.114
48756,1755586772834,59.21,-103.46,-19.34,805,767,834,865,881,33.333333333333336,-0.855,-0.505,-0.115
48786,1755586772864,59.08,-103.45,-19.35,807,773,842,867,879,33.333333333333336,-0.857,-0.508,-0.116
48816,1755586772894,59.14,-103.4,-19.26,807,773,834,871,884,33.333333333333336,-0.857,-0.508,-0.11
48845,1755586772923,59.14,-103.32,-19.22,809,762,844,868,885,34.48275862068966,-0.858,-0.505,-0.108
48875,1755586772953,58.99,-103.29,-19.19,806,766,836,875,877,33.333333333333336,-0.86,-0.504,-0.114
48905,1755586772983,58.94,-103.37,-19.13,805,768,838,870,877,33.333333333333336,-0.862,-0.503,-0.115
48934,1755586773012,59.04,-103.43,-19.11,812,767,833,876,873,34.48275862068966,-0.86,-0.499,-0.11
48964,1755586773042,58.97,-103.37,-19.12,806,770,830,871,877,33.333333333333336,-0.86,-0.5,-0.113
48993,1755586773071,58.91,-103.38,-19.09,804,776,840,864,885,34.48275862068966,-0.859,-0.506,-0.113
49023,1755586773101,59.01,-103.36,-19.08,809,770,816,877,879,33.333333333333336,-0.858,-0.505,-0.105
49053,1755586773131,59.0,-103.28,-19.07,806,771,846,869,879,33.333333333333336,-0.859,-0.505,-0.107
49082,1755586773160,59.0,-103.24,-19.05,807,766,826,864,880,34.48275862068966,-0.858,-0.505,-0.11
49112,1755586773190,59.07,-103.21,-19.05,807,767,826,873,875,33.333333333333336,-0.858,-0.502,-0.109
49141,1755586773219,59.03,-103.17,-19.07,806,771,824,873,870,34.48275862068966,-0.86,-0.502,-0.109
49171,1755586773249,59.05,-103.17,-19.07,810,762,845,870,877,33.333333333333336,-0.861,-0.503,-0.108
49200,1755586773278,59.07,-103.14,-19.08,813,769,837,869,874,34.48275862068966,-0.86,-0.499,-0.108
49230,1755586773308,58.98,-103.13,-19.1,811,774,832,873,876,33.333333333333336,-0.862,-0.499,-0.113
49259,1755586773337,59.01,-103.16,-19.13,815,765,834,880,880,34.48275862068966,-0.859,-0.499,-0.11
49289,1755586773367,58.97,-103.16,-19.2,802,764,835,871,873,33.333333333333336,-0.858,-0.499,-0.11
49318,1755586773397,58.92,-103.18,-19.23,812,769,825,877,875,34.48275862068966,-0.861,-0.501,-0.111
49348,1755586773427,58.98,-103.17,-19.23,812,770,832,870,879,33.333333333333336,-0.859,-0.503,-0.107
49378,1755586773457,58.98,-103.1,-19.23,806,771,831,862,872,33.333333333333336,-0.859,-0.505,-0.103
49398,1755586773476,58.97,-103.04,-19.23,811,765,817,865,884,50.0,-0.858,-0.503,-0.106
49428,1755586773506,58.97,-103.04,-19.26,809,768,834,869,874,33.333333333333336,-0.857,-0.502,-0.111
49458,1755586773536,58.98,-103.02,-19.26,810,765,835,873,877,33.333333333333336,-0.858,-0.504,-0.109
49488,1755586773566,59.0,-102.99,-19.27,810,773,828,863,874,33.333333333333336,-0.858,-0.505,-0.107
49517,1755586773595,58.95,-102.97,-19.29,821,772,829,869,888,34.48275862068966,-0.858,-0.505,-0.109
49547,1755586773625,58.94,-103.0,-19.29,810,764,820,861,888,33.333333333333336,-0.859,-0.506,-0.11
49576,1755586773654,58.95,-103.0,-19.3,808,771,832,868,878,34.48275862068966,-0.858,-0.508,-0.106
49606,1755586773684,58.99,-102.98,-19.27,810,766,828,868,878,33.333333333333336,-0.859,-0.508,-0.107
49635,1755586773713,59.05,-102.99,-19.26,809,768,830,874,878,34.48275862068966,-0.858,-0.507,-0.111
49665,1755586773743,58.99,-103.04,-19.27,808,763,834,867,871,33.333333333333336,-0.858,-0.507,-0.11
49694,1755586773773,58.98,-103.02,-19.26,809,761,844,866,879,34.48275862068966,-0.859,-0.507,-0.107
49724,1755586773803,59.02,-102.99,-19.25,810,764,831,864,886,33.333333333333336,-0.859,-0.506,-0.106
49754,1755586773832,59.01,-102.98,-19.24,807,767,823,876,881,33.333333333333336,-0.859,-0.507,-0.108
49784,1755586773862,58.99,-102.97,-19.23,810,772,818,858,884,33.333333333333336,-0.856,-0.506,-0.109
49813,1755586773891,58.94,-102.95,-19.25,805,773,831,866,892,34.48275862068966,-0.856,-0.505,-0.109
49843,1755586773921,58.93,-102.92,-19.24,805,772,828,867,874,33.333333333333336,-0.859,-0.506,-0.105
49872,1755586773951,58.96,-102.87,-19.22,806,764,821,870,879,34.48275862068966,-0.859,-0.505,-0.107
49902,1755586773980,58.95,-102.88,-19.21,804,769,830,862,883,33.333333333333336,-0.859,-0.506,-0.109
49932,1755586774010,58.94,-102.88,-19.22,813,771,823,870,876,33.333333333333336,-0.857,-0.506,-0.106
49961,1755586774039,58.9,-102.84,-19.22,805,760,833,878,879,34.48275862068966,-0.858,-0.504,-0.109
49991,1755586774069,58.86,-102.86,-19.22,815,762,835,863,879,33.333333333333336,-0.858,-0.507,-0.109
50021,1755586774099,58.94,-102.89,-19.2,809,769,831,872,873,33.333333333333336,-0.856,-0.508,-0.104
50050,1755586774129,58.9,-102.83,-19.2,812,763,837,878,873,34.48275862068966,-0.857,-0.506,-0.107
50080,1755586774159,58.86,-102.83,-19.2,809,761,841,870,888,33.333333333333336,-0.859,-0.504,-0.109
