timestamp_ms,recv_timestamp_ms,pitch,roll,yaw,flex1,flex2,flex3,flex4,flex5,sampling_hz,accel_x,accel_y,accel_z
66365,1755587494205,22.71,2.57,144.81,777,781,770,810,842,33.333333333333336,-0.225,0.32,0.934
66394,1755587494234,22.69,2.59,144.72,769,777,764,812,830,34.48275862068966,-0.223,0.321,0.934
66423,1755587494263,22.68,2.6,144.59,764,773,764,807,840,34.48275862068966,-0.22,0.321,0.932
66453,1755587494293,22.68,2.61,144.48,767,773,765,810,841,33.333333333333336,-0.22,0.321,0.932
66482,1755587494322,22.69,2.59,144.36,772,775,771,814,844,34.48275862068966,-0.222,0.319,0.933
66512,1755587494352,22.69,2.58,144.25,769,779,765,816,838,33.333333333333336,-0.224,0.319,0.936
66541,1755587494382,22.73,2.67,144.14,767,767,770,813,837,34.48275862068966,-0.224,0.319,0.935
66561,1755587494401,22.67,2.79,144.08,774,763,768,815,841,50.0,-0.224,0.321,0.932
66591,1755587494431,22.67,2.82,143.95,776,765,773,815,840,33.333333333333336,-0.221,0.324,0.931
66620,1755587494460,22.61,2.88,143.84,770,770,768,808,843,34.48275862068966,-0.22,0.324,0.929
66650,1755587494490,22.59,2.86,143.7,768,779,771,814,837,33.333333333333336,-0.221,0.322,0.925
66680,1755587494519,22.54,2.74,143.56,769,769,775,810,834,33.333333333333336,-0.221,0.322,0.921
66709,1755587494549,22.42,2.61,143.43,768,765,768,810,846,34.48275862068966,-0.222,0.318,0.924
66738,1755587494578,22.46,2.57,143.29,768,775,770,808,833,34.48275862068966,-0.225,0.316,0.931
66767,1755587494607,22.51,2.53,143.18,769,781,774,813,836,34.48275862068966,-0.227,0.315,0.937
66797,1755587494637,22.47,2.49,143.15,768,777,770,815,833,33.333333333333336,-0.226,0.316,0.939
66826,1755587494666,22.55,2.6,143.09,769,781,770,807,838,34.48275862068966,-0.219,0.32,0.94
66855,1755587494695,22.6,2.7,143.0,767,772,759,815,835,34.48275862068966,-0.215,0.321,0.939
66885,1755587494725,22.56,2.66,142.87,771,774,768,819,842,33.333333333333336,-0.216,0.317,0.932
66914,1755587494754,22.54,2.64,142.76,764,767,775,811,839,34.48275862068966,-0.219,0.315,0.934
66944,1755587494784,22.56,2.67,142.66,769,777,770,817,830,33.333333333333336,-0.223,0.316,0.939
66973,1755587494813,22.54,2.69,142.6,770,773,766,811,837,34.48275862068966,-0.225,0.315,0.936
67003,1755587494843,22.57,2.68,142.53,768,766,776,815,836,33.333333333333336,-0.222,0.316,0.932
67032,1755587494872,22.56,2.69,142.46,772,777,767,813,836,34.48275862068966,-0.217,0.32,0.932
67062,1755587494902,22.51,2.74,142.35,766,766,768,818,838,33.333333333333336,-0.214,0.322,0.932
67091,1755587494931,22.56,2.72,142.2,768,769,766,811,835,34.48275862068966,-0.214,0.325,0.93
67121,1755587494961,22.52,2.71,142.09,765,777,773,807,837,33.333333333333336,-0.215,0.322,0.93
67150,1755587494990,22.54,2.78,142.0,772,769,770,816,848,34.48275862068966,-0.216,0.32,0.93
67180,1755587495019,22.59,2.8,141.87,769,769,772,811,842,33.333333333333336,-0.219,0.321,0.933
67209,1755587495049,22.58,2.79,141.76,766,792,768,813,838,34.48275862068966,-0.219,0.321,0.932
67238,1755587495078,22.58,2.8,141.66,767,774,778,823,833,34.48275862068966,-0.22,0.319,0.931
67268,1755587495108,22.63,2.78,141.54,766,777,766,814,840,33.333333333333336,-0.22,0.319,0.93
67297,1755587495137,22.63,2.81,141.44,766,772,770,831,839,34.48275862068966,-0.22,0.32,0.933
67327,1755587495167,22.64,2.84,141.34,763,772,766,812,836,33.333333333333336,-0.22,0.322,0.934
67356,1755587495196,22.63,2.88,141.22,761,764,786,815,837,34.48275862068966,-0.216,0.323,0.932
67385,1755587495226,22.67,2.9,141.08,766,772,769,816,839,34.48275862068966,-0.215,0.324,0.93
67415,1755587495255,22.73,2.87,140.91,771,779,773,806,848,33.333333333333336,-0.218,0.32,0.929
67445,1755587495285,22.75,2.86,140.82,771,767,770,811,863,33.333333333333336,-0.225,0.319,0.928
67474,1755587495314,22.84,2.79,140.8,752,781,760,809,838,34.48275862068966,-0.227,0.325,0.927
67503,1755587495343,22.97,2.82,140.86,770,776,766,812,844,34.48275862068966,-0.226,0.33,0.927
67533,1755587495372,22.85,2.86,140.88,767,776,774,821,872,33.333333333333336,-0.218,0.329,0.924
67562,1755587495402,22.89,2.75,140.66,763,768,763,815,834,34.48275862068966,-0.212,0.32,0.935
67591,1755587495431,22.97,2.89,140.53,765,775,767,812,838,34.48275862068966,-0.218,0.312,0.939
67621,1755587495461,22.9,2.92,140.46,766,770,766,812,843,33.333333333333336,-0.22,0.316,0.923
67650,1755587495490,22.86,2.8,140.39,769,774,768,815,846,34.48275862068966,-0.221,0.324,0.916
67680,1755587495520,22.7,2.7,140.33,770,768,767,813,841,33.333333333333336,-0.215,0.329,0.931
67709,1755587495549,22.8,2.75,140.1,769,779,771,817,837,34.48275862068966,-0.21,0.329,0.941
67738,1755587495578,23.01,2.89,139.81,772,771,767,812,840,34.48275862068966,-0.212,0.329,0.923
67768,1755587495608,23.09,2.7,139.54,770,769,772,811,836,33.333333333333336,-0.224,0.323,0.906
67797,1755587495637,23.16,2.35,139.39,767,778,769,832,835,34.48275862068966,-0.24,0.311,0.921
67826,1755587495666,23.37,2.32,139.34,770,774,770,809,840,34.48275862068966,-0.238,0.309,0.948
67856,1755587495696,23.76,2.57,139.18,760,773,769,816,839,33.333333333333336,-0.238,0.313,0.953
67886,1755587495726,23.88,2.9,139.08,773,777,771,817,839,33.333333333333336,-0.236,0.318,0.932
67915,1755587495755,23.85,2.78,139.02,759,763,772,813,839,34.48275862068966,-0.238,0.314,0.912
67945,1755587495784,23.79,2.58,139.03,771,772,771,816,837,33.333333333333336,-0.24,0.318,0.927
67974,1755587495814,24.13,2.42,138.79,769,769,770,817,840,34.48275862068966,-0.234,0.324,0.935
68003,1755587495843,24.59,2.38,138.44,772,776,764,817,835,34.48275862068966,-0.241,0.326,0.934
68032,1755587495873,24.61,2.58,138.22,766,772,775,818,846,34.48275862068966,-0.243,0.325,0.915
68062,1755587495902,24.59,2.4,138.13,772,773,767,822,842,33.333333333333336,-0.254,0.318,0.907
68092,1755587495932,24.58,2.19,138.18,777,777,774,809,841,33.333333333333336,-0.263,0.313,0.92
68121,1755587495961,24.44,2.25,138.29,767,764,771,813,844,34.48275862068966,-0.263,0.312,0.938
68150,1755587495990,24.53,2.39,138.26,771,765,773,808,841,34.48275862068966,-0.263,0.312,0.943
68180,1755587496020,24.59,2.61,138.27,770,766,771,812,854,33.333333333333336,-0.26,0.308,0.927
68209,1755587496049,24.46,2.57,138.32,773,765,765,821,843,34.48275862068966,-0.253,0.312,0.898
68239,1755587496078,24.31,2.13,138.36,763,769,770,811,840,33.333333333333336,-0.251,0.321,0.897
68268,1755587496108,24.21,1.85,138.27,768,775,770,813,861,34.48275862068966,-0.243,0.324,0.918
68297,1755587496138,24.26,1.81,138.03,775,772,772,812,833,34.48275862068966,-0.244,0.317,0.937
68327,1755587496167,24.43,1.92,137.89,767,769,768,811,837,33.333333333333336,-0.251,0.306,0.938
68357,1755587496196,24.43,1.93,137.84,766,772,766,816,847,33.333333333333336,-0.252,0.298,0.923
68386,1755587496226,24.35,1.7,137.79,768,761,763,815,838,34.48275862068966,-0.253,0.292,0.921
68415,1755587496255,24.46,1.74,137.78,767,782,774,816,839,34.48275862068966,-0.259,0.298,0.944
68445,1755587496285,24.52,2.03,137.84,774,776,774,811,843,33.333333333333336,-0.256,0.308,0.952
68474,1755587496314,24.59,2.16,137.79,772,768,768,811,845,34.48275862068966,-0.25,0.312,0.942
68504,1755587496344,24.57,2.34,137.74,770,771,765,814,841,33.333333333333336,-0.245,0.311,0.937
68533,1755587496373,24.61,2.45,137.66,769,770,762,820,837,34.48275862068966,-0.241,0.311,0.932
68562,1755587496402,24.73,2.53,137.55,773,772,766,809,836,34.48275862068966,-0.239,0.316,0.914
68592,1755587496432,24.68,2.41,137.35,767,776,768,817,836,33.333333333333336,-0.243,0.32,0.906
68622,1755587496462,24.58,2.29,137.17,770,778,767,813,842,33.333333333333336,-0.251,0.319,0.915
68651,1755587496491,24.6,2.17,137.02,768,773,770,819,835,34.48275862068966,-0.261,0.318,0.928
68681,1755587496520,24.51,2.15,136.94,768,777,770,812,837,33.333333333333336,-0.259,0.31,0.93
68710,1755587496550,24.55,2.26,136.87,772,774,776,818,829,34.48275862068966,-0.255,0.307,0.937
68739,1755587496579,24.7,2.39,136.8,774,779,770,815,843,34.48275862068966,-0.251,0.307,0.932
68769,1755587496609,24.64,2.33,136.74,762,776,768,816,843,33.333333333333336,-0.249,0.31,0.92
68798,1755587496638,24.54,2.23,136.65,764,781,771,812,839,34.48275862068966,-0.243,0.315,0.919
68828,1755587496668,24.46,2.29,136.52,769,767,764,812,836,33.333333333333336,-0.244,0.319,0.926
68857,1755587496697,24.48,2.28,136.34,768,780,786,819,840,34.48275862068966,-0.25,0.318,0.931
68887,1755587496726,24.53,2.38,136.19,773,774,771,821,836,33.333333333333336,-0.255,0.315,0.926
68916,1755587496756,24.43,2.45,136.13,769,775,760,809,828,34.48275862068966,-0.259,0.313,0.916
68945,1755587496785,24.25,2.36,136.09,767,768,767,813,835,34.48275862068966,-0.254,0.314,0.916
68975,1755587496814,24.25,2.28,135.99,768,771,763,811,838,33.333333333333336,-0.255,0.311,0.928
69004,1755587496844,24.23,2.44,135.93,770,780,773,814,841,34.48275862068966,-0.254,0.313,0.935
69033,1755587496873,24.2,2.6,135.82,776,774,769,817,837,34.48275862068966,-0.248,0.319,0.927
69062,1755587496903,24.13,2.62,135.69,766,774,768,815,837,34.48275862068966,-0.245,0.319,0.916
69092,1755587496932,23.97,2.57,135.61,766,770,766,823,838,33.333333333333336,-0.245,0.325,0.916
69121,1755587496961,23.9,2.38,135.5,768,766,771,815,843,34.48275862068966,-0.244,0.325,0.922
69151,1755587496991,23.89,2.35,135.4,766,771,767,810,836,33.333333333333336,-0.246,0.324,0.926
69180,1755587497020,23.85,2.44,135.27,763,770,773,820,839,34.48275862068966,-0.247,0.321,0.927
69210,1755587497049,23.85,2.31,135.19,776,770,762,814,837,33.333333333333336,-0.25,0.315,0.926
69239,1755587497079,23.86,2.36,135.19,768,774,774,815,845,34.48275862068966,-0.251,0.312,0.936
69268,1755587497108,23.82,2.48,135.21,770,768,777,817,848,34.48275862068966,-0.241,0.312,0.931
69298,1755587497138,23.76,2.48,135.13,771,775,770,809,840,33.333333333333336,-0.232,0.315,0.926
69327,1755587497167,23.79,2.46,134.98,770,774,768,819,839,34.48275862068966,-0.234,0.315,0.936
69356,1755587497196,23.81,2.63,134.84,770,772,769,797,835,34.48275862068966,-0.234,0.314,0.939
69386,1755587497227,23.88,2.67,134.68,766,773,766,816,839,33.333333333333336,-0.236,0.315,0.934
69406,1755587497246,23.82,2.79,134.58,769,764,770,817,874,50.0,-0.237,0.313,0.93
69435,1755587497275,23.77,2.78,134.49,769,777,773,814,831,34.48275862068966,-0.241,0.312,0.925
69465,1755587497305,23.77,2.84,134.38,762,777,774,812,834,33.333333333333336,-0.239,0.319,0.924
69494,1755587497335,23.8,2.87,134.26,764,774,772,817,838,34.48275862068966,-0.238,0.322,0.927
69524,1755587497364,23.75,2.9,134.16,767,776,767,814,834,33.333333333333336,-0.239,0.325,0.923
69554,1755587497393,23.71,2.88,134.04,769,776,773,811,864,33.333333333333336,-0.236,0.324,0.92
69583,1755587497423,23.74,2.87,133.89,768,771,772,813,838,34.48275862068966,-0.238,0.323,0.924
69613,1755587497453,23.74,2.97,133.77,773,768,777,808,843,33.333333333333336,-0.242,0.322,0.923
69642,1755587497482,23.74,2.93,133.72,774,765,769,815,833,34.48275862068966,-0.242,0.32,0.922
69671,1755587497512,23.67,2.95,133.69,767,776,768,818,840,34.48275862068966,-0.239,0.321,0.931
69701,1755587497541,23.67,3.13,133.6,772,774,775,817,844,33.333333333333336,-0.234,0.324,0.935
69730,1755587497571,23.76,3.24,133.39,767,770,765,815,843,34.48275862068966,-0.231,0.328,0.931
69760,1755587497600,23.81,3.34,133.23,770,768,774,809,846,33.333333333333336,-0.236,0.326,0.922
69790,1755587497630,23.79,3.31,133.16,772,770,772,817,838,33.333333333333336,-0.239,0.323,0.911
69819,1755587497659,23.81,3.23,133.08,773,772,764,814,840,34.48275862068966,-0.239,0.323,0.912
69849,1755587497689,23.86,3.11,133.01,771,768,770,814,840,33.333333333333336,-0.241,0.328,0.917
69878,1755587497718,23.82,3.02,132.9,770,773,762,819,844,34.48275862068966,-0.236,0.331,0.919
69907,1755587497747,23.83,3.05,132.79,765,776,764,823,839,34.48275862068966,-0.237,0.33,0.925
69937,1755587497777,23.76,3.14,132.74,776,770,773,810,838,33.333333333333336,-0.237,0.33,0.927
69966,1755587497806,23.85,3.08,132.6,772,775,764,812,841,34.48275862068966,-0.236,0.325,0.921
69996,1755587497836,23.91,3.13,132.53,772,763,764,815,836,33.333333333333336,-0.237,0.321,0.922
70025,1755587497866,23.85,3.11,132.51,773,770,767,819,843,34.48275862068966,-0.243,0.323,0.925
70055,1755587497894,23.87,3.09,132.48,771,775,771,823,835,33.333333333333336,-0.242,0.326,0.928
70084,1755587497924,23.91,3.14,132.46,788,779,772,805,843,34.48275862068966,-0.241,0.329,0.924
70113,1755587497953,23.84,3.33,132.41,765,767,770,809,838,34.48275862068966,-0.233,0.333,0.921
70143,1755587497983,23.84,3.32,132.26,772,774,772,805,854,33.333333333333336,-0.229,0.33,0.921
70172,1755587498013,23.89,3.34,132.14,765,772,771,807,838,34.48275862068966,-0.234,0.327,0.921
70202,1755587498042,23.9,3.38,132.02,773,778,771,816,844,33.333333333333336,-0.234,0.329,0.917
70231,1755587498071,23.86,3.27,131.88,766,770,761,812,842,34.48275862068966,-0.238,0.331,0.915
70261,1755587498100,23.88,3.29,131.76,768,771,773,819,842,33.333333333333336,-0.24,0.331,0.921
70290,1755587498130,23.9,3.43,131.68,769,771,772,821,837,34.48275862068966,-0.242,0.332,0.928
70319,1755587498159,23.92,3.46,131.59,774,777,765,810,836,34.48275862068966,-0.24,0.334,0.921
70348,1755587498189,23.88,3.37,131.5,772,771,767,813,843,34.48275862068966,-0.236,0.331,0.913
70378,1755587498219,23.86,3.37,131.43,767,773,764,814,843,33.333333333333336,-0.233,0.331,0.92
70408,1755587498248,23.88,3.4,131.33,766,764,763,815,837,33.333333333333336,-0.235,0.335,0.926
70437,1755587498277,23.88,3.4,131.18,772,779,762,809,841,34.48275862068966,-0.236,0.336,0.923
70466,1755587498306,23.87,3.47,131.08,767,779,769,819,828,34.48275862068966,-0.237,0.333,0.919
70496,1755587498336,23.9,3.43,130.95,770,772,774,811,839,33.333333333333336,-0.241,0.334,0.917
70525,1755587498365,23.8,3.31,130.86,767,787,764,816,835,34.48275862068966,-0.242,0.333,0.915
70555,1755587498394,23.71,3.29,130.8,771,779,774,812,842,33.333333333333336,-0.24,0.33,0.923
70584,1755587498424,23.75,3.42,130.72,768,772,774,820,847,34.48275862068966,-0.239,0.332,0.93
70613,1755587498453,23.76,3.46,130.61,764,772,770,819,843,34.48275862068966,-0.238,0.333,0.924
70643,1755587498483,23.74,3.38,130.47,770,777,770,810,841,33.333333333333336,-0.235,0.329,0.924
70672,1755587498512,23.7,3.3,130.36,772,770,772,815,835,34.48275862068966,-0.235,0.328,0.927
70702,1755587498541,23.7,3.28,130.22,768,773,766,815,851,33.333333333333336,-0.236,0.33,0.931
70731,1755587498571,23.79,3.3,130.06,769,774,769,816,835,34.48275862068966,-0.236,0.332,0.932
70760,1755587498600,23.98,3.33,129.86,773,777,765,818,835,34.48275862068966,-0.236,0.331,0.926
70789,1755587498629,24.07,3.37,129.71,774,766,765,823,828,34.48275862068966,-0.241,0.331,0.92
70819,1755587498659,24.11,3.31,129.58,768,774,771,815,833,33.333333333333336,-0.244,0.331,0.918
70848,1755587498688,24.12,3.25,129.48,771,776,771,819,839,34.48275862068966,-0.246,0.331,0.926
70878,1755587498718,24.06,3.32,129.41,774,776,766,816,835,33.333333333333336,-0.244,0.331,0.93
70907,1755587498747,24.02,3.39,129.33,767,766,765,807,833,34.48275862068966,-0.237,0.332,0.93
70937,1755587498777,24.13,3.38,129.16,769,781,771,813,839,33.333333333333336,-0.237,0.331,0.928
70966,1755587498806,24.13,3.41,129.03,771,763,766,814,836,34.48275862068966,-0.241,0.332,0.925
70995,1755587498836,24.06,3.44,128.96,770,772,769,812,832,34.48275862068966,-0.243,0.332,0.922
71025,1755587498865,24.12,3.46,128.85,773,772,771,812,844,33.333333333333336,-0.246,0.334,0.923
71055,1755587498895,24.08,3.46,128.78,761,780,770,816,836,33.333333333333336,-0.246,0.335,0.92
71084,1755587498924,23.99,3.41,128.69,770,779,766,813,839,34.48275862068966,-0.244,0.333,0.917
71113,1755587498953,24.02,3.46,128.59,756,768,771,817,841,34.48275862068966,-0.243,0.334,0.925
71143,1755587498983,23.97,3.5,128.5,763,777,759,816,836,33.333333333333336,-0.242,0.335,0.925
71172,1755587499012,23.96,3.5,128.39,767,762,767,820,836,34.48275862068966,-0.24,0.333,0.923
71201,1755587499042,23.99,3.51,128.27,771,772,776,812,844,34.48275862068966,-0.243,0.331,0.919
71231,1755587499071,23.92,3.57,128.19,767,778,769,812,837,33.333333333333336,-0.246,0.335,0.912
71260,1755587499100,23.88,3.39,128.09,772,770,762,812,834,34.48275862068966,-0.249,0.333,0.911
71290,1755587499130,23.82,3.3,128.04,771,773,775,813,836,33.333333333333336,-0.248,0.333,0.923
71319,1755587499159,23.81,3.35,127.99,766,769,770,811,840,34.48275862068966,-0.245,0.333,0.932
71349,1755587499188,23.89,3.41,127.87,770,765,768,814,847,33.333333333333336,-0.239,0.335,0.93
71378,1755587499218,23.92,3.49,127.76,768,774,764,813,834,34.48275862068966,-0.235,0.332,0.926
71407,1755587499247,23.91,3.54,127.67,766,762,771,815,843,34.48275862068966,-0.235,0.332,0.922
71436,1755587499278,23.91,3.48,127.55,772,771,761,808,840,34.48275862068966,-0.237,0.334,0.922
71457,1755587499297,23.84,3.56,127.47,765,771,774,810,844,47.61904761904762,-0.239,0.335,0.924
71487,1755587499327,23.84,3.6,127.36,765,769,769,826,844,33.333333333333336,-0.239,0.335,0.922
71516,1755587499356,23.89,3.6,127.25,772,770,764,816,846,34.48275862068966,-0.244,0.335,0.922
71545,1755587499385,23.84,3.59,127.19,770,768,770,815,838,34.48275862068966,-0.243,0.336,0.921
71575,1755587499415,23.74,3.68,127.22,767,773,767,813,841,33.333333333333336,-0.245,0.331,0.927
71604,1755587499444,23.73,3.73,127.14,765,775,768,812,838,34.48275862068966,-0.235,0.337,0.922
71634,1755587499474,23.79,3.68,127.06,779,770,771,815,839,33.333333333333336,-0.237,0.336,0.92
71663,1755587499503,23.85,3.69,126.91,775,776,776,813,837,34.48275862068966,-0.238,0.335,0.922
71693,1755587499532,23.84,3.76,126.8,766,776,766,810,836,33.333333333333336,-0.238,0.336,0.922
71722,1755587499562,23.83,3.81,126.68,761,774,773,811,844,34.48275862068966,-0.239,0.339,0.921
71751,1755587499591,23.76,3.76,126.57,770,766,764,813,840,34.48275862068966,-0.238,0.337,0.912
71781,1755587499620,23.75,3.73,126.45,762,768,772,816,840,33.333333333333336,-0.24,0.336,0.917
71810,1755587499650,23.77,3.82,126.38,769,775,762,816,839,34.48275862068966,-0.24,0.34,0.923
71839,1755587499680,23.76,3.86,126.29,771,770,760,810,837,34.48275862068966,-0.238,0.34,0.921
71869,1755587499709,23.74,3.76,126.18,764,774,773,822,834,33.333333333333336,-0.237,0.336,0.916
71899,1755587499738,23.59,3.82,126.16,779,770,772,811,841,33.333333333333336,-0.24,0.337,0.92
71928,1755587499768,23.5,3.91,126.06,770,772,757,817,835,34.48275862068966,-0.234,0.344,0.922
71957,1755587499797,23.46,3.85,125.91,774,770,769,818,832,34.48275862068966,-0.234,0.342,0.919
71987,1755587499827,23.49,3.91,125.79,765,784,770,817,834,33.333333333333336,-0.232,0.335,0.923
72016,1755587499856,23.56,4.0,125.69,757,774,775,816,837,34.48275862068966,-0.233,0.339,0.925
72045,1755587499885,23.59,3.93,125.54,764,764,769,814,844,34.48275862068966,-0.233,0.34,0.92
72075,1755587499915,23.57,3.92,125.42,769,775,770,812,840,33.333333333333336,-0.233,0.339,0.919
72104,1755587499944,23.6,3.95,125.29,766,770,774,814,842,34.48275862068966,-0.232,0.342,0.92
72134,1755587499974,23.57,3.88,125.15,767,781,767,820,840,33.333333333333336,-0.233,0.344,0.917
72163,1755587500004,23.48,3.84,125.03,768,771,775,814,839,34.48275862068966,-0.233,0.341,0.92
72183,1755587500023,23.39,3.97,124.96,770,767,777,811,839,50.0,-0.232,0.338,0.926
72212,1755587500052,23.45,3.98,124.82,767,766,765,815,841,34.48275862068966,-0.234,0.34,0.926
72242,1755587500081,23.42,3.94,124.72,765,773,776,817,840,33.333333333333336,-0.233,0.34,0.919
72271,1755587500111,23.35,3.88,124.63,765,772,772,814,830,34.48275862068966,-0.232,0.338,0.919
72300,1755587500140,23.35,3.91,124.53,764,773,762,825,839,34.48275862068966,-0.231,0.339,0.926
72330,1755587500169,23.34,3.99,124.41,775,768,774,811,839,33.333333333333336,-0.233,0.341,0.922
72359,1755587500199,23.36,3.93,124.28,766,778,767,812,828,34.48275862068966,-0.234,0.338,0.917
72388,1755587500228,23.33,3.89,124.2,768,771,768,815,845,34.48275862068966,-0.233,0.339,0.919
72418,1755587500258,23.35,3.9,124.11,763,780,769,816,835,33.333333333333336,-0.23,0.341,0.922
72448,1755587500288,23.41,3.91,124.01,773,776,763,816,838,33.333333333333336,-0.233,0.339,0.923
72477,1755587500318,23.36,3.88,123.94,769,774,768,817,845,34.48275862068966,-0.232,0.339,0.921
72507,1755587500347,23.3,3.84,123.84,768,776,790,816,840,33.333333333333336,-0.231,0.338,0.921
72537,1755587500376,23.3,3.9,123.76,776,773,772,807,849,33.333333333333336,-0.23,0.339,0.925
72566,1755587500406,23.3,3.87,123.63,772,774,765,815,832,34.48275862068966,-0.23,0.339,0.923
72595,1755587500435,23.24,3.79,123.5,769,772,771,810,843,34.48275862068966,-0.232,0.337,0.921
72625,1755587500465,23.22,3.82,123.38,767,773,770,816,840,33.333333333333336,-0.232,0.337,0.924
72654,1755587500494,23.25,3.92,123.28,767,773,778,807,841,34.48275862068966,-0.231,0.336,0.928
72683,1755587500523,23.29,3.94,123.17,770,773,750,803,837,34.48275862068966,-0.231,0.336,0.927
72713,1755587500553,23.25,3.92,123.07,771,774,771,815,844,33.333333333333336,-0.229,0.337,0.922
72742,1755587500582,23.24,3.84,122.94,765,770,768,809,839,34.48275862068966,-0.226,0.338,0.921
72772,1755587500612,23.21,3.83,122.81,766,774,763,814,838,33.333333333333336,-0.227,0.34,0.923
72801,1755587500641,23.17,3.85,122.69,772,775,767,816,834,34.48275862068966,-0.227,0.339,0.925
72830,1755587500670,23.21,3.86,122.56,766,770,765,817,842,34.48275862068966,-0.229,0.339,0.926
72860,1755587500700,23.22,3.89,122.46,771,771,773,814,836,33.333333333333336,-0.23,0.339,0.926
72889,1755587500729,23.19,3.89,122.38,770,768,772,813,830,34.48275862068966,-0.226,0.341,0.921
72919,1755587500758,23.16,3.8,122.25,771,775,763,814,837,33.333333333333336,-0.225,0.338,0.921
72948,1755587500788,23.61,3.83,122.14,768,771,772,807,841,34.48275862068966,-0.228,0.339,0.927
72977,1755587500817,23.58,3.84,122.05,771,773,770,808,842,34.48275862068966,-0.229,0.341,0.925
73006,1755587500846,23.56,3.78,121.94,771,771,770,815,845,34.48275862068966,-0.227,0.338,0.923
73036,1755587500876,23.57,3.84,121.85,767,785,770,811,833,33.333333333333336,-0.228,0.339,0.927
73065,1755587500905,23.55,3.92,121.75,764,771,775,816,840,34.48275862068966,-0.227,0.342,0.923
73094,1755587500934,23.47,3.89,121.65,768,777,774,811,842,34.48275862068966,-0.226,0.341,0.92
73124,1755587500964,23.46,3.85,121.54,771,771,771,808,840,33.333333333333336,-0.224,0.338,0.922
73153,1755587500993,23.5,3.88,121.41,779,773,772,814,840,34.48275862068966,-0.225,0.338,0.924
73183,1755587501023,23.56,3.9,121.29,765,771,761,811,847,33.333333333333336,-0.229,0.338,0.925
73212,1755587501052,23.58,3.99,121.17,770,764,770,811,837,34.48275862068966,-0.228,0.337,0.926
73242,1755587501082,23.68,4.15,121.05,769,773,767,818,832,33.333333333333336,-0.23,0.338,0.926
73271,1755587501111,23.72,4.21,120.91,773,772,779,812,836,34.48275862068966,-0.23,0.341,0.921
73300,1755587501141,23.63,4.17,120.82,767,775,767,817,834,34.48275862068966,-0.228,0.34,0.917
73330,1755587501170,23.61,4.15,120.71,766,775,770,812,836,33.333333333333336,-0.227,0.339,0.921
73359,1755587501200,23.66,4.23,120.6,769,775,777,810,835,34.48275862068966,-0.227,0.343,0.924
73389,1755587501229,23.66,4.26,120.47,768,775,773,806,838,33.333333333333336,-0.231,0.345,0.922
73418,1755587501258,23.64,4.2,120.35,767,774,768,812,846,34.48275862068966,-0.229,0.34,0.923
73448,1755587501288,23.65,4.21,120.28,772,774,768,814,841,33.333333333333336,-0.231,0.341,0.927
73477,1755587501317,23.64,4.26,120.2,766,768,780,816,832,34.48275862068966,-0.232,0.346,0.924
73506,1755587501346,23.61,4.16,120.09,767,771,772,811,838,34.48275862068966,-0.232,0.341,0.922
73536,1755587501376,23.6,4.13,120.03,770,773,765,812,842,33.333333333333336,-0.229,0.34,0.923
73565,1755587501405,23.63,4.17,119.91,771,776,768,809,839,34.48275862068966,-0.228,0.346,0.923
73595,1755587501435,23.61,4.11,119.78,773,772,772,814,835,33.333333333333336,-0.228,0.344,0.919
73624,1755587501465,23.58,4.07,119.67,779,769,771,815,840,34.48275862068966,-0.23,0.342,0.921
73644,1755587501485,23.5,4.22,119.62,767,779,770,812,837,50.0,-0.231,0.342,0.922
73674,1755587501513,23.5,4.22,119.52,771,768,771,814,841,33.333333333333336,-0.232,0.344,0.922
73703,1755587501543,23.5,4.14,119.4,766,773,771,815,832,34.48275862068966,-0.232,0.343,0.918
73732,1755587501573,23.47,4.19,119.33,773,765,765,815,830,34.48275862068966,-0.232,0.343,0.92
73762,1755587501602,23.49,4.26,119.25,770,773,765,816,833,33.333333333333336,-0.231,0.345,0.923
73791,1755587501631,23.51,4.26,119.13,768,771,772,811,837,34.48275862068966,-0.231,0.347,0.92
73821,1755587501661,23.49,4.23,119.02,769,780,766,813,840,33.333333333333336,-0.231,0.345,0.916
73850,1755587501690,23.47,4.23,118.94,769,770,769,808,834,34.48275862068966,-0.231,0.343,0.918
73880,1755587501719,23.49,4.2,118.84,771,770,769,813,840,33.333333333333336,-0.231,0.344,0.921
73909,1755587501749,23.49,4.26,118.76,772,771,771,814,844,34.48275862068966,-0.232,0.347,0.92
73938,1755587501779,23.47,4.26,118.68,765,780,768,816,843,34.48275862068966,-0.23,0.345,0.916
73968,1755587501808,23.46,4.23,118.58,769,774,776,814,835,33.333333333333336,-0.228,0.345,0.919
73997,1755587501837,23.43,4.22,118.46,772,776,772,813,840,34.48275862068966,-0.229,0.345,0.92
74027,1755587501867,23.42,4.17,118.34,771,773,764,831,841,33.333333333333336,-0.229,0.343,0.92
74056,1755587501897,23.44,4.18,118.21,768,780,766,826,838,34.48275862068966,-0.228,0.344,0.921
74086,1755587501927,23.45,4.23,118.09,768,775,768,818,833,33.333333333333336,-0.228,0.347,0.921
74116,1755587501956,23.39,4.2,117.99,766,773,769,813,839,33.333333333333336,-0.228,0.345,0.917
74145,1755587501985,23.35,4.11,117.88,771,776,772,814,835,34.48275862068966,-0.229,0.342,0.916
74175,1755587502015,23.38,4.13,117.75,767,776,766,811,834,33.333333333333336,-0.23,0.346,0.923
74204,1755587502044,23.41,4.18,117.62,775,768,771,819,834,34.48275862068966,-0.228,0.348,0.923
74234,1755587502073,23.37,4.18,117.53,764,774,780,817,848,33.333333333333336,-0.229,0.346,0.917
74263,1755587502103,23.35,4.16,117.43,768,767,765,815,834,34.48275862068966,-0.229,0.344,0.917
74292,1755587502132,23.35,4.13,117.32,768,782,773,809,839,34.48275862068966,-0.23,0.343,0.921
74322,1755587502162,23.36,4.16,117.23,767,771,768,830,829,33.333333333333336,-0.231,0.345,0.924
74351,1755587502191,23.38,4.22,117.12,771,776,769,819,838,34.48275862068966,-0.23,0.344,0.922
74380,1755587502220,23.4,4.23,117.0,766,772,772,815,838,34.48275862068966,-0.231,0.345,0.92
74410,1755587502250,23.37,4.23,116.9,772,767,768,814,841,33.333333333333336,-0.228,0.345,0.917
74439,1755587502279,23.34,4.16,116.79,766,776,778,814,844,34.48275862068966,-0.227,0.344,0.917
74469,1755587502309,23.32,4.13,116.67,765,795,770,811,839,33.333333333333336,-0.228,0.346,0.919
74498,1755587502338,23.33,4.2,116.52,771,778,765,808,840,34.48275862068966,-0.231,0.348,0.921
74528,1755587502368,23.31,4.2,116.4,766,776,765,823,844,33.333333333333336,-0.23,0.345,0.918
74557,1755587502397,23.26,4.17,116.31,769,770,759,811,835,34.48275862068966,-0.23,0.343,0.918
74586,1755587502426,23.24,4.15,116.2,769,767,772,806,839,34.48275862068966,-0.227,0.345,0.919
74616,1755587502456,23.25,4.14,116.07,764,771,770,812,841,33.333333333333336,-0.226,0.345,0.92
74645,1755587502485,23.25,4.14,115.94,762,773,774,826,837,34.48275862068966,-0.225,0.344,0.921
74675,1755587502515,23.28,4.1,115.79,768,775,767,812,845,33.333333333333336,-0.227,0.346,0.919
74704,1755587502544,23.31,4.14,115.65,766,774,766,816,837,34.48275862068966,-0.229,0.345,0.92
74734,1755587502574,23.29,4.09,115.55,766,782,773,812,834,33.333333333333336,-0.233,0.342,0.922
74763,1755587502603,23.33,4.09,115.44,769,778,773,811,838,34.48275862068966,-0.231,0.34,0.924
74792,1755587502633,23.39,4.16,115.34,771,769,764,816,835,34.48275862068966,-0.23,0.343,0.925
74822,1755587502662,23.35,4.21,115.24,767,774,769,816,836,33.333333333333336,-0.229,0.343,0.92
74852,1755587502692,23.32,4.1,115.12,769,772,786,819,836,33.333333333333336,-0.229,0.343,0.914
74881,1755587502721,23.3,4.1,115.01,769,761,767,809,833,34.48275862068966,-0.23,0.346,0.917
74911,1755587502751,23.3,4.05,114.91,790,778,767,807,836,33.333333333333336,-0.23,0.342,0.921
74940,1755587502780,23.33,4.18,114.81,771,773,768,811,841,34.48275862068966,-0.233,0.345,0.927
74970,1755587502809,23.37,4.23,114.72,764,769,765,812,848,33.333333333333336,-0.233,0.345,0.921
74999,1755587502839,23.31,4.11,114.62,766,770,778,815,838,34.48275862068966,-0.229,0.341,0.913
75028,1755587502868,23.25,4.02,114.54,770,773,763,809,832,34.48275862068966,-0.228,0.34,0.922
75058,1755587502898,23.26,4.1,114.44,770,774,771,799,836,33.333333333333336,-0.229,0.343,0.928
75087,1755587502927,23.33,4.2,114.32,780,778,771,807,845,34.48275862068966,-0.231,0.344,0.928
75117,1755587502957,23.33,4.19,114.24,769,774,773,805,839,33.333333333333336,-0.231,0.342,0.919
