timestamp_ms,recv_timestamp_ms,pitch,roll,yaw,flex1,flex2,flex3,flex4,flex5,sampling_hz,accel_x,accel_y,accel_z
75040,1755584871428,31.72,-76.69,-44.22,821,768,766,805,843,34.48275862068966,-0.513,-0.828,0.198
75060,1755584871448,31.68,-76.66,-44.24,821,770,775,799,829,50.0,-0.514,-0.83,0.201
75090,1755584871478,31.64,-76.62,-44.23,823,774,767,796,837,33.333333333333336,-0.512,-0.831,0.203
75120,1755584871507,31.64,-76.62,-44.22,816,772,775,802,833,33.333333333333336,-0.51,-0.833,0.201
75149,1755584871537,31.62,-76.58,-44.22,817,772,777,791,835,34.48275862068966,-0.512,-0.833,0.202
75179,1755584871567,31.62,-76.56,-44.19,823,773,780,803,831,33.333333333333336,-0.514,-0.833,0.202
75209,1755584871596,31.65,-76.52,-44.17,818,771,775,794,828,33.333333333333336,-0.51,-0.83,0.202
75238,1755584871626,31.61,-76.47,-44.23,815,770,766,808,824,34.48275862068966,-0.508,-0.828,0.204
75268,1755584871656,31.6,-76.46,-44.28,823,771,769,806,833,33.333333333333336,-0.51,-0.833,0.204
75298,1755584871685,31.62,-76.48,-44.27,817,767,775,799,838,33.333333333333336,-0.513,-0.833,0.202
75327,1755584871715,31.63,-76.45,-44.26,828,775,767,800,836,34.48275862068966,-0.512,-0.833,0.204
75357,1755584871744,31.59,-76.44,-44.25,816,771,772,797,829,33.333333333333336,-0.506,-0.83,0.201
75386,1755584871774,31.57,-76.46,-44.31,821,765,772,794,836,34.48275862068966,-0.507,-0.829,0.202
75416,1755584871804,31.49,-76.42,-44.36,814,767,772,799,837,33.333333333333336,-0.513,-0.832,0.205
75446,1755584871834,31.34,-76.31,-44.37,822,771,775,808,839,33.333333333333336,-0.512,-0.831,0.204
75476,1755584871864,31.39,-76.4,-44.37,820,765,773,798,837,33.333333333333336,-0.512,-0.834,0.203
75506,1755584871893,31.45,-76.38,-44.32,817,778,774,785,828,33.333333333333336,-0.511,-0.834,0.204
75535,1755584871922,31.32,-76.39,-44.32,814,766,770,793,844,34.48275862068966,-0.508,-0.832,0.2
75564,1755584871952,31.4,-76.42,-44.32,819,777,775,800,841,34.48275862068966,-0.51,-0.833,0.203
75594,1755584871982,31.45,-76.41,-44.3,817,772,773,799,826,33.333333333333336,-0.511,-0.834,0.206
75624,1755584872011,31.4,-76.36,-44.29,820,756,776,796,828,33.333333333333336,-0.506,-0.831,0.201
75653,1755584872041,31.64,-76.56,-44.27,822,766,770,799,830,34.48275862068966,-0.51,-0.831,0.199
75683,1755584872071,31.82,-76.67,-44.22,829,776,776,802,835,33.333333333333336,-0.518,-0.836,0.2
75713,1755584872100,31.73,-76.57,-44.18,813,770,785,798,832,33.333333333333336,-0.517,-0.835,0.197
75742,1755584872130,31.77,-76.6,-44.2,819,770,775,800,831,34.48275862068966,-0.507,-0.832,0.199
75772,1755584872159,31.83,-76.67,-44.23,824,777,770,796,820,33.333333333333336,-0.502,-0.834,0.205
75801,1755584872189,31.77,-76.67,-44.26,823,761,777,798,822,34.48275862068966,-0.505,-0.836,0.208
75831,1755584872219,31.78,-76.59,-44.26,817,773,779,802,836,33.333333333333336,-0.509,-0.833,0.203
75861,1755584872249,31.85,-76.64,-44.26,819,760,775,799,827,33.333333333333336,-0.51,-0.831,0.2
75891,1755584872279,31.77,-76.66,-44.33,821,770,772,803,833,33.333333333333336,-0.509,-0.829,0.199
75920,1755584872308,31.68,-76.59,-44.39,817,762,772,794,837,34.48275862068966,-0.51,-0.832,0.2
75950,1755584872338,31.69,-76.56,-44.37,819,777,768,802,821,33.333333333333336,-0.511,-0.836,0.2
75980,1755584872367,31.73,-76.58,-44.34,817,771,769,798,840,33.333333333333336,-0.509,-0.834,0.2
76009,1755584872397,31.7,-76.55,-44.37,817,765,776,803,840,34.48275862068966,-0.51,-0.832,0.2
76039,1755584872426,31.64,-76.45,-44.37,820,771,778,800,831,33.333333333333336,-0.512,-0.834,0.197
76068,1755584872456,31.57,-76.41,-44.37,812,767,780,800,836,34.48275862068966,-0.509,-0.832,0.194
76098,1755584872485,31.58,-76.51,-44.37,817,772,778,792,832,33.333333333333336,-0.508,-0.829,0.197
76127,1755584872515,31.59,-76.49,-44.4,819,769,783,787,847,34.48275862068966,-0.508,-0.831,0.201
76157,1755584872545,31.53,-76.42,-44.43,827,766,782,809,830,33.333333333333336,-0.509,-0.833,0.201
76187,1755584872575,31.6,-76.43,-44.39,819,770,782,812,836,33.333333333333336,-0.511,-0.835,0.198
76217,1755584872604,31.63,-76.5,-44.36,821,767,772,797,836,33.333333333333336,-0.509,-0.832,0.198
76246,1755584872634,31.53,-76.49,-44.38,822,771,769,798,821,34.48275862068966,-0.508,-0.829,0.198
76276,1755584872663,31.5,-76.51,-44.42,822,769,777,810,833,33.333333333333336,-0.509,-0.831,0.198
76305,1755584872693,31.5,-76.55,-44.4,820,781,774,792,836,34.48275862068966,-0.512,-0.837,0.199
76335,1755584872723,31.47,-76.62,-44.34,825,767,765,800,829,33.333333333333336,-0.509,-0.834,0.199
76365,1755584872752,31.35,-76.74,-44.45,819,780,771,794,831,33.333333333333336,-0.496,-0.828,0.199
76394,1755584872782,31.27,-76.76,-44.59,818,767,776,808,844,34.48275862068966,-0.501,-0.832,0.201
76424,1755584872812,31.27,-76.78,-44.57,815,773,774,801,833,33.333333333333336,-0.506,-0.838,0.202
76454,1755584872841,31.33,-76.78,-44.51,819,775,775,798,836,33.333333333333336,-0.508,-0.839,0.203
76483,1755584872871,31.36,-76.69,-44.48,811,776,775,796,836,34.48275862068966,-0.505,-0.833,0.201
76513,1755584872900,31.33,-76.68,-44.55,820,771,771,796,833,33.333333333333336,-0.502,-0.83,0.196
76542,1755584872930,31.31,-76.75,-44.61,817,770,779,795,834,34.48275862068966,-0.505,-0.835,0.195
76572,1755584872960,31.3,-76.72,-44.61,821,778,770,802,838,33.333333333333336,-0.509,-0.839,0.202
76602,1755584872989,31.35,-76.65,-44.57,826,775,780,791,839,33.333333333333336,-0.506,-0.839,0.205
76631,1755584873019,31.42,-76.57,-44.54,821,769,773,803,838,34.48275862068966,-0.504,-0.838,0.203
76661,1755584873048,31.42,-76.6,-44.56,828,765,768,800,835,33.333333333333336,-0.505,-0.835,0.195
76690,1755584873078,31.4,-76.62,-44.58,818,764,772,797,831,34.48275862068966,-0.509,-0.834,0.196
76720,1755584873108,31.38,-76.53,-44.58,821,763,778,792,839,33.333333333333336,-0.51,-0.836,0.202
76750,1755584873137,31.29,-76.45,-44.56,818,771,776,803,834,33.333333333333336,-0.505,-0.836,0.197
76779,1755584873167,31.3,-76.56,-44.53,821,771,774,798,835,34.48275862068966,-0.507,-0.837,0.195
76809,1755584873196,31.34,-76.6,-44.52,824,774,779,793,830,33.333333333333336,-0.511,-0.836,0.199
76838,1755584873226,31.27,-76.52,-44.5,816,767,778,785,832,34.48275862068966,-0.51,-0.835,0.201
76868,1755584873255,31.31,-76.53,-44.49,823,773,779,796,835,33.333333333333336,-0.506,-0.835,0.199
76897,1755584873285,31.33,-76.62,-44.5,818,769,780,796,835,34.48275862068966,-0.506,-0.835,0.199
76927,1755584873314,31.29,-76.57,-44.5,818,775,770,799,824,33.333333333333336,-0.508,-0.834,0.202
76956,1755584873344,31.29,-76.5,-44.5,821,774,770,793,834,34.48275862068966,-0.508,-0.832,0.2
76986,1755584873374,31.36,-76.59,-44.5,815,772,779,794,832,33.333333333333336,-0.51,-0.833,0.199
77006,1755584873393,31.35,-76.64,-44.5,822,779,763,799,840,50.0,-0.51,-0.834,0.198
77035,1755584873423,31.26,-76.65,-44.54,828,769,767,798,832,34.48275862068966,-0.508,-0.832,0.2
77065,1755584873453,31.29,-76.65,-44.55,822,765,769,799,828,33.333333333333336,-0.507,-0.836,0.202
77095,1755584873482,31.35,-76.61,-44.55,820,775,771,799,829,33.333333333333336,-0.51,-0.838,0.202
77124,1755584873512,31.31,-76.61,-44.53,818,777,774,804,827,34.48275862068966,-0.509,-0.836,0.199
77154,1755584873541,31.31,-76.6,-44.54,821,768,769,794,836,33.333333333333336,-0.507,-0.833,0.199
77183,1755584873571,31.33,-76.6,-44.57,820,765,779,801,835,34.48275862068966,-0.508,-0.835,0.202
77213,1755584873600,31.33,-76.55,-44.56,822,762,770,795,834,33.333333333333336,-0.509,-0.834,0.199
77242,1755584873630,31.35,-76.61,-44.55,826,772,775,798,832,34.48275862068966,-0.507,-0.833,0.199
77272,1755584873660,31.3,-76.56,-44.59,818,768,768,803,834,33.333333333333336,-0.506,-0.834,0.201
77302,1755584873689,31.22,-76.49,-44.62,822,771,779,800,831,33.333333333333336,-0.507,-0.835,0.199
77331,1755584873719,31.31,-76.5,-44.59,819,768,771,794,825,34.48275862068966,-0.511,-0.837,0.199
77361,1755584873749,31.37,-76.52,-44.55,821,769,777,802,822,33.333333333333336,-0.51,-0.835,0.2
77391,1755584873778,31.27,-76.48,-44.58,826,769,777,804,830,33.333333333333336,-0.508,-0.834,0.198
77420,1755584873808,31.22,-76.54,-44.6,825,773,779,796,846,34.48275862068966,-0.507,-0.836,0.197
77450,1755584873837,31.28,-76.55,-44.57,822,776,776,790,834,33.333333333333336,-0.507,-0.835,0.2
77479,1755584873867,31.3,-76.48,-44.54,817,774,770,796,829,34.48275862068966,-0.509,-0.834,0.202
77509,1755584873897,31.27,-76.42,-44.54,818,765,769,798,832,33.333333333333336,-0.507,-0.833,0.196
77539,1755584873926,31.26,-76.53,-44.56,820,771,770,797,830,33.333333333333336,-0.507,-0.832,0.193
77568,1755584873956,31.2,-76.58,-44.58,815,772,768,797,824,34.48275862068966,-0.506,-0.832,0.198
77598,1755584873985,31.15,-76.55,-44.62,826,771,761,788,835,33.333333333333336,-0.507,-0.834,0.2
77627,1755584874015,31.19,-76.56,-44.6,815,763,775,793,832,34.48275862068966,-0.508,-0.837,0.203
77657,1755584874045,31.19,-76.52,-44.56,823,774,776,794,824,33.333333333333336,-0.505,-0.833,0.2
77687,1755584874074,31.17,-76.52,-44.58,815,768,772,801,835,33.333333333333336,-0.503,-0.831,0.196
77716,1755584874104,31.18,-76.59,-44.63,820,767,771,802,832,34.48275862068966,-0.504,-0.832,0.198
77746,1755584874133,31.16,-76.62,-44.64,818,771,768,794,835,33.333333333333336,-0.507,-0.835,0.203
77775,1755584874163,31.2,-76.56,-44.6,826,765,772,801,834,34.48275862068966,-0.507,-0.836,0.205
77805,1755584874192,31.19,-76.52,-44.59,820,772,770,798,841,33.333333333333336,-0.505,-0.834,0.201
77834,1755584874222,31.14,-76.58,-44.63,819,774,767,794,838,34.48275862068966,-0.503,-0.832,0.194
77864,1755584874251,31.16,-76.65,-44.68,817,770,766,802,826,33.333333333333336,-0.506,-0.832,0.196
77893,1755584874281,31.16,-76.65,-44.68,818,769,771,797,840,34.48275862068966,-0.509,-0.835,0.201
77923,1755584874310,31.18,-76.59,-44.64,820,769,771,796,832,33.333333333333336,-0.507,-0.836,0.202
77952,1755584874340,31.18,-76.59,-44.63,822,765,776,801,842,34.48275862068966,-0.502,-0.834,0.199
77982,1755584874370,31.14,-76.61,-44.68,821,777,769,798,848,33.333333333333336,-0.505,-0.834,0.196
78012,1755584874400,31.13,-76.64,-44.7,822,770,778,799,834,33.333333333333336,-0.509,-0.836,0.196
78042,1755584874430,31.18,-76.64,-44.65,817,772,768,802,846,33.333333333333336,-0.507,-0.835,0.197
78072,1755584874459,31.18,-76.64,-44.65,817,775,767,802,823,33.333333333333336,-0.503,-0.833,0.198
78101,1755584874489,31.14,-76.62,-44.7,820,774,772,807,841,34.48275862068966,-0.504,-0.835,0.201
78131,1755584874518,31.14,-76.59,-44.7,823,777,790,796,832,33.333333333333336,-0.507,-0.835,0.2
78160,1755584874548,31.15,-76.63,-44.69,819,771,772,798,831,34.48275862068966,-0.507,-0.834,0.195
78190,1755584874577,31.16,-76.68,-44.71,818,778,770,801,831,33.333333333333336,-0.506,-0.832,0.196
78219,1755584874607,31.14,-76.67,-44.75,819,766,768,796,827,34.48275862068966,-0.506,-0.834,0.2
78249,1755584874636,31.1,-76.63,-44.76,820,775,776,807,848,33.333333333333336,-0.505,-0.837,0.199
78278,1755584874666,31.18,-76.67,-44.72,816,772,769,802,828,34.48275862068966,-0.504,-0.839,0.198
78308,1755584874696,31.2,-76.7,-44.71,822,784,772,799,846,33.333333333333336,-0.504,-0.836,0.197
78338,1755584874726,31.17,-76.73,-44.73,829,762,774,797,823,33.333333333333336,-0.507,-0.836,0.196
78368,1755584874755,31.23,-76.79,-44.71,822,766,773,802,837,33.333333333333336,-0.507,-0.836,0.196
78397,1755584874785,31.25,-76.83,-44.7,811,775,771,795,837,34.48275862068966,-0.505,-0.834,0.197
78427,1755584874815,31.23,-76.88,-44.72,823,772,774,800,826,33.333333333333336,-0.507,-0.838,0.197
78457,1755584874844,31.26,-76.84,-44.7,827,773,768,803,829,33.333333333333336,-0.508,-0.839,0.196
78486,1755584874874,31.25,-76.81,-44.67,830,769,770,797,825,34.48275862068966,-0.505,-0.836,0.194
78516,1755584874903,31.29,-76.81,-44.69,820,768,774,802,834,33.333333333333336,-0.504,-0.835,0.195
78545,1755584874933,31.27,-76.78,-44.73,816,766,770,792,839,34.48275862068966,-0.505,-0.835,0.198
78575,1755584874963,31.21,-76.72,-44.73,821,773,768,804,826,33.333333333333336,-0.503,-0.835,0.199
78604,1755584874992,31.26,-76.75,-44.75,827,767,766,791,825,34.48275862068966,-0.504,-0.835,0.198
78634,1755584875022,31.24,-76.72,-44.77,815,772,770,806,831,33.333333333333336,-0.505,-0.835,0.197
78664,1755584875052,31.18,-76.75,-44.79,820,774,771,798,839,33.333333333333336,-0.506,-0.836,0.195
78693,1755584875081,31.17,-76.75,-44.8,819,764,779,807,822,34.48275862068966,-0.509,-0.834,0.194
78723,1755584875111,31.09,-76.78,-44.84,809,776,768,810,826,33.333333333333336,-0.508,-0.834,0.191
78753,1755584875140,31.04,-76.82,-44.85,819,772,770,787,839,33.333333333333336,-0.507,-0.835,0.191
78782,1755584875170,31.05,-76.81,-44.87,822,773,771,803,831,34.48275862068966,-0.505,-0.836,0.193
78812,1755584875199,31.01,-76.8,-44.89,823,765,772,803,834,33.333333333333336,-0.506,-0.839,0.195
78841,1755584875229,31.05,-76.8,-44.86,823,786,777,805,838,34.48275862068966,-0.507,-0.839,0.194
78871,1755584875258,31.07,-76.8,-44.83,819,782,768,805,835,33.333333333333336,-0.503,-0.834,0.193
78900,1755584875288,31.05,-76.81,-44.89,818,765,767,798,832,34.48275862068966,-0.503,-0.834,0.199
78930,1755584875317,31.03,-76.79,-44.91,821,761,782,793,826,33.333333333333336,-0.505,-0.84,0.198
78959,1755584875347,31.05,-76.81,-44.87,819,768,773,796,837,34.48275862068966,-0.505,-0.838,0.194
78989,1755584875376,31.07,-76.8,-44.88,819,765,780,799,847,33.333333333333336,-0.506,-0.836,0.194
79018,1755584875406,30.98,-76.8,-44.9,816,770,778,800,836,34.48275862068966,-0.503,-0.836,0.191
79048,1755584875435,31.01,-76.84,-44.89,819,777,767,803,834,33.333333333333336,-0.506,-0.839,0.193
79077,1755584875465,30.99,-76.85,-44.87,821,778,770,791,834,34.48275862068966,-0.507,-0.839,0.194
79107,1755584875494,30.94,-76.75,-44.82,813,767,761,801,839,33.333333333333336,-0.506,-0.838,0.196
79136,1755584875524,31.02,-76.73,-44.79,827,768,775,800,833,34.48275862068966,-0.504,-0.836,0.197
79166,1755584875553,30.96,-76.76,-44.81,825,781,778,804,828,33.333333333333336,-0.503,-0.835,0.195
79195,1755584875583,30.87,-76.77,-44.83,816,772,774,800,821,34.48275862068966,-0.504,-0.838,0.194
79225,1755584875612,30.98,-76.83,-44.81,821,765,772,801,840,33.333333333333336,-0.505,-0.839,0.197
79254,1755584875642,31.02,-76.8,-44.78,813,769,774,808,828,34.48275862068966,-0.505,-0.838,0.2
79284,1755584875671,30.93,-76.71,-44.8,822,768,781,801,832,33.333333333333336,-0.503,-0.834,0.197
79313,1755584875701,30.93,-76.75,-44.83,820,763,783,791,836,34.48275862068966,-0.503,-0.836,0.191
79343,1755584875730,30.93,-76.82,-44.83,823,773,769,784,832,33.333333333333336,-0.504,-0.836,0.194
79372,1755584875760,30.89,-76.82,-44.83,823,774,775,797,839,34.48275862068966,-0.501,-0.836,0.202
79402,1755584875790,30.94,-76.72,-44.85,826,778,754,806,838,33.333333333333336,-0.502,-0.836,0.202
79432,1755584875819,30.85,-76.69,-44.87,819,770,775,805,832,33.333333333333336,-0.503,-0.835,0.194
79461,1755584875849,30.85,-76.81,-44.89,819,769,758,802,833,34.48275862068966,-0.504,-0.837,0.193
79491,1755584875878,30.92,-76.76,-44.86,820,775,770,798,838,33.333333333333336,-0.506,-0.838,0.2
79520,1755584875908,30.87,-76.68,-44.87,817,773,765,802,837,34.48275862068966,-0.504,-0.838,0.199
79550,1755584875938,30.84,-76.72,-44.88,818,771,769,796,826,33.333333333333336,-0.503,-0.836,0.193
79579,1755584875967,30.91,-76.79,-44.88,822,773,775,797,831,34.48275862068966,-0.506,-0.838,0.195
79609,1755584875997,30.86,-76.73,-44.86,822,773,773,807,835,33.333333333333336,-0.506,-0.837,0.198
79639,1755584876027,30.85,-76.72,-44.85,818,765,780,796,821,33.333333333333336,-0.503,-0.838,0.198
79668,1755584876056,30.92,-76.76,-44.86,825,772,779,790,847,34.48275862068966,-0.504,-0.837,0.197
79698,1755584876086,30.86,-76.77,-44.87,821,766,777,794,824,33.333333333333336,-0.505,-0.835,0.194
79728,1755584876116,30.83,-76.82,-44.89,816,769,771,802,823,33.333333333333336,-0.505,-0.842,0.197
79757,1755584876145,30.87,-76.82,-44.88,822,770,772,799,827,34.48275862068966,-0.502,-0.842,0.2
79787,1755584876175,30.88,-76.78,-44.86,820,774,772,801,839,33.333333333333336,-0.502,-0.841,0.197
79816,1755584876204,30.86,-76.77,-44.88,821,765,772,793,830,34.48275862068966,-0.504,-0.839,0.192
79846,1755584876234,30.88,-76.82,-44.86,817,765,770,799,837,33.333333333333336,-0.506,-0.838,0.192
79876,1755584876263,30.92,-76.81,-44.84,820,768,775,796,834,33.333333333333336,-0.505,-0.839,0.197
79905,1755584876293,30.87,-76.77,-44.83,827,769,776,795,830,34.48275862068966,-0.502,-0.839,0.2
79935,1755584876323,30.9,-76.71,-44.83,819,764,775,802,833,33.333333333333336,-0.502,-0.838,0.2
79964,1755584876352,30.92,-76.71,-44.84,826,769,779,797,833,34.48275862068966,-0.502,-0.835,0.193
79994,1755584876382,30.88,-76.78,-44.87,820,769,771,790,833,33.333333333333336,-0.504,-0.836,0.189
80024,1755584876412,30.92,-76.82,-44.87,814,774,777,800,831,33.333333333333336,-0.506,-0.837,0.194
80053,1755584876441,30.93,-76.78,-44.86,813,779,776,805,833,34.48275862068966,-0.504,-0.838,0.199
80083,1755584876470,30.91,-76.78,-44.88,819,764,772,800,843,33.333333333333336,-0.502,-0.835,0.196
80112,1755584876500,30.93,-76.76,-44.91,822,768,775,800,837,34.48275862068966,-0.504,-0.836,0.194
80142,1755584876530,30.89,-76.81,-44.91,812,774,776,798,836,33.333333333333336,-0.506,-0.838,0.192
80172,1755584876559,30.91,-76.85,-44.88,822,769,781,802,830,33.333333333333336,-0.504,-0.836,0.194
80201,1755584876589,30.95,-76.84,-44.87,819,768,785,792,843,34.48275862068966,-0.502,-0.836,0.198
80231,1755584876619,30.93,-76.8,-44.89,819,775,770,796,833,33.333333333333336,-0.501,-0.835,0.196
80261,1755584876648,30.95,-76.8,-44.91,820,775,772,795,831,33.333333333333336,-0.504,-0.836,0.195
80290,1755584876678,30.95,-76.82,-44.91,817,778,770,797,831,34.48275862068966,-0.506,-0.837,0.194
80320,1755584876708,30.95,-76.81,-44.89,821,769,772,798,831,33.333333333333336,-0.505,-0.838,0.195
80340,1755584876728,30.96,-76.81,-44.88,827,773,766,798,824,50.0,-0.503,-0.837,0.195
80369,1755584876757,30.99,-76.81,-44.89,819,773,770,798,828,34.48275862068966,-0.501,-0.836,0.198
80399,1755584876786,30.95,-76.76,-44.92,821,776,774,795,828,33.333333333333336,-0.502,-0.836,0.199
80428,1755584876816,30.95,-76.74,-44.92,815,769,772,799,841,34.48275862068966,-0.504,-0.837,0.197
80458,1755584876846,31.02,-76.76,-44.9,820,768,774,802,824,33.333333333333336,-0.505,-0.836,0.194
80487,1755584876875,30.98,-76.77,-44.92,820,772,778,797,831,34.48275862068966,-0.503,-0.836,0.194
80517,1755584876905,30.93,-76.77,-44.94,815,773,791,785,818,33.333333333333336,-0.503,-0.836,0.196
80546,1755584876934,30.99,-76.74,-44.92,818,758,781,795,826,34.48275862068966,-0.505,-0.838,0.199
80576,1755584876964,30.99,-76.72,-44.91,817,764,777,799,835,33.333333333333336,-0.503,-0.837,0.197
80606,1755584876994,30.98,-76.7,-44.92,823,771,779,801,833,33.333333333333336,-0.504,-0.836,0.195
80635,1755584877024,30.99,-76.74,-44.93,818,771,768,808,836,34.48275862068966,-0.506,-0.837,0.195
80665,1755584877053,30.97,-76.76,-44.92,821,764,777,802,830,33.333333333333336,-0.506,-0.838,0.196
80695,1755584877083,30.98,-76.75,-44.9,814,765,779,795,839,33.333333333333336,-0.504,-0.836,0.198
80725,1755584877112,31.01,-76.74,-44.92,823,773,769,799,835,33.333333333333336,-0.504,-0.835,0.198
80754,1755584877142,30.97,-76.72,-44.94,825,773,778,791,819,34.48275862068966,-0.505,-0.836,0.197
80784,1755584877172,30.96,-76.75,-44.94,821,771,772,823,819,33.333333333333336,-0.505,-0.836,0.195
80814,1755584877203,30.99,-76.75,-44.92,820,778,782,805,826,33.333333333333336,-0.504,-0.837,0.196
80834,1755584877223,30.98,-76.74,-44.92,820,769,784,801,837,50.0,-0.503,-0.836,0.198
80854,1755584877243,30.94,-76.72,-44.93,812,775,770,801,839,50.0,-0.501,-0.836,0.2
80884,1755584877272,30.96,-76.72,-44.95,827,770,763,797,839,33.333333333333336,-0.502,-0.836,0.198
80914,1755584877302,30.99,-76.7,-44.92,823,767,791,798,841,33.333333333333336,-0.503,-0.837,0.196
80943,1755584877331,31.01,-76.71,-44.9,818,775,768,797,832,34.48275862068966,-0.503,-0.836,0.197
80973,1755584877361,31.04,-76.7,-44.91,819,766,776,795,833,33.333333333333336,-0.501,-0.833,0.198
81003,1755584877391,31.01,-76.69,-44.95,824,771,774,793,824,33.333333333333336,-0.502,-0.833,0.196
81032,1755584877420,31.03,-76.69,-44.96,820,778,773,803,826,34.48275862068966,-0.506,-0.836,0.195
81062,1755584877449,31.03,-76.68,-44.94,820,771,775,802,818,33.333333333333336,-0.506,-0.836,0.195
81091,1755584877480,30.99,-76.71,-44.95,819,772,769,795,838,34.48275862068966,-0.502,-0.834,0.196
81111,1755584877499,30.99,-76.72,-44.97,820,766,768,790,846,50.0,-0.501,-0.835,0.196
81141,1755584877529,31.01,-76.69,-44.99,821,772,766,801,850,33.333333333333336,-0.503,-0.836,0.196
81171,1755584877558,31.02,-76.68,-44.98,830,776,775,797,837,33.333333333333336,-0.506,-0.837,0.197
81200,1755584877588,31.05,-76.65,-44.94,822,774,773,799,849,34.48275862068966,-0.505,-0.836,0.197
81230,1755584877617,31.01,-76.61,-44.93,816,776,774,799,829,33.333333333333336,-0.503,-0.835,0.196
81259,1755584877647,30.92,-76.64,-44.98,822,770,765,802,841,34.48275862068966,-0.501,-0.834,0.193
81289,1755584877677,30.93,-76.68,-45.01,820,774,775,797,831,33.333333333333336,-0.505,-0.836,0.195
81318,1755584877706,30.97,-76.63,-44.99,819,771,770,796,828,34.48275862068966,-0.506,-0.836,0.198
81348,1755584877736,30.93,-76.61,-44.99,822,766,769,793,829,33.333333333333336,-0.502,-0.835,0.198
81378,1755584877766,30.92,-76.62,-45.02,825,768,774,787,845,33.333333333333336,-0.502,-0.837,0.198
81407,1755584877795,30.9,-76.61,-45.03,815,773,775,792,832,34.48275862068966,-0.503,-0.838,0.199
81437,1755584877824,30.84,-76.51,-45.02,820,763,774,801,830,33.333333333333336,-0.506,-0.838,0.199
81466,1755584877854,30.81,-76.46,-45.02,823,775,774,796,830,34.48275862068966,-0.506,-0.837,0.199
81496,1755584877883,30.82,-76.4,-44.99,816,763,772,784,829,33.333333333333336,-0.504,-0.837,0.199
81525,1755584877913,30.78,-76.4,-44.99,810,772,774,805,829,34.48275862068966,-0.501,-0.838,0.201
81555,1755584877942,30.81,-76.39,-45.0,820,768,776,801,835,33.333333333333336,-0.501,-0.835,0.202
81584,1755584877972,30.81,-76.3,-45.02,821,771,773,797,830,34.48275862068966,-0.504,-0.835,0.199
81614,1755584878001,30.73,-76.32,-45.01,821,770,774,802,835,33.333333333333336,-0.504,-0.837,0.198
81643,1755584878031,30.79,-76.41,-44.99,815,773,767,805,824,34.48275862068966,-0.503,-0.836,0.203
81673,1755584878061,30.81,-76.38,-45.02,825,772,778,802,833,33.333333333333336,-0.5,-0.833,0.21
81703,1755584878091,30.74,-76.29,-45.06,827,766,767,804,827,33.333333333333336,-0.501,-0.834,0.208
81733,1755584878120,30.83,-76.27,-45.04,818,776,775,803,839,33.333333333333336,-0.504,-0.836,0.204
81762,1755584878150,30.84,-76.34,-45.03,818,771,777,793,828,34.48275862068966,-0.504,-0.835,0.205
81792,1755584878179,30.77,-76.29,-45.05,819,778,775,798,825,33.333333333333336,-0.502,-0.834,0.205
81821,1755584878210,30.87,-76.3,-45.04,818,773,778,803,833,34.48275862068966,-0.504,-0.836,0.206
81851,1755584878239,30.83,-76.3,-45.02,813,771,777,793,832,33.333333333333336,-0.505,-0.835,0.204
81881,1755584878269,30.72,-76.33,-45.04,821,768,775,797,838,33.333333333333336,-0.504,-0.835,0.202
81911,1755584878298,30.72,-76.33,-45.05,829,764,771,798,836,33.333333333333336,-0.503,-0.834,0.204
81940,1755584878328,30.73,-76.33,-45.05,809,779,778,802,835,34.48275862068966,-0.505,-0.836,0.208
81970,1755584878358,30.71,-76.34,-45.04,819,790,775,801,828,33.333333333333336,-0.504,-0.837,0.208
82000,1755584878387,30.73,-76.37,-45.03,818,779,768,795,831,33.333333333333336,-0.502,-0.835,0.205
82029,1755584878417,30.72,-76.38,-45.04,824,774,771,793,843,34.48275862068966,-0.502,-0.834,0.206
82059,1755584878446,30.7,-76.36,-45.05,816,766,774,803,827,33.333333333333336,-0.505,-0.837,0.208
82088,1755584878476,30.68,-76.39,-45.04,815,766,766,802,834,34.48275862068966,-0.505,-0.836,0.205
82118,1755584878505,30.7,-76.44,-45.02,819,774,773,787,823,33.333333333333336,-0.505,-0.835,0.205
82147,1755584878535,30.69,-76.42,-45.02,822,785,769,801,829,34.48275862068966,-0.502,-0.834,0.208
82177,1755584878565,30.67,-76.4,-45.06,825,764,765,801,838,33.333333333333336,-0.501,-0.834,0.205
82207,1755584878595,30.73,-76.53,-45.11,817,775,769,803,828,33.333333333333336,-0.503,-0.835,0.2
82236,1755584878624,30.74,-76.71,-45.16,819,767,772,800,836,34.48275862068966,-0.504,-0.837,0.198
82266,1755584878654,30.62,-76.83,-45.29,826,773,777,807,832,33.333333333333336,-0.501,-0.836,0.203
82295,1755584878683,30.63,-76.74,-45.33,819,774,778,809,826,34.48275862068966,-0.502,-0.839,0.209
82325,1755584878713,30.64,-76.61,-45.29,817,776,778,796,832,33.333333333333336,-0.505,-0.842,0.208
82355,1755584878742,30.6,-76.6,-45.28,821,775,775,805,835,33.333333333333336,-0.503,-0.84,0.203
82384,1755584878772,30.59,-76.6,-45.28,824,772,773,814,837,34.48275862068966,-0.502,-0.84,0.202
82414,1755584878802,30.58,-76.55,-45.28,837,769,773,805,832,33.333333333333336,-0.502,-0.841,0.204
82444,1755584878832,30.48,-76.51,-45.29,833,772,772,819,837,33.333333333333336,-0.5,-0.839,0.203
82473,1755584878861,30.48,-76.61,-45.32,821,767,775,798,849,34.48275862068966,-0.497,-0.837,0.204
82503,1755584878891,30.51,-76.69,-45.36,820,765,769,803,829,33.333333333333336,-0.499,-0.839,0.204
82533,1755584878920,30.47,-76.67,-45.37,817,774,767,798,829,33.333333333333336,-0.497,-0.838,0.204
82562,1755584878950,30.48,-76.67,-45.4,815,778,786,795,845,34.48275862068966,-0.496,-0.836,0.206
82592,1755584878979,30.56,-76.7,-45.41,817,777,767,793,846,33.333333333333336,-0.5,-0.839,0.205
82621,1755584879009,30.52,-76.67,-45.42,816,776,785,800,837,34.48275862068966,-0.498,-0.837,0.199
82651,1755584879038,30.54,-76.71,-45.47,813,775,773,799,844,33.333333333333336,-0.496,-0.838,0.198
82680,1755584879068,30.61,-76.66,-45.48,825,763,769,802,831,34.48275862068966,-0.498,-0.84,0.202
82710,1755584879097,30.61,-76.66,-45.46,819,758,771,804,832,33.333333333333336,-0.499,-0.842,0.203
82739,1755584879127,30.61,-76.65,-45.44,808,766,772,808,836,34.48275862068966,-0.497,-0.841,0.201
82769,1755584879156,30.62,-76.64,-45.48,812,772,775,799,836,33.333333333333336,-0.495,-0.839,0.201
82798,1755584879186,30.6,-76.67,-45.51,812,774,776,798,834,34.48275862068966,-0.496,-0.839,0.2
82828,1755584879216,30.63,-76.66,-45.51,825,772,775,799,833,33.333333333333336,-0.498,-0.842,0.202
82858,1755584879245,30.66,-76.71,-45.5,824,765,771,808,837,33.333333333333336,-0.494,-0.842,0.202
82887,1755584879275,30.67,-76.66,-45.51,819,771,783,799,835,34.48275862068966,-0.494,-0.842,0.204
82907,1755584879295,30.62,-76.64,-45.54,822,766,769,801,832,50.0,-0.493,-0.84,0.203
82937,1755584879324,30.48,-76.68,-45.59,809,770,781,794,836,33.333333333333336,-0.493,-0.839,0.199
82966,1755584879354,30.53,-76.78,-45.64,816,773,772,800,831,34.48275862068966,-0.496,-0.84,0.195
82996,1755584879383,30.51,-76.87,-45.67,814,772,769,800,838,33.333333333333336,-0.498,-0.844,0.193
83025,1755584879413,30.38,-76.96,-45.72,815,768,768,799,830,34.48275862068966,-0.495,-0.841,0.195
83055,1755584879443,30.46,-77.05,-45.74,817,773,771,807,834,33.333333333333336,-0.494,-0.843,0.202
83085,1755584879472,30.38,-76.95,-45.74,818,777,779,797,841,33.333333333333336,-0.494,-0.846,0.204
83114,1755584879502,30.33,-76.92,-45.7,815,773,780,798,833,34.48275862068966,-0.494,-0.847,0.198
83144,1755584879531,30.43,-76.96,-45.66,816,777,767,808,838,33.333333333333336,-0.494,-0.844,0.195
83173,1755584879561,30.39,-76.9,-45.66,812,773,781,795,825,34.48275862068966,-0.495,-0.842,0.198
83203,1755584879590,30.32,-76.87,-45.66,822,771,778,797,847,33.333333333333336,-0.494,-0.843,0.198
83232,1755584879620,30.44,-76.93,-45.65,812,778,771,792,832,34.48275862068966,-0.493,-0.843,0.199
83262,1755584879649,30.45,-76.97,-45.66,821,771,776,799,826,33.333333333333336,-0.493,-0.842,0.199
83291,1755584879679,30.39,-77.03,-45.68,812,770,775,795,827,34.48275862068966,-0.491,-0.842,0.196
83321,1755584879708,30.45,-77.08,-45.7,824,776,775,802,839,33.333333333333336,-0.491,-0.844,0.194
83350,1755584879738,30.57,-77.2,-45.66,820,768,766,802,833,34.48275862068966,-0.493,-0.844,0.192
83380,1755584879768,30.7,-77.28,-45.6,822,772,770,802,834,33.333333333333336,-0.497,-0.848,0.193
83410,1755584879797,30.68,-77.21,-45.56,823,776,772,802,839,33.333333333333336,-0.493,-0.843,0.189
83439,1755584879827,30.53,-77.21,-45.6,819,779,769,804,836,34.48275862068966,-0.491,-0.841,0.189
83469,1755584879856,30.49,-77.21,-45.63,814,776,778,800,837,33.333333333333336,-0.496,-0.843,0.19
83498,1755584879886,30.49,-77.21,-45.59,817,771,772,798,845,34.48275862068966,-0.498,-0.846,0.189
83528,1755584879916,30.56,-77.22,-45.54,822,776,777,802,847,33.333333333333336,-0.494,-0.844,0.189
83558,1755584879946,30.55,-77.24,-45.58,811,777,775,811,827,33.333333333333336,-0.493,-0.842,0.191
83588,1755584879975,30.42,-77.18,-45.63,820,774,779,816,836,33.333333333333336,-0.495,-0.845,0.191
83617,1755584880005,30.45,-77.2,-45.61,814,783,776,797,829,34.48275862068966,-0.496,-0.846,0.188
83647,1755584880035,30.55,-77.22,-45.56,820,761,788,795,838,33.333333333333336,-0.497,-0.845,0.188
83676,1755584880064,30.53,-77.23,-45.57,820,760,773,805,841,34.48275862068966,-0.494,-0.84,0.19
83706,1755584880094,30.51,-77.2,-45.61,817,770,775,803,831,33.333333333333336,-0.492,-0.842,0.192
83736,1755584880123,30.55,-77.21,-45.61,813,784,780,795,837,33.333333333333336,-0.494,-0.845,0.193
83765,1755584880153,30.54,-77.18,-45.6,822,779,772,802,831,34.48275862068966,-0.495,-0.846,0.189
83795,1755584880182,30.56,-77.22,-45.6,807,771,777,793,853,33.333333333333336,-0.495,-0.845,0.186
83824,1755584880212,30.53,-77.26,-45.61,817,767,786,796,829,34.48275862068966,-0.491,-0.844,0.189
