timestamp_ms,recv_timestamp_ms,pitch,roll,yaw,flex1,flex2,flex3,flex4,flex5,sampling_hz,accel_x,accel_y,accel_z
72602,1755587084120,61.28,-98.65,-33.54,772,769,774,750,879,50.0,-0.881,-0.479,-0.07
72632,1755587084151,61.3,-98.68,-33.57,768,773,776,746,881,33.333333333333336,-0.878,-0.477,-0.069
72652,1755587084171,61.28,-98.64,-33.58,774,771,770,747,876,50.0,-0.877,-0.476,-0.067
72672,1755587084191,61.28,-98.64,-33.6,769,775,772,747,884,50.0,-0.876,-0.478,-0.069
72702,1755587084221,61.3,-98.6,-33.61,768,774,774,750,886,33.333333333333336,-0.877,-0.479,-0.072
72732,1755587084250,61.32,-98.68,-33.62,771,777,769,750,875,33.333333333333336,-0.879,-0.481,-0.071
72762,1755587084280,61.33,-98.68,-33.63,764,775,774,748,878,33.333333333333336,-0.876,-0.479,-0.07
72791,1755587084310,61.37,-98.81,-33.67,773,767,776,752,888,34.48275862068966,-0.875,-0.48,-0.073
72821,1755587084340,61.38,-98.84,-33.7,769,774,771,753,887,33.333333333333336,-0.873,-0.48,-0.072
72851,1755587084370,61.41,-98.76,-33.69,766,777,771,747,878,33.333333333333336,-0.874,-0.479,-0.068
72881,1755587084400,61.37,-98.72,-33.71,769,770,773,750,869,33.333333333333336,-0.876,-0.483,-0.07
72911,1755587084430,61.41,-98.72,-33.69,766,784,772,748,882,33.333333333333336,-0.878,-0.485,-0.072
72941,1755587084460,61.41,-98.69,-33.67,766,772,772,747,881,33.333333333333336,-0.874,-0.483,-0.074
72961,1755587084480,61.42,-98.7,-33.68,769,767,784,752,882,50.0,-0.872,-0.48,-0.074
72991,1755587084510,61.34,-98.69,-33.7,765,788,770,749,865,33.333333333333336,-0.871,-0.481,-0.077
73021,1755587084540,61.27,-98.74,-33.77,771,772,772,755,893,33.333333333333336,-0.869,-0.481,-0.079
73051,1755587084569,61.24,-98.82,-33.88,768,776,776,750,876,33.333333333333336,-0.868,-0.479,-0.074
73081,1755587084599,61.2,-98.74,-33.92,773,767,775,754,886,33.333333333333336,-0.872,-0.48,-0.071
73101,1755587084619,61.19,-98.67,-33.93,765,774,777,751,875,50.0,-0.876,-0.483,-0.072
73131,1755587084649,61.17,-98.65,-33.93,769,775,774,742,910,33.333333333333336,-0.879,-0.486,-0.071
73161,1755587084679,61.19,-98.64,-33.9,771,770,770,749,883,33.333333333333336,-0.878,-0.486,-0.072
73190,1755587084709,61.24,-98.61,-33.87,772,771,773,747,868,34.48275862068966,-0.875,-0.484,-0.071
73220,1755587084739,61.23,-98.51,-33.87,767,776,769,746,868,33.333333333333336,-0.873,-0.484,-0.07
73250,1755587084769,61.22,-98.55,-33.89,767,770,771,744,885,33.333333333333336,-0.874,-0.484,-0.074
73280,1755587084799,61.24,-98.58,-33.88,776,769,770,750,872,33.333333333333336,-0.876,-0.485,-0.074
73310,1755587084829,61.29,-98.58,-33.88,768,775,771,748,870,33.333333333333336,-0.875,-0.484,-0.071
73330,1755587084849,61.28,-98.55,-33.87,770,772,770,747,883,50.0,-0.874,-0.484,-0.068
73360,1755587084879,61.28,-98.58,-33.88,767,772,766,743,886,33.333333333333336,-0.874,-0.485,-0.071
73390,1755587084909,61.28,-98.57,-33.86,768,768,773,753,882,33.333333333333336,-0.877,-0.485,-0.069
73410,1755587084929,61.24,-98.54,-33.85,768,779,771,753,880,50.0,-0.874,-0.483,-0.07
73440,1755587084959,61.33,-98.53,-33.85,766,765,774,741,869,33.333333333333336,-0.876,-0.485,-0.072
73470,1755587084989,61.34,-98.5,-33.81,767,757,774,749,887,33.333333333333336,-0.876,-0.483,-0.073
73490,1755587085009,61.35,-98.49,-33.8,774,764,775,753,872,50.0,-0.876,-0.482,-0.07
73520,1755587085039,61.29,-98.47,-33.81,766,775,775,749,875,33.333333333333336,-0.873,-0.481,-0.069
73540,1755587085059,61.26,-98.44,-33.83,771,771,769,750,888,50.0,-0.871,-0.483,-0.073
73570,1755587085089,61.29,-98.46,-33.84,771,780,778,749,886,33.333333333333336,-0.874,-0.483,-0.077
73600,1755587085118,61.25,-98.55,-33.87,772,780,773,748,870,33.333333333333336,-0.875,-0.482,-0.075
73629,1755587085148,61.22,-98.62,-33.93,775,769,774,751,880,34.48275862068966,-0.872,-0.482,-0.075
73650,1755587085168,61.21,-98.63,-33.94,772,773,766,744,874,47.61904761904762,-0.871,-0.484,-0.076
73679,1755587085198,61.21,-98.68,-33.97,777,771,772,751,879,34.48275862068966,-0.873,-0.484,-0.074
73709,1755587085228,61.22,-98.68,-33.98,772,780,774,748,881,33.333333333333336,-0.874,-0.484,-0.074
73739,1755587085258,61.23,-98.59,-33.97,778,775,775,750,881,33.333333333333336,-0.875,-0.484,-0.072
73769,1755587085288,61.2,-98.55,-33.96,772,766,771,746,883,33.333333333333336,-0.874,-0.487,-0.074
73799,1755587085318,61.2,-98.52,-33.94,768,760,774,747,896,33.333333333333336,-0.873,-0.488,-0.075
73829,1755587085348,61.21,-98.56,-33.95,765,770,774,747,877,33.333333333333336,-0.871,-0.487,-0.075
73849,1755587085368,61.21,-98.54,-33.93,759,774,773,752,881,50.0,-0.873,-0.486,-0.074
73879,1755587085398,61.24,-98.53,-33.92,769,773,774,745,877,33.333333333333336,-0.874,-0.485,-0.076
73909,1755587085428,61.28,-98.56,-33.91,769,766,771,754,882,33.333333333333336,-0.875,-0.485,-0.076
73939,1755587085458,61.26,-98.53,-33.92,773,768,772,744,883,33.333333333333336,-0.873,-0.485,-0.074
73959,1755587085478,61.19,-98.51,-33.92,759,773,776,746,876,50.0,-0.872,-0.486,-0.076
73989,1755587085508,61.2,-98.54,-33.92,769,764,773,750,890,33.333333333333336,-0.874,-0.488,-0.076
74019,1755587085538,61.23,-98.49,-33.87,773,774,774,744,878,33.333333333333336,-0.875,-0.487,-0.076
74039,1755587085558,61.3,-98.49,-33.87,774,764,782,750,878,50.0,-0.873,-0.483,-0.074
74059,1755587085578,61.32,-98.5,-33.87,781,770,776,755,896,50.0,-0.872,-0.48,-0.072
74079,1755587085598,61.27,-98.46,-33.88,773,773,770,750,883,50.0,-0.871,-0.478,-0.073
74109,1755587085628,61.25,-98.39,-33.88,773,773,773,745,882,33.333333333333336,-0.872,-0.479,-0.075
74139,1755587085658,61.24,-98.35,-33.88,772,772,770,752,882,33.333333333333336,-0.873,-0.483,-0.081
74159,1755587085678,61.26,-98.46,-33.89,768,771,776,757,874,50.0,-0.875,-0.487,-0.086
74189,1755587085708,61.23,-98.6,-33.9,769,769,778,747,865,33.333333333333336,-0.873,-0.488,-0.082
74209,1755587085728,61.21,-98.6,-33.9,771,780,772,748,883,50.0,-0.87,-0.485,-0.074
74239,1755587085758,61.16,-98.54,-33.92,765,769,773,746,895,33.333333333333336,-0.87,-0.486,-0.073
74259,1755587085778,61.13,-98.53,-33.93,776,772,768,749,878,50.0,-0.873,-0.488,-0.077
74289,1755587085808,61.17,-98.6,-33.93,769,774,768,748,867,33.333333333333336,-0.875,-0.489,-0.078
74319,1755587085838,61.19,-98.54,-33.88,762,771,784,748,886,33.333333333333336,-0.873,-0.488,-0.077
74339,1755587085858,61.21,-98.48,-33.86,771,769,771,750,894,50.0,-0.874,-0.489,-0.076
74359,1755587085878,61.2,-98.4,-33.82,763,768,771,749,881,50.0,-0.872,-0.488,-0.075
74389,1755587085908,61.19,-98.39,-33.83,775,778,778,747,889,33.333333333333336,-0.872,-0.487,-0.076
74419,1755587085938,61.21,-98.38,-33.83,781,771,768,745,887,33.333333333333336,-0.874,-0.487,-0.078
74449,1755587085968,61.2,-98.37,-33.82,775,773,773,752,882,33.333333333333336,-0.873,-0.487,-0.079
74469,1755587085988,61.18,-98.36,-33.81,771,768,769,752,876,50.0,-0.874,-0.485,-0.076
74499,1755587086018,61.19,-98.29,-33.78,771,765,775,750,885,33.333333333333336,-0.875,-0.485,-0.074
74519,1755587086038,61.19,-98.25,-33.76,778,767,771,752,884,50.0,-0.877,-0.486,-0.074
74540,1755587086058,61.18,-98.27,-33.76,769,779,768,750,894,47.61904761904762,-0.875,-0.488,-0.076
74569,1755587086088,61.2,-98.27,-33.74,769,768,769,747,873,34.48275862068966,-0.874,-0.489,-0.075
74599,1755587086118,61.2,-98.2,-33.71,770,786,785,744,891,33.333333333333336,-0.871,-0.489,-0.075
74629,1755587086148,61.21,-98.2,-33.72,771,776,776,752,878,33.333333333333336,-0.872,-0.485,-0.077
74650,1755587086168,61.18,-98.25,-33.74,767,772,783,752,887,47.61904761904762,-0.87,-0.481,-0.08
74679,1755587086199,61.12,-98.27,-33.78,774,772,775,751,870,34.48275862068966,-0.866,-0.482,-0.082
74700,1755587086219,61.14,-98.31,-33.81,774,772,763,746,895,47.61904761904762,-0.867,-0.486,-0.082
74730,1755587086249,61.07,-98.34,-33.82,765,768,777,752,866,33.333333333333336,-0.871,-0.487,-0.075
74750,1755587086269,61.03,-98.35,-33.82,766,771,770,746,878,50.0,-0.876,-0.487,-0.068
74780,1755587086298,61.1,-98.28,-33.75,772,771,774,745,880,33.333333333333336,-0.878,-0.488,-0.062
74810,1755587086329,61.16,-98.16,-33.66,768,774,766,748,882,33.333333333333336,-0.876,-0.489,-0.068
74830,1755587086349,61.19,-98.15,-33.61,765,769,770,755,880,50.0,-0.873,-0.488,-0.075
74860,1755587086379,61.16,-98.15,-33.58,772,783,778,748,874,33.333333333333336,-0.873,-0.484,-0.077
74880,1755587086399,61.1,-98.16,-33.59,766,772,773,751,887,50.0,-0.872,-0.479,-0.074
74910,1755587086429,61.12,-98.09,-33.6,759,772,776,744,886,33.333333333333336,-0.876,-0.478,-0.072
74930,1755587086449,61.17,-98.07,-33.59,772,772,770,754,886,50.0,-0.881,-0.479,-0.074
74960,1755587086479,61.18,-98.09,-33.57,772,770,772,751,878,33.333333333333336,-0.882,-0.48,-0.077
74990,1755587086509,61.23,-98.11,-33.53,770,765,768,747,877,33.333333333333336,-0.876,-0.483,-0.077
75020,1755587086538,61.29,-98.12,-33.47,773,765,771,745,883,33.333333333333336,-0.874,-0.486,-0.082
75050,1755587086568,61.3,-98.21,-33.45,772,766,785,749,876,33.333333333333336,-0.874,-0.483,-0.081
75080,1755587086598,61.27,-98.22,-33.43,774,765,766,749,898,33.333333333333336,-0.873,-0.48,-0.074
75109,1755587086628,61.34,-98.17,-33.4,766,771,768,755,884,34.48275862068966,-0.879,-0.479,-0.072
75129,1755587086648,61.35,-98.15,-33.39,770,768,773,749,885,50.0,-0.88,-0.476,-0.073
75150,1755587086668,61.3,-98.14,-33.38,766,773,772,753,882,47.61904761904762,-0.88,-0.475,-0.075
75179,1755587086698,61.31,-98.13,-33.36,764,773,772,750,887,34.48275862068966,-0.879,-0.476,-0.078
75200,1755587086718,61.31,-98.14,-33.36,777,774,774,750,872,47.61904761904762,-0.876,-0.475,-0.078
75229,1755587086748,61.31,-98.13,-33.38,774,771,774,752,875,34.48275862068966,-0.873,-0.474,-0.077
75249,1755587086768,61.33,-98.12,-33.4,771,770,776,754,881,50.0,-0.874,-0.475,-0.076
75279,1755587086798,61.27,-98.07,-33.43,772,777,780,751,881,33.333333333333336,-0.874,-0.479,-0.077
75309,1755587086828,61.31,-98.51,-33.41,774,771,771,748,882,33.333333333333336,-0.879,-0.484,-0.08
75339,1755587086858,61.32,-98.51,-33.36,767,778,769,746,880,33.333333333333336,-0.881,-0.485,-0.074
75360,1755587086878,61.38,-98.49,-33.32,768,768,775,746,875,47.61904761904762,-0.878,-0.484,-0.068
75380,1755587086898,61.49,-98.45,-33.27,771,768,772,750,885,50.0,-0.88,-0.486,-0.068
75400,1755587086918,61.58,-98.39,-33.19,774,771,773,747,887,50.0,-0.883,-0.486,-0.07
75429,1755587086948,61.61,-98.32,-33.06,758,772,775,751,874,34.48275862068966,-0.88,-0.482,-0.074
75459,1755587086978,61.58,-98.26,-33.03,780,770,771,750,876,33.333333333333336,-0.874,-0.475,-0.075
75489,1755587087008,61.56,-98.24,-33.05,774,778,768,753,885,33.333333333333336,-0.871,-0.471,-0.08
75519,1755587087038,61.54,-98.31,-33.09,770,764,772,752,885,33.333333333333336,-0.878,-0.473,-0.081
75549,1755587087068,61.48,-98.37,-33.07,761,766,768,750,878,33.333333333333336,-0.881,-0.475,-0.081
75579,1755587087098,61.58,-98.41,-33.02,770,770,775,749,882,33.333333333333336,-0.883,-0.476,-0.075
75599,1755587087118,61.6,-98.38,-32.99,765,764,771,749,892,50.0,-0.877,-0.474,-0.072
75619,1755587087138,61.6,-98.35,-32.98,769,768,767,748,888,50.0,-0.874,-0.471,-0.072
75649,1755587087168,61.58,-98.31,-32.98,772,772,772,744,877,33.333333333333336,-0.875,-0.471,-0.074
75679,1755587087197,61.52,-98.28,-32.97,768,777,772,756,878,33.333333333333336,-0.877,-0.472,-0.079
75709,1755587087227,61.59,-98.34,-32.96,768,777,770,752,876,33.333333333333336,-0.88,-0.472,-0.081
75738,1755587087257,61.54,-98.38,-32.97,772,770,774,754,881,34.48275862068966,-0.879,-0.473,-0.075
75768,1755587087287,61.51,-98.28,-32.93,766,775,765,756,878,33.333333333333336,-0.878,-0.474,-0.072
75788,1755587087308,61.53,-98.27,-32.92,769,772,773,741,870,50.0,-0.878,-0.475,-0.074
75809,1755587087327,61.56,-98.29,-32.92,766,776,772,753,892,47.61904761904762,-0.881,-0.476,-0.075
75839,1755587087357,61.54,-98.26,-32.88,767,775,766,749,874,33.333333333333336,-0.881,-0.475,-0.074
75869,1755587087387,61.57,-98.21,-32.84,767,771,774,751,886,33.333333333333336,-0.879,-0.473,-0.075
75899,1755587087417,61.58,-98.2,-32.84,767,770,779,754,885,33.333333333333336,-0.877,-0.47,-0.076
75928,1755587087447,61.55,-98.23,-32.85,772,780,774,755,880,34.48275862068966,-0.879,-0.469,-0.077
75958,1755587087477,61.52,-98.23,-32.86,765,764,772,753,886,33.333333333333336,-0.881,-0.469,-0.078
75979,1755587087497,61.52,-98.25,-32.87,775,769,772,751,882,47.61904761904762,-0.881,-0.47,-0.076
76008,1755587087527,61.5,-98.24,-32.86,765,767,767,744,888,34.48275862068966,-0.881,-0.47,-0.077
76038,1755587087557,61.48,-98.31,-32.9,772,778,776,750,882,33.333333333333336,-0.879,-0.47,-0.076
76068,1755587087587,61.47,-98.27,-32.89,770,778,774,751,871,33.333333333333336,-0.879,-0.47,-0.074
76098,1755587087617,61.37,-98.21,-32.88,772,773,775,743,872,33.333333333333336,-0.878,-0.473,-0.08
76118,1755587087637,61.33,-98.25,-32.89,769,769,780,754,877,50.0,-0.876,-0.475,-0.083
76148,1755587087667,61.38,-98.3,-32.88,771,775,774,756,884,33.333333333333336,-0.873,-0.473,-0.083
76168,1755587087687,61.4,-98.3,-32.9,774,780,762,756,881,50.0,-0.873,-0.469,-0.081
76198,1755587087717,61.23,-98.31,-32.98,766,776,776,747,874,33.333333333333336,-0.878,-0.467,-0.081
76228,1755587087747,60.99,-98.35,-33.0,770,773,762,753,880,33.333333333333336,-0.883,-0.47,-0.081
76258,1755587087777,60.98,-98.55,-33.03,770,776,775,753,880,33.333333333333336,-0.886,-0.473,-0.075
76288,1755587087806,60.99,-98.61,-33.01,774,775,769,753,878,33.333333333333336,-0.886,-0.472,-0.063
76318,1755587087836,60.93,-98.53,-33.01,770,765,767,752,881,33.333333333333336,-0.881,-0.472,-0.055
76347,1755587087866,60.98,-98.44,-33.02,765,769,775,753,877,34.48275862068966,-0.879,-0.475,-0.058
76377,1755587087896,61.09,-98.45,-32.98,768,767,766,748,876,33.333333333333336,-0.881,-0.482,-0.074
76407,1755587087926,61.18,-98.64,-32.96,771,774,769,756,875,33.333333333333336,-0.88,-0.48,-0.075
76437,1755587087956,61.23,-98.79,-32.92,772,773,779,749,873,33.333333333333336,-0.88,-0.476,-0.068
76467,1755587087986,61.25,-98.7,-32.89,764,763,778,752,884,33.333333333333336,-0.88,-0.471,-0.055
76487,1755587088006,61.22,-98.59,-32.89,770,770,770,754,892,50.0,-0.878,-0.469,-0.051
76517,1755587088036,61.13,-98.43,-32.87,767,775,774,754,888,33.333333333333336,-0.881,-0.468,-0.05
76537,1755587088056,61.16,-98.33,-32.85,772,772,771,755,879,50.0,-0.884,-0.469,-0.056
76567,1755587088086,61.26,-98.26,-32.82,780,771,773,749,889,33.333333333333336,-0.887,-0.469,-0.062
76587,1755587088106,61.27,-98.21,-32.8,773,767,775,749,877,50.0,-0.884,-0.468,-0.065
76617,1755587088136,61.29,-98.12,-32.81,770,774,782,752,880,33.333333333333336,-0.877,-0.466,-0.069
76647,1755587088166,61.4,-98.13,-32.87,770,774,769,754,879,33.333333333333336,-0.878,-0.469,-0.07
76667,1755587088186,61.46,-98.11,-32.89,771,766,772,748,878,50.0,-0.882,-0.474,-0.07
76697,1755587088216,61.51,-98.07,-32.87,768,773,770,753,862,33.333333333333336,-0.879,-0.474,-0.07
76717,1755587088236,61.61,-98.08,-32.88,769,774,773,750,867,50.0,-0.878,-0.473,-0.069
76747,1755587088266,61.61,-98.04,-32.86,771,773,771,747,881,33.333333333333336,-0.88,-0.474,-0.07
76777,1755587088296,61.53,-98.02,-32.85,767,767,766,756,871,33.333333333333336,-0.878,-0.472,-0.072
76807,1755587088326,61.59,-98.03,-32.87,776,763,769,750,883,33.333333333333336,-0.88,-0.471,-0.075
76837,1755587088355,61.65,-98.1,-32.89,765,778,776,756,879,33.333333333333336,-0.884,-0.471,-0.078
76867,1755587088385,61.7,-98.17,-32.91,772,781,762,752,870,33.333333333333336,-0.884,-0.47,-0.076
76897,1755587088416,61.67,-98.21,-32.94,773,778,769,757,878,33.333333333333336,-0.879,-0.469,-0.077
76917,1755587088435,61.69,-98.28,-32.97,763,766,767,752,876,50.0,-0.877,-0.47,-0.078
76947,1755587088465,61.72,-98.35,-33.03,768,772,770,749,887,33.333333333333336,-0.875,-0.468,-0.071
76976,1755587088495,61.65,-98.28,-33.1,765,769,775,744,883,34.48275862068966,-0.875,-0.47,-0.068
77006,1755587088525,61.61,-98.19,-33.12,768,771,780,751,870,33.333333333333336,-0.88,-0.475,-0.072
77026,1755587088545,61.63,-98.17,-33.13,770,776,777,746,875,50.0,-0.883,-0.478,-0.076
77046,1755587088565,61.66,-98.18,-33.13,769,769,774,756,876,50.0,-0.885,-0.478,-0.078
77076,1755587088595,61.72,-98.11,-33.12,771,776,770,747,875,33.333333333333336,-0.884,-0.478,-0.076
77106,1755587088625,61.76,-98.07,-33.11,769,776,771,751,892,33.333333333333336,-0.882,-0.48,-0.079
77136,1755587088655,61.78,-98.13,-33.11,764,772,774,749,886,33.333333333333336,-0.881,-0.479,-0.08
77166,1755587088685,61.74,-98.21,-33.13,772,774,781,748,879,33.333333333333336,-0.88,-0.478,-0.079
77196,1755587088715,61.76,-98.2,-33.12,773,765,774,751,881,33.333333333333336,-0.883,-0.478,-0.076
77226,1755587088745,61.75,-98.21,-33.12,766,777,778,752,876,33.333333333333336,-0.883,-0.478,-0.075
77256,1755587088775,61.78,-98.24,-33.13,773,775,772,751,877,33.333333333333336,-0.881,-0.477,-0.074
77276,1755587088795,61.81,-98.23,-33.13,768,776,773,754,882,50.0,-0.881,-0.477,-0.074
77306,1755587088824,61.81,-98.21,-33.13,767,780,774,751,893,33.333333333333336,-0.88,-0.476,-0.077
77336,1755587088855,61.79,-98.26,-33.16,768,774,779,750,876,33.333333333333336,-0.879,-0.477,-0.08
77356,1755587088875,61.78,-98.3,-33.17,768,769,774,751,885,50.0,-0.876,-0.478,-0.081
77376,1755587088895,61.8,-98.33,-33.17,771,778,775,751,872,50.0,-0.876,-0.479,-0.081
77406,1755587088925,61.84,-98.33,-33.16,765,776,772,755,871,33.333333333333336,-0.876,-0.479,-0.078
77436,1755587088955,61.85,-98.34,-33.15,772,774,768,753,875,33.333333333333336,-0.875,-0.477,-0.078
77466,1755587088984,61.87,-98.38,-33.17,777,781,772,747,874,33.333333333333336,-0.875,-0.478,-0.081
77496,1755587089014,61.94,-98.43,-33.18,766,771,772,749,883,33.333333333333336,-0.877,-0.48,-0.085
77516,1755587089034,61.93,-98.46,-33.18,773,775,773,751,884,50.0,-0.873,-0.479,-0.087
77536,1755587089054,61.89,-98.5,-33.19,772,772,765,748,877,50.0,-0.873,-0.477,-0.086
77566,1755587089084,61.91,-98.57,-33.24,767,766,773,745,873,33.333333333333336,-0.872,-0.477,-0.085
77596,1755587089115,61.93,-98.66,-33.28,764,771,770,749,881,33.333333333333336,-0.877,-0.481,-0.086
77616,1755587089134,61.94,-98.71,-33.26,767,771,761,751,877,50.0,-0.881,-0.482,-0.084
77646,1755587089164,61.94,-98.71,-33.24,768,769,767,745,875,33.333333333333336,-0.877,-0.48,-0.083
77676,1755587089195,61.97,-98.71,-33.25,772,765,773,750,871,33.333333333333336,-0.877,-0.48,-0.081
77696,1755587089215,61.93,-98.68,-33.25,773,773,772,756,880,50.0,-0.879,-0.479,-0.08
77726,1755587089245,61.85,-98.62,-33.23,769,771,775,757,868,33.333333333333336,-0.879,-0.479,-0.082
77746,1755587089265,61.83,-98.61,-33.22,771,774,774,756,880,50.0,-0.877,-0.48,-0.085
77766,1755587089285,61.84,-98.63,-33.22,770,778,773,750,878,50.0,-0.878,-0.48,-0.085
77796,1755587089315,61.84,-98.63,-33.21,762,777,779,754,875,33.333333333333336,-0.875,-0.479,-0.084
77826,1755587089345,61.83,-98.7,-33.22,784,779,771,752,885,33.333333333333336,-0.875,-0.481,-0.084
77856,1755587089374,61.73,-98.9,-33.23,772,774,769,751,884,33.333333333333336,-0.875,-0.481,-0.089
77886,1755587089404,61.7,-99.27,-33.43,765,770,763,746,881,33.333333333333336,-0.872,-0.479,-0.09
77915,1755587089434,61.61,-99.45,-33.51,776,771,771,750,883,34.48275862068966,-0.869,-0.477,-0.084
77945,1755587089464,61.53,-99.41,-33.49,770,774,774,753,881,33.333333333333336,-0.871,-0.478,-0.083
77975,1755587089494,61.58,-99.29,-33.47,772,766,778,750,878,33.333333333333336,-0.876,-0.483,-0.082
78005,1755587089524,61.66,-99.17,-33.42,768,768,780,754,882,33.333333333333336,-0.875,-0.486,-0.082
78035,1755587089554,61.75,-99.12,-33.4,771,778,775,753,886,33.333333333333336,-0.87,-0.485,-0.084
78065,1755587089584,61.86,-99.01,-33.39,770,775,775,754,889,33.333333333333336,-0.867,-0.483,-0.086
78085,1755587089604,61.81,-99.02,-33.41,765,764,767,751,878,50.0,-0.867,-0.48,-0.091
78105,1755587089624,61.8,-99.1,-33.46,771,775,775,752,872,50.0,-0.869,-0.48,-0.095
78135,1755587089654,61.81,-99.11,-33.49,770,776,774,744,887,33.333333333333336,-0.874,-0.478,-0.093
78165,1755587089684,61.76,-99.08,-33.52,772,769,777,760,881,33.333333333333336,-0.874,-0.478,-0.09
78185,1755587089704,61.72,-99.09,-33.55,766,778,772,753,879,50.0,-0.874,-0.48,-0.088
78215,1755587089734,61.69,-99.13,-33.59,765,766,774,742,879,33.333333333333336,-0.871,-0.484,-0.092
78245,1755587089763,61.71,-99.15,-33.58,766,770,773,751,872,33.333333333333336,-0.873,-0.486,-0.09
78275,1755587089793,61.65,-99.16,-33.58,765,767,779,746,876,33.333333333333336,-0.871,-0.484,-0.086
78305,1755587089823,61.65,-99.15,-33.61,778,786,766,752,881,33.333333333333336,-0.871,-0.485,-0.084
78335,1755587089855,61.61,-99.1,-33.59,771,767,767,751,881,33.333333333333336,-0.872,-0.486,-0.089
78356,1755587089874,61.59,-99.11,-33.58,767,767,769,749,873,47.61904761904762,-0.873,-0.487,-0.092
78386,1755587089904,61.55,-99.21,-33.6,773,774,780,753,886,33.333333333333336,-0.87,-0.487,-0.094
78416,1755587089934,61.54,-99.34,-33.62,773,769,783,753,873,33.333333333333336,-0.868,-0.486,-0.093
78445,1755587089964,61.53,-99.33,-33.63,772,772,775,752,880,34.48275862068966,-0.869,-0.484,-0.086
78475,1755587089994,61.51,-99.25,-33.63,771,776,772,747,880,33.333333333333336,-0.875,-0.486,-0.085
78505,1755587090024,61.5,-99.28,-33.63,773,776,769,752,866,33.333333333333336,-0.875,-0.489,-0.088
78535,1755587090054,61.52,-99.35,-33.63,767,775,767,756,888,33.333333333333336,-0.871,-0.487,-0.09
78565,1755587090084,61.53,-99.39,-33.64,770,773,771,755,893,33.333333333333336,-0.871,-0.484,-0.088
78595,1755587090114,61.51,-99.37,-33.66,770,769,769,747,881,33.333333333333336,-0.873,-0.485,-0.089
78625,1755587090144,61.5,-99.41,-33.65,769,789,772,751,874,33.333333333333336,-0.876,-0.489,-0.09
78655,1755587090174,61.48,-99.43,-33.63,779,772,768,753,883,33.333333333333336,-0.873,-0.49,-0.089
78675,1755587090193,61.48,-99.46,-33.62,766,768,778,751,889,50.0,-0.871,-0.489,-0.088
78705,1755587090224,61.54,-99.45,-33.62,768,771,776,745,885,33.333333333333336,-0.872,-0.487,-0.087
78725,1755587090243,61.51,-99.39,-33.6,769,771,773,753,879,50.0,-0.872,-0.486,-0.085
78755,1755587090273,61.39,-99.4,-33.6,770,772,780,757,882,33.333333333333336,-0.871,-0.486,-0.091
78775,1755587090293,61.36,-99.51,-33.62,773,772,772,753,888,50.0,-0.87,-0.487,-0.096
78804,1755587090324,61.36,-99.62,-33.64,773,773,769,753,877,34.48275862068966,-0.868,-0.486,-0.09
78825,1755587090344,61.35,-99.56,-33.66,764,765,766,746,882,47.61904761904762,-0.868,-0.484,-0.083
78855,1755587090374,61.32,-99.39,-33.65,772,771,771,754,883,33.333333333333336,-0.872,-0.487,-0.087
78885,1755587090404,61.35,-99.46,-33.66,771,769,779,756,885,33.333333333333336,-0.873,-0.489,-0.093
78905,1755587090424,61.4,-99.55,-33.67,764,781,772,752,885,50.0,-0.874,-0.487,-0.092
78935,1755587090454,61.4,-99.46,-33.65,772,767,777,757,879,33.333333333333336,-0.872,-0.483,-0.083
78965,1755587090484,61.36,-99.29,-33.66,772,771,767,750,878,33.333333333333336,-0.87,-0.485,-0.085
78995,1755587090514,61.35,-99.33,-33.68,771,769,773,750,873,33.333333333333336,-0.87,-0.486,-0.094
79025,1755587090544,61.37,-99.49,-33.73,767,773,770,756,879,33.333333333333336,-0.872,-0.483,-0.092
79055,1755587090574,61.32,-99.46,-33.77,771,767,778,753,888,33.333333333333336,-0.871,-0.482,-0.084
79075,1755587090594,61.26,-99.39,-33.79,770,774,765,753,883,50.0,-0.869,-0.484,-0.081
79105,1755587090624,61.2,-99.36,-33.81,769,768,775,750,880,33.333333333333336,-0.87,-0.487,-0.083
79135,1755587090654,61.11,-99.37,-33.84,765,766,772,752,901,33.333333333333336,-0.87,-0.488,-0.086
79165,1755587090684,61.07,-99.33,-33.84,771,764,769,754,880,33.333333333333336,-0.871,-0.489,-0.085
79185,1755587090704,61.02,-99.27,-33.83,761,767,778,755,882,50.0,-0.873,-0.491,-0.085
79215,1755587090734,60.95,-99.23,-33.82,769,766,772,752,881,33.333333333333336,-0.871,-0.493,-0.085
79245,1755587090764,60.88,-99.24,-33.82,773,767,772,756,878,33.333333333333336,-0.868,-0.493,-0.085
79275,1755587090794,60.8,-99.21,-33.83,774,777,762,751,878,33.333333333333336,-0.866,-0.494,-0.084
79305,1755587090824,60.53,-98.95,-33.79,768,770,775,755,879,33.333333333333336,-0.866,-0.491,-0.079
79325,1755587090844,60.37,-98.75,-33.79,778,766,771,751,910,50.0,-0.863,-0.49,-0.076
79345,1755587090864,60.35,-98.59,-33.79,769,774,775,753,883,50.0,-0.87,-0.488,-0.073
79375,1755587090894,60.4,-98.57,-33.8,771,766,776,750,890,33.333333333333336,-0.876,-0.494,-0.076
79395,1755587090914,60.41,-98.55,-33.76,769,779,780,756,875,50.0,-0.875,-0.496,-0.078
79425,1755587090944,60.53,-98.46,-33.72,772,777,775,755,891,33.333333333333336,-0.874,-0.493,-0.073
79455,1755587090974,60.55,-98.46,-33.7,781,775,774,752,874,33.333333333333336,-0.872,-0.492,-0.072
79485,1755587091004,60.56,-98.58,-33.71,773,776,768,746,881,33.333333333333336,-0.869,-0.49,-0.076
79515,1755587091034,60.6,-98.73,-33.75,771,772,776,748,885,33.333333333333336,-0.872,-0.489,-0.072
79545,1755587091063,60.53,-98.71,-33.74,766,773,772,754,879,33.333333333333336,-0.872,-0.489,-0.071
79575,1755587091093,60.44,-98.75,-33.75,771,773,772,751,887,33.333333333333336,-0.874,-0.492,-0.077
79604,1755587091123,60.44,-98.87,-33.74,769,769,774,752,885,34.48275862068966,-0.873,-0.495,-0.079
79624,1755587091143,60.46,-98.89,-33.7,772,768,778,750,903,50.0,-0.873,-0.496,-0.075
79654,1755587091173,60.44,-98.86,-33.66,772,778,768,750,878,33.333333333333336,-0.868,-0.494,-0.072
79684,1755587091203,60.41,-98.85,-33.67,769,765,781,753,878,33.333333333333336,-0.869,-0.493,-0.07
79714,1755587091233,60.4,-98.91,-33.67,771,775,775,753,880,33.333333333333336,-0.872,-0.491,-0.068
79744,1755587091263,60.44,-98.87,-33.64,770,769,769,758,886,33.333333333333336,-0.873,-0.487,-0.067
79774,1755587091293,60.43,-98.82,-33.64,770,775,771,749,879,33.333333333333336,-0.873,-0.485,-0.066
79794,1755587091313,60.42,-98.75,-33.63,767,764,771,748,876,50.0,-0.873,-0.486,-0.068
79824,1755587091343,60.37,-98.75,-33.64,772,774,767,754,873,33.333333333333336,-0.871,-0.489,-0.075
79845,1755587091363,60.35,-98.82,-33.66,769,781,777,751,877,47.61904761904762,-0.869,-0.492,-0.081
79875,1755587091394,60.36,-99.03,-33.68,762,774,771,754,889,33.333333333333336,-0.868,-0.489,-0.079
79895,1755587091413,60.38,-99.08,-33.72,768,765,770,747,885,50.0,-0.867,-0.488,-0.071
79925,1755587091443,60.38,-98.95,-33.72,772,774,774,745,885,33.333333333333336,-0.87,-0.491,-0.071
79945,1755587091463,60.38,-98.86,-33.71,776,776,773,748,879,50.0,-0.874,-0.493,-0.073
79975,1755587091493,60.44,-98.9,-33.7,767,773,777,749,879,33.333333333333336,-0.874,-0.491,-0.072
79995,1755587091513,60.46,-98.89,-33.69,761,779,773,748,881,50.0,-0.868,-0.488,-0.071
80024,1755587091543,60.46,-98.82,-33.7,768,766,775,754,882,34.48275862068966,-0.865,-0.486,-0.073
80054,1755587091573,60.44,-98.74,-33.72,773,776,760,747,874,33.333333333333336,-0.868,-0.486,-0.073
80084,1755587091603,60.48,-98.73,-33.75,767,773,768,747,878,33.333333333333336,-0.872,-0.489,-0.075
80114,1755587091633,60.54,-98.72,-33.74,760,778,769,747,882,33.333333333333336,-0.874,-0.492,-0.075
80134,1755587091653,60.59,-98.69,-33.73,770,777,760,759,888,50.0,-0.874,-0.492,-0.072
80164,1755587091683,60.6,-98.64,-33.72,768,776,774,754,884,33.333333333333336,-0.873,-0.492,-0.073
80184,1755587091703,60.59,-98.61,-33.72,771,774,773,747,875,50.0,-0.87,-0.491,-0.076
80214,1755587091733,60.61,-98.63,-33.74,767,766,771,751,883,33.333333333333336,-0.871,-0.49,-0.077
80244,1755587091763,60.6,-98.58,-33.74,765,788,774,749,886,33.333333333333336,-0.872,-0.49,-0.075
80274,1755587091792,60.58,-98.49,-33.73,769,770,770,753,870,33.333333333333336,-0.873,-0.49,-0.075
80304,1755587091822,60.58,-98.53,-33.74,771,768,771,756,881,33.333333333333336,-0.871,-0.493,-0.075
80334,1755587091852,60.58,-98.46,-33.72,771,760,777,753,884,33.333333333333336,-0.868,-0.491,-0.073
80363,1755587091882,60.55,-98.35,-33.73,771,771,773,751,882,34.48275862068966,-0.869,-0.489,-0.07
80383,1755587091902,60.5,-98.28,-33.74,768,772,781,753,873,50.0,-0.868,-0.489,-0.071
80413,1755587091932,60.45,-98.28,-33.75,771,777,777,751,875,33.333333333333336,-0.87,-0.491,-0.076
80434,1755587091952,60.48,-98.3,-33.75,770,776,778,752,874,47.61904761904762,-0.872,-0.494,-0.081
80464,1755587091982,60.52,-98.33,-33.73,771,783,775,753,869,33.333333333333336,-0.871,-0.492,-0.079
80493,1755587092012,60.53,-98.39,-33.73,770,777,774,748,881,34.48275862068966,-0.871,-0.491,-0.076
80523,1755587092042,60.48,-98.39,-33.72,769,769,777,752,867,33.333333333333336,-0.871,-0.492,-0.073
80553,1755587092072,60.47,-98.32,-33.7,769,774,772,752,885,33.333333333333336,-0.871,-0.492,-0.07
80583,1755587092102,60.52,-98.27,-33.67,767,775,770,749,879,33.333333333333336,-0.872,-0.494,-0.072
80613,1755587092132,60.51,-98.3,-33.65,772,778,779,751,885,33.333333333333336,-0.87,-0.491,-0.072
80633,1755587092152,60.52,-98.32,-33.65,767,775,769,750,870,50.0,-0.867,-0.489,-0.069
80653,1755587092172,60.53,-98.28,-33.64,771,772,779,749,879,50.0,-0.867,-0.488,-0.067
80673,1755587092192,60.52,-98.22,-33.63,763,773,774,741,875,50.0,-0.868,-0.488,-0.07
80694,1755587092212,60.47,-98.24,-33.62,769,773,773,751,878,47.61904761904762,-0.868,-0.488,-0.075
