timestamp_ms,recv_timestamp_ms,pitch,roll,yaw,flex1,flex2,flex3,flex4,flex5,sampling_hz,accel_x,accel_y,accel_z
70927,1755585360384,10.2,91.56,69.99,819,776,775,756,809,34.48275862068966,-0.236,0.97,0.088
70956,1755585360413,10.18,91.53,70.08,822,778,774,759,808,34.48275862068966,-0.233,0.967,0.086
70986,1755585360443,10.15,91.53,70.04,820,771,777,763,810,33.333333333333336,-0.233,0.972,0.084
71016,1755585360472,10.18,91.5,70.03,822,773,767,757,804,33.333333333333336,-0.237,0.97,0.089
71045,1755585360501,10.21,91.51,70.07,823,774,779,756,805,34.48275862068966,-0.24,0.969,0.09
71074,1755585360531,10.25,91.53,70.13,822,769,772,755,831,34.48275862068966,-0.239,0.971,0.088
71104,1755585360560,10.25,91.48,70.13,816,773,771,756,821,33.333333333333336,-0.235,0.969,0.088
71133,1755585360590,10.25,91.46,70.13,822,769,778,764,801,34.48275862068966,-0.233,0.972,0.087
71163,1755585360619,10.26,91.45,70.12,827,786,772,759,801,33.333333333333336,-0.239,0.972,0.085
71192,1755585360648,10.28,91.37,70.13,820,783,776,773,810,34.48275862068966,-0.242,0.967,0.085
71221,1755585360678,10.26,91.27,70.17,819,772,770,756,810,34.48275862068966,-0.241,0.969,0.089
71251,1755585360707,10.3,91.25,70.16,821,768,765,759,804,33.333333333333336,-0.241,0.97,0.092
71280,1755585360736,10.33,91.17,70.16,835,772,770,757,811,34.48275862068966,-0.24,0.969,0.09
71309,1755585360766,10.34,91.09,70.23,822,771,779,759,816,34.48275862068966,-0.238,0.969,0.094
71339,1755585360795,10.35,91.05,70.24,825,776,774,757,812,33.333333333333336,-0.237,0.972,0.097
71368,1755585360825,10.36,91.02,70.22,824,772,772,758,820,34.48275862068966,-0.237,0.971,0.095
71398,1755585360854,10.4,90.91,70.19,824,773,781,755,808,33.333333333333336,-0.237,0.967,0.097
71427,1755585360884,10.4,90.9,70.24,819,773,775,763,801,34.48275862068966,-0.236,0.969,0.101
71456,1755585360913,10.41,90.92,70.21,821,781,774,762,810,34.48275862068966,-0.236,0.97,0.097
71486,1755585360943,10.43,90.85,70.14,823,772,773,763,804,33.333333333333336,-0.239,0.966,0.09
71516,1755585360972,10.45,90.75,70.17,816,784,771,761,806,33.333333333333336,-0.244,0.966,0.095
71545,1755585361002,10.47,90.71,70.21,818,778,771,757,813,34.48275862068966,-0.243,0.967,0.102
71574,1755585361031,10.5,90.67,70.21,816,769,773,758,808,34.48275862068966,-0.244,0.966,0.102
71604,1755585361061,10.52,90.63,70.31,818,778,769,757,811,33.333333333333336,-0.246,0.967,0.103
71633,1755585361090,10.53,90.65,70.38,824,775,767,756,817,34.48275862068966,-0.243,0.968,0.108
71663,1755585361120,10.58,90.69,70.44,818,773,767,756,806,33.333333333333336,-0.245,0.968,0.103
71693,1755585361149,10.58,90.63,70.54,818,778,767,758,805,33.333333333333336,-0.243,0.965,0.102
71722,1755585361178,10.57,90.56,70.64,820,768,775,761,809,34.48275862068966,-0.239,0.97,0.109
71751,1755585361208,10.59,90.63,70.64,823,781,773,762,807,34.48275862068966,-0.24,0.972,0.11
71781,1755585361237,10.59,90.66,70.69,828,774,775,762,807,33.333333333333336,-0.237,0.967,0.104
71810,1755585361267,10.58,90.52,70.69,821,789,768,761,806,34.48275862068966,-0.234,0.967,0.104
71840,1755585361296,10.58,90.54,70.73,825,773,766,762,810,33.333333333333336,-0.235,0.971,0.11
71869,1755585361326,10.61,90.56,70.76,816,775,779,758,808,34.48275862068966,-0.237,0.97,0.111
71899,1755585361355,10.63,90.56,70.78,819,775,775,759,806,33.333333333333336,-0.235,0.968,0.11
71928,1755585361385,10.64,90.54,70.79,824,780,775,758,809,34.48275862068966,-0.232,0.969,0.107
71957,1755585361414,10.65,90.49,70.8,822,770,772,757,810,34.48275862068966,-0.233,0.97,0.107
71987,1755585361443,10.69,90.44,70.76,817,774,777,754,807,33.333333333333336,-0.236,0.969,0.105
72016,1755585361473,10.73,90.38,70.8,816,779,777,756,807,34.48275862068966,-0.241,0.965,0.105
72045,1755585361502,10.76,90.35,70.86,824,771,769,764,817,34.48275862068966,-0.245,0.968,0.107
72075,1755585361532,10.8,90.38,70.92,822,766,773,756,807,33.333333333333336,-0.243,0.969,0.11
72105,1755585361561,10.82,90.33,70.97,825,775,771,764,803,33.333333333333336,-0.237,0.968,0.11
72134,1755585361591,10.82,90.3,70.99,821,779,776,762,799,34.48275862068966,-0.233,0.967,0.114
72163,1755585361620,10.83,90.35,71.0,823,780,768,760,811,34.48275862068966,-0.232,0.973,0.113
72193,1755585361649,10.83,90.33,71.02,821,773,766,762,809,33.333333333333336,-0.234,0.969,0.107
72222,1755585361679,10.8,90.26,71.03,832,777,775,758,814,34.48275862068966,-0.234,0.965,0.107
72252,1755585361709,10.81,90.23,71.0,823,770,774,759,806,33.333333333333336,-0.239,0.966,0.113
72281,1755585361738,10.84,90.24,71.09,817,770,780,759,806,34.48275862068966,-0.241,0.966,0.113
72311,1755585361768,10.85,90.23,71.12,819,775,766,757,807,33.333333333333336,-0.237,0.969,0.113
72341,1755585361797,10.86,90.22,71.13,821,775,770,755,846,33.333333333333336,-0.235,0.967,0.117
72370,1755585361826,10.88,90.26,71.16,819,778,770,757,809,34.48275862068966,-0.236,0.969,0.116
72399,1755585361856,10.9,90.28,71.19,828,773,771,757,806,34.48275862068966,-0.236,0.969,0.113
72429,1755585361885,10.9,90.22,71.2,821,777,775,757,812,33.333333333333336,-0.237,0.965,0.109
72458,1755585361915,10.91,90.15,71.3,823,773,768,762,806,34.48275862068966,-0.242,0.965,0.111
72488,1755585361944,10.92,90.19,71.39,821,774,777,760,806,33.333333333333336,-0.242,0.968,0.113
72517,1755585361974,10.95,90.21,71.42,822,761,773,755,810,34.48275862068966,-0.239,0.966,0.111
72546,1755585362003,10.98,90.1,71.45,817,771,776,756,809,34.48275862068966,-0.237,0.967,0.11
72576,1755585362032,11.0,90.01,71.5,816,775,771,753,807,33.333333333333336,-0.234,0.967,0.116
72605,1755585362062,11.02,90.04,71.53,820,775,783,761,809,34.48275862068966,-0.233,0.97,0.118
72635,1755585362091,11.04,90.11,71.56,823,770,780,761,809,33.333333333333336,-0.235,0.971,0.115
72664,1755585362121,11.03,90.11,71.57,825,779,771,762,810,34.48275862068966,-0.234,0.967,0.11
72694,1755585362150,11.0,90.03,71.59,820,778,773,761,807,33.333333333333336,-0.236,0.963,0.11
72723,1755585362180,11.0,89.99,71.64,826,770,770,759,813,34.48275862068966,-0.239,0.97,0.114
72752,1755585362209,11.02,90.01,71.69,819,777,764,762,811,34.48275862068966,-0.239,0.97,0.116
72782,1755585362239,11.03,90.0,71.78,825,770,770,754,813,33.333333333333336,-0.234,0.969,0.113
72811,1755585362268,10.98,89.94,71.87,819,783,769,755,810,34.48275862068966,-0.234,0.967,0.115
72841,1755585362298,11.01,89.97,71.93,817,779,776,758,810,33.333333333333336,-0.24,0.971,0.115
72871,1755585362328,11.03,90.02,71.97,817,779,777,756,810,33.333333333333336,-0.236,0.969,0.114
72900,1755585362357,11.04,89.96,71.97,822,773,771,764,805,34.48275862068966,-0.234,0.968,0.111
72930,1755585362386,11.05,89.92,72.03,820,778,771,762,807,33.333333333333336,-0.232,0.969,0.116
72959,1755585362415,11.04,89.96,72.03,820,778,775,757,812,34.48275862068966,-0.229,0.973,0.12
72988,1755585362445,11.06,90.01,72.01,823,772,769,753,811,34.48275862068966,-0.23,0.971,0.115
73018,1755585362474,11.05,89.92,72.03,821,773,769,758,802,33.333333333333336,-0.233,0.967,0.112
73047,1755585362504,11.03,89.89,72.1,818,770,772,761,807,34.48275862068966,-0.235,0.969,0.116
73077,1755585362534,11.02,89.93,72.14,823,775,776,758,807,33.333333333333336,-0.233,0.97,0.118
73097,1755585362553,11.04,89.91,72.14,822,773,778,761,805,50.0,-0.23,0.972,0.116
73126,1755585362583,11.0,89.89,72.14,819,776,775,761,808,34.48275862068966,-0.226,0.968,0.116
73156,1755585362613,10.94,89.83,72.1,817,784,769,763,809,33.333333333333336,-0.228,0.97,0.115
73186,1755585362643,10.94,89.84,72.1,825,773,779,767,810,33.333333333333336,-0.234,0.969,0.116
73215,1755585362672,10.91,89.79,72.13,821,774,770,757,811,34.48275862068966,-0.232,0.966,0.119
73245,1755585362702,10.92,89.74,72.17,818,772,765,755,808,33.333333333333336,-0.231,0.969,0.121
73274,1755585362731,10.93,89.75,72.18,822,766,776,757,800,34.48275862068966,-0.23,0.97,0.123
73304,1755585362760,10.94,89.69,72.18,823,771,773,761,813,33.333333333333336,-0.23,0.969,0.12
73333,1755585362789,10.96,89.67,72.18,822,768,770,760,834,34.48275862068966,-0.232,0.967,0.119
73362,1755585362819,10.99,89.59,72.24,823,775,776,762,816,34.48275862068966,-0.233,0.967,0.115
73392,1755585362848,10.97,89.48,72.21,820,771,771,752,806,33.333333333333336,-0.23,0.968,0.115
73421,1755585362878,10.97,89.47,72.11,827,777,776,759,818,34.48275862068966,-0.231,0.969,0.122
73450,1755585362907,11.01,89.5,72.17,821,773,779,755,808,34.48275862068966,-0.237,0.967,0.127
73480,1755585362936,11.04,89.54,72.23,810,777,773,762,806,33.333333333333336,-0.24,0.967,0.125
73509,1755585362966,11.07,89.54,72.25,824,775,770,761,801,34.48275862068966,-0.239,0.964,0.122
73538,1755585362996,11.09,89.53,72.27,816,784,775,759,805,34.48275862068966,-0.239,0.967,0.12
73558,1755585363015,11.12,89.46,72.29,816,774,768,763,808,50.0,-0.239,0.966,0.123
73588,1755585363045,11.14,89.53,72.33,814,776,772,760,810,33.333333333333336,-0.239,0.97,0.122
73618,1755585363074,11.14,89.55,72.37,819,779,776,758,802,33.333333333333336,-0.236,0.967,0.122
73647,1755585363104,11.13,89.58,72.4,822,773,774,760,805,34.48275862068966,-0.238,0.968,0.123
73676,1755585363133,11.18,89.62,72.44,818,774,777,758,803,34.48275862068966,-0.241,0.968,0.126
73706,1755585363163,11.2,89.61,72.55,820,779,775,763,809,33.333333333333336,-0.239,0.967,0.121
73736,1755585363192,11.19,89.6,72.6,837,766,769,760,817,33.333333333333336,-0.236,0.967,0.12
73765,1755585363222,11.19,89.65,72.62,822,779,774,753,807,34.48275862068966,-0.235,0.968,0.117
73794,1755585363251,11.18,89.63,72.62,823,766,769,764,811,34.48275862068966,-0.237,0.964,0.116
73824,1755585363280,11.19,89.55,72.7,819,767,773,756,800,33.333333333333336,-0.241,0.965,0.12
73853,1755585363310,11.18,89.59,72.79,824,774,773,763,808,34.48275862068966,-0.237,0.969,0.126
73882,1755585363339,11.18,89.64,72.79,821,774,770,759,804,34.48275862068966,-0.232,0.971,0.123
73912,1755585363368,11.19,89.61,72.8,820,769,769,754,808,33.333333333333336,-0.231,0.968,0.119
73941,1755585363398,11.14,89.58,72.85,823,783,777,759,824,34.48275862068966,-0.231,0.966,0.121
73961,1755585363418,11.15,89.53,72.85,819,779,772,758,811,50.0,-0.234,0.969,0.122
73991,1755585363447,11.16,89.56,72.93,821,773,777,761,809,33.333333333333336,-0.234,0.969,0.12
74020,1755585363477,11.12,89.52,72.92,821,773,773,760,814,34.48275862068966,-0.23,0.968,0.12
74050,1755585363507,11.13,89.48,72.9,823,775,772,759,810,33.333333333333336,-0.232,0.967,0.121
74070,1755585363527,11.16,89.44,72.92,820,777,771,757,804,50.0,-0.235,0.968,0.121
74099,1755585363556,11.15,89.43,72.98,823,776,776,762,807,34.48275862068966,-0.238,0.967,0.123
74129,1755585363585,11.18,89.43,73.03,816,767,778,759,807,33.333333333333336,-0.237,0.968,0.124
74158,1755585363615,11.19,89.41,73.07,823,775,775,760,806,34.48275862068966,-0.232,0.969,0.124
74188,1755585363644,11.18,89.37,73.11,818,768,776,758,803,33.333333333333336,-0.23,0.968,0.121
74217,1755585363673,11.15,89.28,73.11,819,781,772,759,808,34.48275862068966,-0.231,0.968,0.118
74246,1755585363703,11.14,89.3,73.12,823,777,776,761,806,34.48275862068966,-0.234,0.97,0.123
74275,1755585363732,11.16,89.36,73.17,823,775,778,766,806,34.48275862068966,-0.236,0.968,0.125
74305,1755585363761,11.19,89.33,73.21,824,779,774,762,808,33.333333333333336,-0.233,0.965,0.122
74334,1755585363791,11.15,89.38,72.83,823,773,776,759,804,34.48275862068966,-0.227,0.97,0.12
74364,1755585363820,11.12,89.33,72.77,817,779,772,761,812,33.333333333333336,-0.229,0.966,0.121
74393,1755585363850,11.14,89.31,72.76,819,776,772,760,805,34.48275862068966,-0.236,0.969,0.123
74422,1755585363879,11.14,89.32,72.85,817,774,776,757,809,34.48275862068966,-0.238,0.966,0.123
74452,1755585363908,11.15,89.32,72.9,819,772,775,762,813,33.333333333333336,-0.237,0.967,0.124
74481,1755585363938,11.16,89.32,72.92,821,775,775,760,805,34.48275862068966,-0.235,0.967,0.124
74511,1755585363967,11.14,89.33,72.99,820,771,768,757,807,33.333333333333336,-0.231,0.967,0.121
74540,1755585363997,11.11,89.28,72.97,816,775,772,749,805,34.48275862068966,-0.228,0.969,0.121
74569,1755585364026,11.09,89.29,72.95,824,771,771,754,810,34.48275862068966,-0.231,0.97,0.127
74599,1755585364056,11.13,89.32,72.94,817,773,769,756,806,33.333333333333336,-0.237,0.968,0.127
74628,1755585364084,11.14,89.34,73.04,823,768,770,752,808,34.48275862068966,-0.237,0.964,0.123
74657,1755585364114,11.14,89.29,73.08,822,764,771,760,824,34.48275862068966,-0.235,0.967,0.12
74687,1755585364143,11.13,89.25,73.09,820,775,776,754,810,33.333333333333336,-0.231,0.969,0.122
74716,1755585364172,11.12,89.26,73.1,822,774,768,756,811,34.48275862068966,-0.23,0.969,0.126
74745,1755585364202,11.12,89.28,73.1,831,773,774,764,810,34.48275862068966,-0.231,0.969,0.125
74765,1755585364222,11.13,89.22,73.09,824,767,763,762,807,50.0,-0.231,0.967,0.122
74795,1755585364252,11.13,89.19,73.12,815,769,768,753,809,33.333333333333336,-0.235,0.967,0.122
74824,1755585364281,11.11,89.18,73.17,824,777,775,763,806,34.48275862068966,-0.236,0.965,0.125
74854,1755585364310,11.14,89.16,73.2,818,776,769,759,801,33.333333333333336,-0.234,0.965,0.125
74883,1755585364340,11.12,89.21,73.29,823,782,779,760,810,34.48275862068966,-0.231,0.968,0.126
74912,1755585364369,11.09,89.19,73.31,817,778,771,769,806,34.48275862068966,-0.228,0.967,0.126
74942,1755585364398,11.09,89.19,73.28,820,772,777,761,811,33.333333333333336,-0.232,0.966,0.126
74971,1755585364428,11.09,89.15,73.32,819,773,770,753,809,34.48275862068966,-0.236,0.964,0.125
75001,1755585364457,11.11,89.13,73.38,819,781,777,759,809,33.333333333333336,-0.238,0.966,0.125
75030,1755585364487,11.13,89.14,73.37,817,774,773,764,808,34.48275862068966,-0.235,0.966,0.128
75059,1755585364516,11.14,89.21,73.46,823,781,773,758,809,34.48275862068966,-0.234,0.967,0.128
75089,1755585364545,11.14,89.22,73.47,818,771,773,758,810,33.333333333333336,-0.232,0.967,0.127
75118,1755585364575,11.14,89.2,73.48,821,779,766,760,807,34.48275862068966,-0.232,0.966,0.125
75147,1755585364604,11.12,89.11,73.53,821,768,774,759,809,34.48275862068966,-0.232,0.965,0.124
75177,1755585364634,11.1,89.1,73.52,818,772,769,760,804,33.333333333333336,-0.232,0.967,0.129
75206,1755585364663,11.12,89.18,73.54,823,770,773,761,813,34.48275862068966,-0.235,0.97,0.131
75236,1755585364693,11.14,89.2,73.58,820,772,769,757,810,33.333333333333336,-0.234,0.966,0.127
75266,1755585364723,11.14,89.15,73.6,822,768,778,759,807,33.333333333333336,-0.233,0.966,0.124
75296,1755585364752,11.13,89.09,73.6,821,773,782,755,812,33.333333333333336,-0.229,0.966,0.125
75325,1755585364782,11.12,89.1,73.58,823,777,776,756,804,34.48275862068966,-0.232,0.969,0.128
75355,1755585364812,11.12,89.14,73.56,826,781,771,757,810,33.333333333333336,-0.233,0.969,0.129
75384,1755585364841,11.12,89.1,73.53,825,769,777,757,802,34.48275862068966,-0.236,0.966,0.128
75414,1755585364870,11.14,89.08,73.59,818,770,774,763,813,33.333333333333336,-0.238,0.968,0.129
75443,1755585364900,11.14,89.13,73.65,822,775,775,758,805,34.48275862068966,-0.236,0.969,0.127
75473,1755585364929,11.16,89.14,73.64,823,778,773,762,813,33.333333333333336,-0.236,0.967,0.124
75502,1755585364959,11.17,89.09,73.68,815,775,778,756,813,34.48275862068966,-0.237,0.964,0.126
75531,1755585364988,11.19,89.07,73.69,823,775,772,761,809,34.48275862068966,-0.238,0.967,0.128
75561,1755585365018,11.2,89.12,73.78,819,780,772,762,806,33.333333333333336,-0.238,0.968,0.126
75591,1755585365047,11.18,89.05,73.8,817,770,773,764,809,33.333333333333336,-0.236,0.965,0.127
75620,1755585365077,11.17,89.0,73.82,817,789,777,755,810,34.48275862068966,-0.234,0.964,0.128
75649,1755585365106,11.14,88.98,73.86,815,779,777,756,811,34.48275862068966,-0.232,0.968,0.127
75679,1755585365135,11.12,89.02,73.85,819,777,775,759,811,33.333333333333336,-0.235,0.967,0.132
75708,1755585365165,11.15,89.02,73.89,820,773,775,754,806,34.48275862068966,-0.24,0.965,0.133
75737,1755585365194,11.17,89.08,74.0,818,767,769,752,808,34.48275862068966,-0.241,0.966,0.126
75767,1755585365224,11.14,89.07,74.0,825,770,773,757,800,33.333333333333336,-0.235,0.965,0.129
75796,1755585365253,11.15,89.06,74.03,820,771,774,760,809,34.48275862068966,-0.234,0.968,0.13
75826,1755585365282,11.14,89.06,73.99,822,770,774,758,811,33.333333333333336,-0.235,0.967,0.13
75855,1755585365312,11.16,89.03,74.0,819,779,776,759,802,34.48275862068966,-0.238,0.965,0.129
75885,1755585365341,11.16,88.94,74.06,823,778,774,757,808,33.333333333333336,-0.239,0.961,0.134
75914,1755585365370,11.15,88.93,74.12,823,775,779,765,803,34.48275862068966,-0.238,0.966,0.137
75943,1755585365400,11.17,89.03,74.15,821,781,772,755,807,34.48275862068966,-0.237,0.967,0.134
75973,1755585365429,11.18,89.0,74.21,824,775,780,760,803,33.333333333333336,-0.234,0.963,0.129
76002,1755585365459,11.16,88.89,74.19,820,781,771,757,811,34.48275862068966,-0.233,0.964,0.131
76032,1755585365488,11.18,88.93,74.23,823,779,771,752,801,33.333333333333336,-0.235,0.969,0.132
76061,1755585365518,11.16,88.99,74.26,822,772,774,760,813,34.48275862068966,-0.236,0.967,0.135
76090,1755585365548,11.19,88.95,74.25,822,775,768,768,806,34.48275862068966,-0.237,0.965,0.134
76120,1755585365577,11.2,88.93,74.31,817,783,769,760,801,33.333333333333336,-0.238,0.964,0.132
76150,1755585365607,11.2,88.93,74.39,822,772,769,757,803,33.333333333333336,-0.235,0.967,0.13
76180,1755585365636,11.18,89.0,74.36,828,774,769,756,805,33.333333333333336,-0.234,0.968,0.134
76209,1755585365666,11.21,89.0,74.4,823,769,769,758,809,34.48275862068966,-0.235,0.967,0.132
76238,1755585365695,11.21,88.94,74.43,823,772,776,758,809,34.48275862068966,-0.233,0.965,0.129
76268,1755585365724,11.2,88.93,74.42,821,781,774,759,809,33.333333333333336,-0.232,0.966,0.131
76297,1755585365754,11.19,88.96,74.45,828,774,771,758,807,34.48275862068966,-0.235,0.967,0.13
76327,1755585365783,11.2,88.95,74.47,817,767,770,757,810,33.333333333333336,-0.237,0.965,0.13
76356,1755585365813,11.21,88.92,74.5,824,772,775,761,806,34.48275862068966,-0.237,0.965,0.13
76385,1755585365842,11.21,88.89,74.57,822,780,773,760,808,34.48275862068966,-0.235,0.965,0.132
76415,1755585365871,11.2,88.92,74.57,820,777,772,757,803,33.333333333333336,-0.233,0.967,0.131
76444,1755585365901,11.2,88.93,74.58,819,783,767,766,810,34.48275862068966,-0.234,0.967,0.131
76474,1755585365931,11.19,88.91,74.62,823,779,770,758,806,33.333333333333336,-0.234,0.966,0.131
76503,1755585365960,11.18,88.96,74.65,825,778,773,756,812,34.48275862068966,-0.234,0.968,0.132
76533,1755585365989,11.17,88.99,74.69,821,782,769,752,808,33.333333333333336,-0.234,0.965,0.132
76562,1755585366019,11.19,88.93,74.69,811,775,770,759,810,34.48275862068966,-0.238,0.964,0.129
76592,1755585366049,11.21,88.89,74.76,819,782,769,762,815,33.333333333333336,-0.237,0.965,0.13
76622,1755585366078,11.19,88.89,74.82,820,773,773,757,811,33.333333333333336,-0.233,0.966,0.132
76651,1755585366108,11.19,88.9,74.81,822,779,780,757,808,34.48275862068966,-0.23,0.967,0.131
76680,1755585366137,11.18,88.88,74.81,824,774,769,758,812,34.48275862068966,-0.231,0.967,0.132
76710,1755585366166,11.17,88.84,74.85,830,772,776,760,810,33.333333333333336,-0.234,0.966,0.133
76739,1755585366196,11.18,88.87,74.86,817,778,779,756,805,34.48275862068966,-0.238,0.967,0.134
76769,1755585366225,11.21,88.91,74.89,816,776,779,762,810,33.333333333333336,-0.238,0.965,0.132
76798,1755585366255,11.21,88.87,74.97,820,775,771,763,804,34.48275862068966,-0.237,0.964,0.13
76827,1755585366284,11.21,88.8,74.99,817,767,772,761,808,34.48275862068966,-0.234,0.966,0.131
76857,1755585366314,11.19,88.84,74.99,819,778,775,754,805,33.333333333333336,-0.232,0.968,0.134
76886,1755585366343,11.19,88.91,75.0,822,765,774,757,810,34.48275862068966,-0.236,0.966,0.135
76916,1755585366373,11.21,88.89,75.04,822,779,774,758,812,33.333333333333336,-0.237,0.963,0.133
76946,1755585366403,11.2,88.88,75.09,820,770,776,756,810,33.333333333333336,-0.235,0.967,0.13
76975,1755585366432,11.2,88.92,75.13,823,782,765,757,809,34.48275862068966,-0.236,0.968,0.132
77005,1755585366461,11.21,88.93,75.14,822,772,769,760,807,33.333333333333336,-0.234,0.966,0.132
77034,1755585366491,11.21,88.93,75.15,821,781,777,759,810,34.48275862068966,-0.234,0.966,0.131
77064,1755585366520,11.21,88.83,75.17,822,774,767,764,806,33.333333333333336,-0.235,0.965,0.131
77093,1755585366550,11.2,88.85,75.19,820,779,772,757,811,34.48275862068966,-0.236,0.967,0.136
77122,1755585366579,11.21,88.92,75.25,824,775,777,763,810,34.48275862068966,-0.235,0.968,0.134
77152,1755585366608,11.21,88.89,75.26,817,776,775,762,814,33.333333333333336,-0.234,0.965,0.131
77181,1755585366638,11.21,88.82,75.28,816,774,772,757,804,34.48275862068966,-0.234,0.963,0.133
77210,1755585366667,11.23,88.82,75.31,831,772,774,757,807,34.48275862068966,-0.236,0.967,0.134
77240,1755585366697,11.24,88.87,75.35,827,775,773,761,807,33.333333333333336,-0.235,0.967,0.133
77269,1755585366726,11.26,88.88,75.37,828,778,773,757,807,34.48275862068966,-0.234,0.966,0.132
77299,1755585366756,11.26,88.85,75.4,821,774,772,757,807,33.333333333333336,-0.233,0.965,0.134
77328,1755585366785,11.26,88.85,75.42,817,771,767,756,811,34.48275862068966,-0.233,0.968,0.133
77358,1755585366814,11.26,88.83,75.43,825,777,766,758,808,33.333333333333336,-0.233,0.964,0.133
77387,1755585366844,11.25,88.82,75.43,821,771,768,758,807,34.48275862068966,-0.235,0.968,0.132
77416,1755585366873,11.25,88.84,75.48,818,773,766,757,822,34.48275862068966,-0.235,0.966,0.132
77446,1755585366903,11.24,88.8,75.51,822,781,774,762,812,33.333333333333336,-0.234,0.964,0.134
77475,1755585366932,11.25,88.79,75.51,818,776,773,760,812,34.48275862068966,-0.235,0.965,0.136
77505,1755585366961,11.25,88.85,75.56,822,779,777,758,801,33.333333333333336,-0.234,0.965,0.133
77534,1755585366991,11.24,88.82,75.57,816,769,775,760,806,34.48275862068966,-0.235,0.963,0.131
77563,1755585367020,11.24,88.74,75.61,822,770,768,761,799,34.48275862068966,-0.237,0.965,0.134
77593,1755585367049,11.22,88.71,75.62,812,781,771,756,812,33.333333333333336,-0.234,0.966,0.136
77622,1755585367079,11.22,88.7,75.62,820,771,774,761,806,34.48275862068966,-0.234,0.962,0.138
77651,1755585367108,11.22,88.69,75.68,823,773,776,753,816,34.48275862068966,-0.237,0.963,0.137
77681,1755585367138,11.21,88.7,75.72,822,776,773,754,804,33.333333333333336,-0.234,0.965,0.138
77711,1755585367167,11.21,88.75,75.73,818,778,772,755,806,33.333333333333336,-0.233,0.966,0.137
77740,1755585367197,11.22,88.75,75.73,823,777,780,751,807,34.48275862068966,-0.234,0.965,0.134
77770,1755585367227,11.23,88.71,75.74,827,781,774,762,811,33.333333333333336,-0.236,0.962,0.134
77799,1755585367256,11.25,88.69,75.74,824,781,774,758,802,34.48275862068966,-0.238,0.961,0.133
77829,1755585367286,11.26,88.63,75.78,816,773,775,756,803,33.333333333333336,-0.238,0.963,0.133
77858,1755585367315,11.25,88.62,75.79,814,774,769,754,809,34.48275862068966,-0.233,0.966,0.137
77888,1755585367345,11.24,88.62,75.73,820,775,772,759,815,33.333333333333336,-0.23,0.966,0.137
77917,1755585367374,11.23,88.58,75.74,822,776,772,760,810,34.48275862068966,-0.233,0.964,0.137
77947,1755585367403,11.22,88.58,75.74,820,775,785,753,808,33.333333333333336,-0.236,0.963,0.136
77976,1755585367433,11.19,88.56,75.74,819,774,777,764,812,34.48275862068966,-0.236,0.961,0.132
78006,1755585367462,11.19,88.49,75.71,822,776,773,759,804,33.333333333333336,-0.241,0.962,0.136
78035,1755585367492,11.18,88.46,75.77,813,772,775,763,809,34.48275862068966,-0.244,0.964,0.145
78055,1755585367512,11.23,88.45,75.8,823,767,773,760,810,50.0,-0.246,0.969,0.147
78084,1755585367541,11.28,88.54,75.9,826,778,776,753,810,34.48275862068966,-0.242,0.968,0.146
78114,1755585367570,11.28,88.55,75.92,822,781,772,774,806,33.333333333333336,-0.236,0.966,0.141
78143,1755585367600,11.29,88.51,75.92,820,775,774,761,812,34.48275862068966,-0.237,0.963,0.137
78173,1755585367629,11.28,88.52,76.02,818,774,763,761,803,33.333333333333336,-0.238,0.967,0.14
78202,1755585367659,11.26,88.58,75.98,823,770,778,762,808,34.48275862068966,-0.237,0.968,0.138
78232,1755585367688,11.28,88.57,76.0,826,767,776,761,807,33.333333333333336,-0.238,0.961,0.137
78261,1755585367718,11.25,88.49,76.05,824,770,770,760,815,34.48275862068966,-0.241,0.962,0.136
78290,1755585367747,11.28,88.49,76.07,822,784,776,767,807,34.48275862068966,-0.243,0.965,0.139
78320,1755585367776,11.3,88.6,76.11,822,774,767,768,806,33.333333333333336,-0.242,0.969,0.14
78349,1755585367806,11.32,88.65,76.1,819,783,770,762,808,34.48275862068966,-0.238,0.963,0.139
78379,1755585367835,11.35,88.62,76.17,819,774,767,755,809,33.333333333333336,-0.242,0.963,0.134
78408,1755585367865,11.3,88.63,76.26,815,772,779,764,819,34.48275862068966,-0.237,0.967,0.139
78438,1755585367895,11.3,88.68,76.2,821,771,770,752,818,33.333333333333336,-0.235,0.969,0.142
78467,1755585367924,11.35,88.77,76.19,817,773,775,759,804,34.48275862068966,-0.238,0.965,0.139
78496,1755585367953,11.37,88.8,76.23,819,779,769,760,810,34.48275862068966,-0.239,0.963,0.132
78526,1755585367982,11.41,88.78,76.22,822,775,772,757,812,33.333333333333336,-0.238,0.964,0.127
78555,1755585368012,11.45,88.73,76.2,820,774,775,762,810,34.48275862068966,-0.239,0.963,0.126
78584,1755585368042,11.45,88.68,76.2,821,771,777,761,807,34.48275862068966,-0.239,0.963,0.129
78614,1755585368071,11.47,88.64,76.22,821,773,772,757,807,33.333333333333336,-0.243,0.961,0.133
78644,1755585368101,11.48,88.58,76.28,819,783,769,757,810,33.333333333333336,-0.244,0.964,0.138
78673,1755585368130,11.5,88.6,76.3,820,766,775,760,806,34.48275862068966,-0.242,0.965,0.143
78703,1755585368159,11.54,88.64,76.3,822,769,778,759,810,33.333333333333336,-0.241,0.964,0.14
78732,1755585368189,11.54,88.61,76.33,817,777,777,751,808,34.48275862068966,-0.241,0.965,0.134
78761,1755585368218,11.55,88.56,76.36,819,771,776,757,809,34.48275862068966,-0.24,0.962,0.133
78791,1755585368248,11.54,88.56,76.4,822,770,774,756,810,33.333333333333336,-0.238,0.967,0.132
78820,1755585368277,11.53,88.52,76.37,823,769,771,755,805,34.48275862068966,-0.239,0.965,0.132
78850,1755585368307,11.52,88.45,76.4,823,773,771,758,805,33.333333333333336,-0.242,0.962,0.134
78879,1755585368336,11.5,88.43,76.47,820,775,771,759,797,34.48275862068966,-0.24,0.966,0.137
78909,1755585368365,11.51,88.46,76.46,830,774,776,762,806,33.333333333333336,-0.241,0.965,0.138
78938,1755585368394,11.53,88.47,76.48,819,770,774,762,808,34.48275862068966,-0.246,0.964,0.135
78967,1755585368424,11.55,88.4,76.51,818,777,769,758,807,34.48275862068966,-0.249,0.963,0.135
78997,1755585368453,11.58,88.34,76.59,821,774,775,759,807,33.333333333333336,-0.246,0.963,0.135
79026,1755585368483,11.59,88.3,76.68,820,770,774,752,809,34.48275862068966,-0.241,0.963,0.139
79055,1755585368512,11.57,88.31,76.68,819,776,775,762,809,34.48275862068966,-0.239,0.966,0.142
79085,1755585368542,11.58,88.33,76.67,822,772,768,759,797,33.333333333333336,-0.242,0.965,0.14
79114,1755585368571,11.57,88.29,76.68,819,782,776,758,808,34.48275862068966,-0.244,0.962,0.143
79144,1755585368600,12.03,88.31,76.76,817,773,771,759,815,33.333333333333336,-0.246,0.963,0.141
79173,1755585368629,12.03,88.31,76.8,821,782,777,762,804,34.48275862068966,-0.244,0.964,0.139
79202,1755585368659,12.04,88.24,76.83,818,777,769,760,808,34.48275862068966,-0.241,0.964,0.138
79231,1755585368688,12.03,88.16,76.91,820,774,776,762,807,34.48275862068966,-0.24,0.964,0.14
79261,1755585368718,12.03,88.16,76.99,817,777,777,755,807,33.333333333333336,-0.239,0.965,0.14
79290,1755585368747,12.04,88.17,77.0,833,771,768,761,804,34.48275862068966,-0.241,0.965,0.142
79320,1755585368776,12.06,88.15,77.03,823,768,771,762,799,33.333333333333336,-0.241,0.965,0.141
79349,1755585368806,12.02,88.13,77.11,821,771,773,757,805,34.48275862068966,-0.237,0.967,0.144
79379,1755585368836,11.99,88.14,77.11,822,776,774,760,810,33.333333333333336,-0.231,0.965,0.145
79408,1755585368865,11.96,88.15,77.07,828,778,774,761,813,34.48275862068966,-0.234,0.965,0.144
79438,1755585368895,11.95,88.18,77.06,820,781,771,759,810,33.333333333333336,-0.24,0.967,0.143
79467,1755585368924,11.94,88.15,77.09,815,776,773,754,803,34.48275862068966,-0.242,0.961,0.142
79497,1755585368954,11.94,88.07,77.17,819,782,775,756,805,33.333333333333336,-0.245,0.96,0.139
79526,1755585368983,11.93,88.04,77.23,825,767,778,761,813,34.48275862068966,-0.244,0.965,0.138
79556,1755585369012,11.9,88.09,77.29,820,772,768,754,810,33.333333333333336,-0.241,0.962,0.142
79585,1755585369042,11.9,88.06,77.35,829,776,768,760,807,34.48275862068966,-0.242,0.963,0.14
79614,1755585369071,11.84,87.97,77.45,818,776,776,759,811,34.48275862068966,-0.238,0.963,0.145
79644,1755585369101,11.81,87.96,77.45,815,776,772,756,815,33.333333333333336,-0.236,0.966,0.148
79674,1755585369131,11.79,87.96,77.47,820,778,773,765,807,33.333333333333336,-0.236,0.966,0.146
