timestamp_ms,recv_timestamp_ms,pitch,roll,yaw,flex1,flex2,flex3,flex4,flex5,sampling_hz,accel_x,accel_y,accel_z
91520,1755586596419,37.06,161.1,-36.09,800,771,809,866,873,33.333333333333336,-0.611,0.003,-0.8
91549,1755586596449,37.0,161.49,-36.12,811,766,801,865,866,34.48275862068966,-0.609,0.003,-0.801
91579,1755586596479,37.0,161.83,-36.11,808,771,816,860,868,33.333333333333336,-0.613,0.001,-0.801
91609,1755586596508,37.03,162.19,-36.08,818,767,813,870,870,33.333333333333336,-0.612,0.0,-0.797
91638,1755586596538,37.07,162.61,-36.02,806,771,825,873,864,34.48275862068966,-0.615,0.002,-0.795
91668,1755586596567,37.09,162.99,-36.0,806,771,825,865,871,33.333333333333336,-0.613,0.002,-0.8
91697,1755586596597,37.09,163.25,-36.02,807,772,812,849,867,34.48275862068966,-0.609,0.003,-0.805
91727,1755586596626,37.06,163.59,-36.05,804,775,819,861,868,33.333333333333336,-0.609,0.004,-0.796
91756,1755586596656,37.06,163.97,-36.04,808,766,813,862,863,34.48275862068966,-0.612,0.003,-0.8
91786,1755586596685,37.08,164.26,-36.03,803,773,817,858,870,33.333333333333336,-0.612,0.002,-0.8
91816,1755586596715,37.1,164.58,-36.04,806,767,820,860,868,33.333333333333336,-0.61,0.004,-0.799
91845,1755586596744,37.04,164.87,-36.09,809,772,811,850,869,34.48275862068966,-0.609,0.006,-0.801
91875,1755586596774,37.01,165.14,-36.16,814,761,820,851,861,33.333333333333336,-0.611,0.004,-0.799
91904,1755586596804,37.04,165.44,-36.18,811,767,814,852,873,34.48275862068966,-0.615,0.003,-0.797
91934,1755586596833,37.04,165.72,-36.2,810,770,820,857,867,33.333333333333336,-0.612,0.005,-0.8
91963,1755586596863,37.02,165.98,-36.25,809,772,820,862,878,34.48275862068966,-0.61,0.003,-0.799
91993,1755586596892,37.04,166.27,-36.25,808,770,820,873,860,33.333333333333336,-0.613,0.001,-0.797
92023,1755586596922,37.05,159.35,-36.23,807,769,821,854,862,33.333333333333336,-0.616,-0.001,-0.798
92052,1755586596952,37.11,152.57,-36.18,818,775,817,865,866,34.48275862068966,-0.615,-0.001,-0.798
92082,1755586596981,37.14,153.13,-36.15,808,772,823,862,877,33.333333333333336,-0.612,0.001,-0.797
92112,1755586597011,37.13,153.69,-36.14,806,764,816,859,869,33.333333333333336,-0.612,0.003,-0.798
92141,1755586597041,37.13,154.2,-36.15,804,773,815,857,862,34.48275862068966,-0.615,0.002,-0.797
92171,1755586597070,37.16,154.71,-36.13,811,763,817,862,868,33.333333333333336,-0.615,0.0,-0.797
92201,1755586597100,37.18,155.23,-36.09,812,772,825,858,865,33.333333333333336,-0.612,0.0,-0.799
92230,1755586597130,37.2,155.71,-36.07,807,776,824,861,871,34.48275862068966,-0.612,0.002,-0.799
92260,1755586597159,37.22,156.19,-36.05,809,762,820,864,876,33.333333333333336,-0.614,0.002,-0.798
92290,1755586597189,37.24,156.67,-36.0,807,771,823,867,868,33.333333333333336,-0.613,0.002,-0.799
92319,1755586597219,37.27,157.11,-36.0,806,774,818,864,872,34.48275862068966,-0.612,0.004,-0.801
92349,1755586597248,37.29,157.52,-36.03,804,772,818,859,873,33.333333333333336,-0.613,0.003,-0.797
92378,1755586597278,37.31,157.99,-36.0,808,770,820,865,864,34.48275862068966,-0.615,0.002,-0.799
92408,1755586597307,37.32,158.41,-35.98,806,757,818,860,863,33.333333333333336,-0.611,0.004,-0.801
92437,1755586597337,37.34,158.81,-35.99,801,767,817,853,877,34.48275862068966,-0.608,0.005,-0.8
92467,1755586597366,37.3,159.24,-36.03,816,773,821,865,864,33.333333333333336,-0.609,0.006,-0.8
92496,1755586597396,37.28,159.67,-36.04,817,771,820,863,861,34.48275862068966,-0.612,0.003,-0.8
92526,1755586597425,37.32,160.07,-36.01,813,765,823,862,873,33.333333333333336,-0.611,0.004,-0.802
92555,1755586597455,37.32,160.46,-36.01,808,767,821,863,861,34.48275862068966,-0.608,0.005,-0.8
92585,1755586597485,37.3,160.86,-36.03,804,771,825,854,865,33.333333333333336,-0.61,0.005,-0.799
92615,1755586597514,37.32,161.26,-35.99,811,766,823,858,874,33.333333333333336,-0.611,0.003,-0.801
92644,1755586597544,37.35,161.62,-35.96,810,771,816,861,874,34.48275862068966,-0.609,0.005,-0.801
92664,1755586597564,37.35,161.96,-35.97,806,771,828,870,863,50.0,-0.609,0.006,-0.802
92694,1755586597593,37.31,162.31,-36.0,810,772,827,862,871,33.333333333333336,-0.609,0.006,-0.8
92723,1755586597623,37.31,162.68,-35.98,810,767,831,864,870,34.48275862068966,-0.609,0.005,-0.801
92753,1755586597652,37.32,163.0,-35.96,809,768,818,855,868,33.333333333333336,-0.61,0.005,-0.802
92782,1755586597682,37.32,163.33,-35.95,809,755,816,852,866,34.48275862068966,-0.611,0.006,-0.798
92812,1755586597711,37.33,163.67,-35.95,804,769,821,856,871,33.333333333333336,-0.613,0.006,-0.797
92841,1755586597740,37.35,164.02,-35.91,800,763,806,856,875,34.48275862068966,-0.612,0.005,-0.798
92871,1755586597770,37.38,164.36,-35.87,805,761,821,857,872,33.333333333333336,-0.609,0.005,-0.803
92900,1755586597799,37.34,164.65,-35.88,808,769,814,860,863,34.48275862068966,-0.607,0.006,-0.805
92929,1755586597829,37.28,164.93,-35.94,808,766,813,859,864,34.48275862068966,-0.609,0.007,-0.8
92959,1755586597858,37.26,165.25,-35.94,807,766,817,855,872,33.333333333333336,-0.612,0.004,-0.799
92988,1755586597888,37.3,165.56,-35.88,812,769,805,861,866,34.48275862068966,-0.61,0.006,-0.803
93018,1755586597917,37.28,165.81,-35.9,807,775,813,868,870,33.333333333333336,-0.606,0.008,-0.804
93047,1755586597947,37.19,166.07,-35.96,809,764,817,858,863,34.48275862068966,-0.608,0.006,-0.803
93077,1755586597976,37.2,166.33,-35.96,810,772,814,863,875,33.333333333333336,-0.611,0.004,-0.8
93106,1755586598006,37.26,166.6,-35.92,809,773,816,865,868,34.48275862068966,-0.614,0.003,-0.799
93127,1755586598026,37.3,166.87,-35.88,805,772,811,859,870,47.61904761904762,-0.611,0.004,-0.802
93156,1755586598055,37.27,167.12,-35.88,802,767,809,868,863,34.48275862068966,-0.609,0.006,-0.804
93186,1755586598086,37.25,167.32,-35.92,808,769,823,859,874,33.333333333333336,-0.61,0.007,-0.802
93215,1755586598115,37.27,167.58,-35.93,811,767,807,856,861,34.48275862068966,-0.613,0.006,-0.798
93245,1755586598144,37.32,167.88,-35.89,805,772,822,860,880,33.333333333333336,-0.613,0.005,-0.803
93274,1755586598174,37.32,168.08,-35.88,812,774,823,860,873,34.48275862068966,-0.609,0.005,-0.806
93304,1755586598203,37.31,168.28,-35.88,809,774,815,853,871,33.333333333333336,-0.61,0.005,-0.802
93333,1755586598233,37.33,168.55,-35.83,805,768,825,855,891,34.48275862068966,-0.614,0.006,-0.798
93363,1755586598263,37.4,168.82,-35.77,808,772,817,861,867,33.333333333333336,-0.61,0.007,-0.802
93393,1755586598292,37.38,169.0,-35.79,806,768,818,852,862,33.333333333333336,-0.607,0.007,-0.806
93422,1755586598321,37.37,169.16,-35.82,808,774,813,866,869,34.48275862068966,-0.609,0.007,-0.803
93451,1755586598351,37.38,169.4,-35.81,810,771,817,862,870,34.48275862068966,-0.612,0.006,-0.798
93481,1755586598380,37.43,169.61,-35.78,805,773,825,851,883,33.333333333333336,-0.613,0.007,-0.803
93510,1755586598410,37.45,169.78,-35.78,809,769,819,850,873,34.48275862068966,-0.609,0.008,-0.803
93540,1755586598440,37.44,170.0,-35.8,806,769,819,859,871,33.333333333333336,-0.607,0.009,-0.802
93570,1755586598469,37.4,170.21,-35.81,810,773,812,871,869,33.333333333333336,-0.609,0.008,-0.806
93599,1755586598498,37.43,170.36,-35.78,804,760,822,858,869,34.48275862068966,-0.611,0.005,-0.804
93629,1755586598528,37.45,170.56,-35.74,809,766,831,857,867,33.333333333333336,-0.61,0.006,-0.803
93658,1755586598558,37.43,170.79,-35.71,811,770,817,864,888,34.48275862068966,-0.609,0.008,-0.804
93688,1755586598587,37.43,170.97,-35.71,802,772,820,863,869,33.333333333333336,-0.607,0.009,-0.805
93717,1755586598617,37.41,171.11,-35.74,806,763,819,868,865,34.48275862068966,-0.609,0.009,-0.804
93737,1755586598637,37.39,171.29,-35.74,813,765,821,862,861,50.0,-0.61,0.008,-0.802
93767,1755586598667,37.39,171.48,-35.73,815,772,824,858,858,33.333333333333336,-0.608,0.008,-0.803
93797,1755586598696,37.4,171.63,-35.75,809,770,819,859,872,33.333333333333336,-0.607,0.008,-0.803
93826,1755586598725,37.38,171.79,-35.75,805,766,823,860,864,34.48275862068966,-0.609,0.008,-0.803
93855,1755586598755,37.38,171.93,-35.76,811,760,809,867,866,34.48275862068966,-0.608,0.008,-0.805
93885,1755586598784,37.34,172.07,-35.79,810,767,815,853,873,33.333333333333336,-0.608,0.009,-0.804
93914,1755586598814,37.31,172.21,-35.81,810,773,813,873,876,34.48275862068966,-0.609,0.008,-0.802
93944,1755586598843,37.32,172.35,-35.81,811,775,831,857,873,33.333333333333336,-0.611,0.006,-0.801
93973,1755586598872,37.34,172.49,-35.79,807,767,820,859,866,34.48275862068966,-0.61,0.007,-0.802
94003,1755586598902,37.35,172.61,-35.78,810,772,825,858,870,33.333333333333336,-0.608,0.008,-0.803
94032,1755586598932,37.37,172.75,-35.76,808,770,823,863,872,34.48275862068966,-0.609,0.006,-0.8
94052,1755586598952,37.38,172.92,-35.74,811,771,827,862,868,50.0,-0.61,0.007,-0.8
94082,1755586598981,37.34,173.03,-35.73,810,765,825,860,863,33.333333333333336,-0.609,0.01,-0.804
94111,1755586599011,37.33,173.12,-35.77,806,767,825,862,868,34.48275862068966,-0.605,0.011,-0.8
94141,1755586599040,37.32,173.27,-35.81,807,766,815,862,872,33.333333333333336,-0.609,0.009,-0.804
94170,1755586599070,37.3,173.39,-35.79,805,773,813,865,871,34.48275862068966,-0.61,0.006,-0.806
94200,1755586599099,37.33,173.51,-35.75,810,764,816,859,872,33.333333333333336,-0.607,0.007,-0.8
94229,1755586599128,37.35,173.64,-35.77,813,779,821,866,866,34.48275862068966,-0.61,0.012,-0.798
94258,1755586599158,37.35,173.79,-35.79,808,769,824,872,899,34.48275862068966,-0.611,0.01,-0.8
94288,1755586599188,37.34,173.92,-35.78,814,770,819,857,869,33.333333333333336,-0.607,0.007,-0.803
94317,1755586599217,37.35,174.04,-35.76,808,776,820,877,854,34.48275862068966,-0.608,0.007,-0.802
94347,1755586599246,37.35,174.17,-35.75,812,762,818,861,865,33.333333333333336,-0.61,0.008,-0.802
94376,1755586599275,37.34,174.31,-35.71,811,771,812,866,876,34.48275862068966,-0.608,0.007,-0.801
94405,1755586599305,37.39,174.43,-35.66,806,774,815,863,866,34.48275862068966,-0.606,0.009,-0.801
94435,1755586599334,37.37,174.52,-35.71,804,776,836,865,868,33.333333333333336,-0.605,0.013,-0.805
94465,1755586599364,37.26,174.61,-35.79,810,773,813,864,869,33.333333333333336,-0.607,0.01,-0.803
94494,1755586599393,37.25,174.71,-35.79,810,774,822,860,880,34.48275862068966,-0.609,0.007,-0.802
94524,1755586599423,37.26,174.77,-35.79,810,764,827,858,877,33.333333333333336,-0.61,0.006,-0.806
94554,1755586599453,37.18,174.81,-35.83,804,774,817,862,871,33.333333333333336,-0.61,0.007,-0.801
94583,1755586599483,37.19,174.93,-35.82,801,773,815,866,864,34.48275862068966,-0.61,0.009,-0.8
94613,1755586599513,37.17,175.02,-35.85,809,770,822,857,867,33.333333333333336,-0.607,0.011,-0.804
94643,1755586599542,37.11,175.11,-35.92,804,766,819,854,871,33.333333333333336,-0.605,0.009,-0.802
94672,1755586599572,37.07,175.25,-35.94,808,766,816,861,862,34.48275862068966,-0.61,0.003,-0.798
94702,1755586599601,37.12,175.4,-35.86,806,775,828,849,863,33.333333333333336,-0.615,0.001,-0.801
94731,1755586599630,37.17,175.54,-35.77,808,771,817,855,877,34.48275862068966,-0.61,0.004,-0.801
94761,1755586599660,37.17,175.62,-35.73,806,774,819,858,863,33.333333333333336,-0.607,0.005,-0.805
94790,1755586599689,37.16,175.69,-35.7,810,774,817,864,873,34.48275862068966,-0.606,0.007,-0.804
94819,1755586599719,37.12,175.78,-35.7,813,775,822,854,872,34.48275862068966,-0.609,0.007,-0.8
94849,1755586599749,37.12,175.87,-35.69,808,766,815,860,873,33.333333333333336,-0.613,0.008,-0.798
94879,1755586599778,37.16,175.94,-35.68,808,773,814,860,867,33.333333333333336,-0.612,0.01,-0.799
94908,1755586599807,37.14,175.98,-35.75,808,772,811,864,857,34.48275862068966,-0.611,0.008,-0.797
94937,1755586599837,37.14,176.06,-35.78,806,766,818,862,870,34.48275862068966,-0.614,0.006,-0.797
94967,1755586599866,37.2,176.12,-35.74,811,778,822,864,869,33.333333333333336,-0.616,0.004,-0.798
94996,1755586599896,37.27,176.19,-35.68,803,766,822,865,865,34.48275862068966,-0.613,0.004,-0.801
95026,1755586599925,37.28,176.23,-35.64,809,775,815,856,875,33.333333333333336,-0.612,0.006,-0.803
95055,1755586599955,37.31,176.28,-35.6,808,768,812,856,868,34.48275862068966,-0.61,0.006,-0.801
95085,1755586599985,37.34,176.33,-35.57,808,767,816,856,875,33.333333333333336,-0.61,0.01,-0.801
95115,1755586600014,37.35,176.37,-35.58,803,765,817,864,864,33.333333333333336,-0.609,0.01,-0.801
95144,1755586600044,37.35,176.37,-35.62,810,766,826,857,873,34.48275862068966,-0.608,0.011,-0.804
95174,1755586600074,37.43,176.31,-35.66,806,763,816,874,871,33.333333333333336,-0.604,0.011,-0.804
95204,1755586600103,37.58,176.25,-35.67,808,769,819,860,869,33.333333333333336,-0.608,0.009,-0.803
95233,1755586600132,37.67,176.23,-35.66,808,771,824,865,865,34.48275862068966,-0.61,0.009,-0.8
95263,1755586600162,37.74,176.27,-35.65,808,771,826,862,866,33.333333333333336,-0.608,0.013,-0.797
95292,1755586600192,37.86,176.36,-35.65,809,772,821,862,866,34.48275862068966,-0.604,0.016,-0.798
95322,1755586600222,37.79,176.47,-35.71,808,763,817,865,865,33.333333333333336,-0.605,0.014,-0.802
95352,1755586600251,37.68,176.59,-35.68,809,764,823,855,866,33.333333333333336,-0.606,0.009,-0.81
95381,1755586600281,37.72,176.61,-35.6,810,766,814,856,860,34.48275862068966,-0.605,0.008,-0.807
95411,1755586600310,37.74,176.74,-35.53,812,772,819,853,874,33.333333333333336,-0.607,0.012,-0.799
95440,1755586600340,37.69,176.88,-35.47,808,768,829,862,869,34.48275862068966,-0.607,0.016,-0.805
95470,1755586600369,37.68,176.95,-35.45,808,765,809,865,865,33.333333333333336,-0.6,0.016,-0.806
95499,1755586600399,37.65,177.02,-35.46,804,765,825,862,873,34.48275862068966,-0.6,0.015,-0.81
95529,1755586600429,37.6,177.05,-35.46,807,769,816,868,869,33.333333333333336,-0.603,0.013,-0.809
95559,1755586600458,37.6,177.11,-35.41,806,761,818,857,870,33.333333333333336,-0.604,0.011,-0.804
95588,1755586600487,37.55,177.19,-35.37,801,767,821,864,865,34.48275862068966,-0.605,0.015,-0.807
95618,1755586600517,37.46,177.19,-35.45,810,765,826,878,867,33.333333333333336,-0.601,0.019,-0.807
95647,1755586600546,37.39,177.19,-35.59,810,774,831,858,869,34.48275862068966,-0.602,0.02,-0.803
95676,1755586600576,37.32,177.22,-35.69,805,773,824,865,869,34.48275862068966,-0.608,0.015,-0.801
95706,1755586600605,37.36,177.31,-35.69,810,770,820,857,868,33.333333333333336,-0.609,0.01,-0.801
95735,1755586600635,37.43,177.4,-35.62,811,767,820,864,868,34.48275862068966,-0.607,0.006,-0.808
95765,1755586600664,37.43,177.4,-35.54,804,762,824,858,870,33.333333333333336,-0.604,0.006,-0.811
95794,1755586600693,37.44,177.45,-35.48,806,768,818,860,871,34.48275862068966,-0.601,0.01,-0.808
95824,1755586600723,37.41,177.5,-35.47,806,768,811,869,860,33.333333333333336,-0.6,0.015,-0.807
95853,1755586600753,37.38,177.55,-35.47,804,761,808,854,866,34.48275862068966,-0.602,0.014,-0.807
95883,1755586600782,37.34,177.6,-35.46,810,776,829,852,856,33.333333333333336,-0.602,0.013,-0.807
95912,1755586600812,37.28,177.62,-35.47,809,775,808,873,871,34.48275862068966,-0.603,0.014,-0.808
95942,1755586600841,37.24,177.62,-35.53,806,760,821,856,865,33.333333333333336,-0.605,0.015,-0.801
95972,1755586600871,37.23,177.7,-35.59,807,768,830,868,861,33.333333333333336,-0.61,0.012,-0.801
96001,1755586600900,37.22,177.76,-35.6,807,768,822,869,868,34.48275862068966,-0.608,0.01,-0.804
96030,1755586600930,37.25,177.78,-35.59,807,771,818,865,864,34.48275862068966,-0.606,0.008,-0.805
96060,1755586600960,37.29,177.82,-35.54,809,781,827,861,868,33.333333333333336,-0.608,0.007,-0.807
96080,1755586600979,37.28,177.85,-35.5,811,771,817,859,883,50.0,-0.608,0.007,-0.806
96109,1755586601009,37.29,177.9,-35.45,810,776,816,858,872,34.48275862068966,-0.604,0.012,-0.806
96139,1755586601038,37.26,177.93,-35.48,809,773,813,861,874,33.333333333333336,-0.598,0.016,-0.807
96168,1755586601068,37.16,177.95,-35.58,811,762,825,861,874,34.48275862068966,-0.601,0.014,-0.806
96198,1755586601097,37.11,177.99,-35.62,804,774,817,869,868,33.333333333333336,-0.606,0.011,-0.8
96227,1755586601127,37.18,178.07,-35.6,808,767,819,856,865,34.48275862068966,-0.608,0.009,-0.798
96257,1755586601156,37.25,178.11,-35.54,809,769,822,861,873,33.333333333333336,-0.607,0.007,-0.803
96286,1755586601186,37.26,178.15,-35.51,808,761,814,861,867,34.48275862068966,-0.604,0.007,-0.805
96316,1755586601215,37.27,178.2,-35.48,808,791,819,853,872,33.333333333333336,-0.604,0.007,-0.804
96345,1755586601245,37.32,178.22,-35.43,808,772,815,857,868,34.48275862068966,-0.605,0.009,-0.807
96365,1755586601265,37.34,178.21,-35.39,806,770,816,862,856,50.0,-0.606,0.01,-0.806
96395,1755586601294,37.38,178.22,-35.38,806,775,810,867,869,33.333333333333336,-0.604,0.013,-0.804
96424,1755586601324,37.35,178.23,-35.41,805,769,814,854,871,34.48275862068966,-0.602,0.012,-0.804
96454,1755586601353,37.37,178.27,-35.41,799,776,818,860,875,33.333333333333336,-0.603,0.01,-0.806
96483,1755586601383,37.4,178.29,-35.39,810,770,821,861,881,34.48275862068966,-0.602,0.009,-0.806
96513,1755586601412,37.4,178.31,-35.36,812,771,830,874,869,33.333333333333336,-0.602,0.009,-0.808
96542,1755586601442,37.41,178.3,-35.34,800,766,815,855,856,34.48275862068966,-0.602,0.01,-0.808
96572,1755586601472,37.45,178.3,-35.33,813,771,829,866,864,33.333333333333336,-0.602,0.012,-0.804
96602,1755586601501,37.45,178.35,-35.31,804,771,813,861,867,33.333333333333336,-0.602,0.014,-0.804
96631,1755586601531,37.4,178.39,-35.32,810,761,815,870,861,34.48275862068966,-0.6,0.014,-0.807
96661,1755586601560,37.38,178.39,-35.34,811,771,806,858,878,33.333333333333336,-0.599,0.012,-0.808
96690,1755586601590,37.39,178.4,-35.34,808,772,809,860,868,34.48275862068966,-0.599,0.013,-0.807
96720,1755586601619,37.37,178.42,-35.35,808,772,821,866,893,33.333333333333336,-0.601,0.013,-0.807
96749,1755586601649,37.36,178.4,-35.35,807,773,830,868,872,34.48275862068966,-0.6,0.012,-0.809
96779,1755586601679,37.38,178.35,-35.35,805,769,815,855,861,33.333333333333336,-0.599,0.011,-0.806
96808,1755586601708,37.41,178.38,-35.33,804,759,815,850,872,34.48275862068966,-0.601,0.013,-0.808
96838,1755586601737,37.43,178.37,-35.3,804,769,816,862,864,33.333333333333336,-0.599,0.014,-0.808
96867,1755586601767,37.47,178.34,-35.31,814,778,834,865,868,34.48275862068966,-0.597,0.017,-0.808
96897,1755586601796,37.43,178.3,-35.36,807,768,825,859,901,33.333333333333336,-0.597,0.014,-0.808
96926,1755586601826,37.43,178.32,-35.35,808,768,826,856,869,34.48275862068966,-0.597,0.013,-0.808
96956,1755586601856,37.46,178.34,-35.33,810,766,813,864,875,33.333333333333336,-0.597,0.014,-0.811
96985,1755586601885,37.48,178.33,-35.3,809,774,820,870,863,34.48275862068966,-0.595,0.014,-0.81
97015,1755586601915,37.51,178.34,-35.28,811,773,819,851,876,33.333333333333336,-0.594,0.017,-0.81
97035,1755586601934,37.48,178.36,-35.3,810,772,822,859,874,50.0,-0.594,0.02,-0.81
97064,1755586601964,37.44,178.38,-35.32,802,759,821,849,877,34.48275862068966,-0.596,0.018,-0.809
97084,1755586601984,37.42,178.42,-35.3,810,778,814,859,871,50.0,-0.596,0.015,-0.809
97114,1755586602013,37.44,178.42,-35.3,808,776,816,842,864,33.333333333333336,-0.595,0.016,-0.815
97143,1755586602043,37.38,178.36,-35.36,806,772,823,857,868,34.48275862068966,-0.592,0.017,-0.814
97173,1755586602072,37.33,178.37,-35.4,811,773,818,867,870,33.333333333333336,-0.594,0.018,-0.81
97202,1755586602101,37.3,178.42,-35.41,809,770,828,875,862,34.48275862068966,-0.595,0.018,-0.81
97232,1755586602131,37.27,178.43,-35.42,807,763,819,865,875,33.333333333333336,-0.593,0.017,-0.816
97261,1755586602161,37.21,178.38,-35.49,809,774,812,854,871,34.48275862068966,-0.592,0.016,-0.819
97291,1755586602190,37.14,178.37,-35.51,813,769,820,858,865,33.333333333333336,-0.595,0.013,-0.813
97320,1755586602220,37.14,178.39,-35.48,808,772,811,861,867,34.48275862068966,-0.599,0.013,-0.818
97350,1755586602249,37.11,178.36,-35.49,808,767,816,846,872,33.333333333333336,-0.596,0.017,-0.816
97379,1755586602279,37.06,178.38,-35.53,810,768,817,867,869,34.48275862068966,-0.596,0.015,-0.812
97409,1755586602308,37.03,178.45,-35.5,808,768,822,855,873,33.333333333333336,-0.6,0.013,-0.815
97438,1755586602338,37.02,178.45,-35.47,807,765,817,863,865,34.48275862068966,-0.599,0.015,-0.816
97468,1755586602367,36.94,178.48,-35.49,813,765,823,869,870,33.333333333333336,-0.598,0.016,-0.812
97497,1755586602397,36.85,178.55,-35.48,811,776,818,866,866,34.48275862068966,-0.6,0.014,-0.811
97527,1755586602426,36.88,178.59,-35.42,806,762,817,856,892,33.333333333333336,-0.601,0.014,-0.811
97556,1755586602456,36.96,178.61,-35.35,809,775,818,855,871,34.48275862068966,-0.598,0.013,-0.81
97586,1755586602485,36.99,178.67,-35.3,806,772,817,866,871,33.333333333333336,-0.596,0.016,-0.81
97615,1755586602515,36.99,178.72,-35.27,811,767,818,865,873,34.48275862068966,-0.593,0.017,-0.816
97645,1755586602544,36.93,178.68,-35.3,808,776,819,863,868,33.333333333333336,-0.59,0.019,-0.818
97674,1755586602574,36.86,178.69,-35.36,808,775,827,853,856,34.48275862068966,-0.592,0.018,-0.815
97704,1755586602603,36.84,178.67,-35.38,812,767,807,858,868,33.333333333333336,-0.597,0.016,-0.814
97734,1755586602633,36.86,178.66,-35.39,809,777,815,856,878,33.333333333333336,-0.597,0.017,-0.811
97763,1755586602663,36.88,178.71,-35.37,806,764,817,865,870,34.48275862068966,-0.598,0.015,-0.81
97793,1755586602692,36.89,178.74,-35.34,806,777,825,860,865,33.333333333333336,-0.595,0.013,-0.816
97822,1755586602722,36.83,178.7,-35.35,811,764,814,857,866,34.48275862068966,-0.594,0.017,-0.815
97851,1755586602751,36.77,178.68,-35.42,808,766,829,859,860,34.48275862068966,-0.598,0.015,-0.808
97881,1755586602781,36.79,178.74,-35.37,810,774,816,864,861,33.333333333333336,-0.6,0.013,-0.811
97911,1755586602811,36.8,178.69,-35.37,806,765,826,859,865,33.333333333333336,-0.598,0.016,-0.813
97941,1755586602840,36.77,178.69,-35.44,807,766,825,866,867,33.333333333333336,-0.596,0.019,-0.808
97970,1755586602870,36.72,178.75,-35.48,810,767,824,862,864,34.48275862068966,-0.598,0.015,-0.812
97999,1755586602899,36.71,178.7,-35.46,811,773,814,856,864,34.48275862068966,-0.597,0.011,-0.815
98029,1755586602929,36.74,178.68,-35.43,809,772,815,863,869,33.333333333333336,-0.598,0.013,-0.81
98059,1755586602958,36.75,178.7,-35.4,809,774,819,856,871,33.333333333333336,-0.599,0.012,-0.81
98088,1755586602988,36.78,178.73,-35.34,805,768,818,858,879,34.48275862068966,-0.599,0.015,-0.812
98118,1755586603017,36.76,178.69,-35.34,806,768,827,863,879,33.333333333333336,-0.597,0.015,-0.812
98147,1755586603046,36.77,178.67,-35.32,807,770,822,865,868,34.48275862068966,-0.598,0.016,-0.809
98176,1755586603076,36.8,178.67,-35.33,813,760,819,870,870,34.48275862068966,-0.599,0.019,-0.807
98206,1755586603105,36.79,178.7,-35.37,809,767,822,863,865,33.333333333333336,-0.601,0.018,-0.808
98235,1755586603135,36.76,178.73,-35.35,808,779,818,865,874,34.48275862068966,-0.599,0.016,-0.81
98265,1755586603165,36.72,178.66,-35.41,810,767,814,856,870,33.333333333333336,-0.596,0.021,-0.812
98295,1755586603194,36.66,178.63,-35.51,811,774,822,873,877,33.333333333333336,-0.6,0.015,-0.805
98325,1755586603224,36.65,178.66,-35.48,810,764,813,861,873,33.333333333333336,-0.6,0.015,-0.809
98354,1755586603254,36.67,178.73,-35.55,811,767,814,861,870,34.48275862068966,-0.59,0.026,-0.802
98384,1755586603283,36.47,178.79,-35.94,814,759,820,859,868,33.333333333333336,-0.589,0.037,-0.809
98413,1755586603313,36.1,178.79,-36.28,809,771,821,859,872,34.48275862068966,-0.6,0.023,-0.799
98443,1755586603342,36.16,179.11,-36.23,808,766,813,867,869,33.333333333333336,-0.605,0.005,-0.797
98472,1755586603372,36.1,172.05,-36.21,807,773,829,859,863,34.48275862068966,-0.6,-0.003,-0.82
98502,1755586603401,35.99,164.96,-36.29,806,767,814,868,867,33.333333333333336,-0.603,-0.006,-0.806
98531,1755586603431,35.95,158.25,-36.29,811,773,815,862,863,34.48275862068966,-0.617,-0.009,-0.798
98561,1755586603460,35.86,151.66,-36.2,807,770,813,860,869,33.333333333333336,-0.623,-0.015,-0.802
98590,1755586603490,35.99,144.9,-36.02,810,765,822,863,867,34.48275862068966,-0.615,-0.01,-0.818
98620,1755586603519,35.94,145.32,-36.25,806,772,824,864,870,33.333333333333336,-0.601,0.013,-0.801
98649,1755586603549,35.71,146.01,-36.67,808,766,819,850,869,34.48275862068966,-0.614,0.021,-0.782
98679,1755586603578,35.69,147.0,-36.8,814,771,806,861,869,33.333333333333336,-0.623,0.009,-0.782
98708,1755586603608,35.55,140.71,-36.71,811,771,818,851,866,34.48275862068966,-0.616,-0.012,-0.807
98738,1755586603638,35.44,134.34,-36.64,810,768,809,860,889,33.333333333333336,-0.604,-0.013,-0.803
98768,1755586603667,35.25,128.25,-36.72,810,772,817,855,874,33.333333333333336,-0.612,-0.015,-0.799
98797,1755586603697,35.02,122.13,-36.78,812,768,816,855,874,34.48275862068966,-0.62,-0.013,-0.801
98827,1755586603727,35.13,116.07,-36.73,810,772,819,856,880,33.333333333333336,-0.627,-0.01,-0.788
98857,1755586603756,35.13,117.3,-36.84,811,767,811,864,862,33.333333333333336,-0.632,0.001,-0.79
98886,1755586603785,35.04,118.5,-37.08,811,771,844,870,870,34.48275862068966,-0.632,0.004,-0.775
98915,1755586603815,35.13,112.76,-37.19,809,774,815,859,874,34.48275862068966,-0.633,-0.004,-0.773
98945,1755586603845,35.18,107.0,-37.18,808,769,806,868,878,33.333333333333336,-0.63,-0.021,-0.8
98975,1755586603874,35.17,101.13,-37.17,808,768,815,856,867,33.333333333333336,-0.623,-0.03,-0.8
99005,1755586603904,35.19,95.54,-37.17,801,776,817,859,874,33.333333333333336,-0.633,-0.032,-0.78
99034,1755586603933,35.24,90.09,-37.06,813,767,815,873,875,34.48275862068966,-0.644,-0.032,-0.783
99063,1755586603963,35.52,84.56,-36.9,810,770,810,861,870,34.48275862068966,-0.645,-0.022,-0.776
99093,1755586603993,35.68,79.24,-36.99,808,763,820,865,863,33.333333333333336,-0.637,-0.007,-0.77
99123,1755586604022,35.54,74.11,-37.22,828,770,817,868,872,33.333333333333336,-0.636,-0.007,-0.775
99152,1755586604051,35.69,69.09,-37.27,808,777,818,867,867,34.48275862068966,-0.636,-0.017,-0.782
99181,1755586604081,35.84,64.03,-37.34,810,777,823,861,872,34.48275862068966,-0.637,-0.02,-0.787
99211,1755586604111,35.75,59.15,-37.45,807,777,815,866,866,33.333333333333336,-0.64,-0.023,-0.778
99241,1755586604141,35.86,54.4,-37.49,805,772,817,862,871,33.333333333333336,-0.643,-0.019,-0.778
99271,1755586604170,35.88,49.68,-37.57,812,770,809,861,865,33.333333333333336,-0.642,-0.019,-0.775
99300,1755586604200,35.88,45.2,-37.55,810,767,820,860,865,34.48275862068966,-0.647,-0.025,-0.773
99330,1755586604229,36.03,40.82,-37.45,812,771,824,860,869,33.333333333333336,-0.647,-0.029,-0.771
99360,1755586604259,36.23,36.49,-37.29,804,771,818,862,872,33.333333333333336,-0.644,-0.028,-0.783
99389,1755586604289,36.3,32.07,-37.27,811,773,821,869,868,34.48275862068966,-0.638,-0.024,-0.783
99419,1755586604318,36.3,27.76,-37.38,809,766,814,864,870,33.333333333333336,-0.642,-0.015,-0.774
99448,1755586604348,36.34,23.63,-37.48,807,766,816,863,868,34.48275862068966,-0.647,-0.017,-0.768
99478,1755586604377,36.54,19.63,-37.41,807,768,815,863,868,33.333333333333336,-0.651,-0.024,-0.77
99507,1755586604407,36.91,15.62,-37.19,812,768,814,852,870,34.48275862068966,-0.649,-0.03,-0.778
99537,1755586604437,37.19,11.66,-37.01,813,761,820,864,867,33.333333333333336,-0.635,-0.026,-0.785
99567,1755586604466,37.26,7.76,-36.97,805,762,817,851,872,33.333333333333336,-0.631,-0.016,-0.784
99596,1755586604496,37.33,3.99,-37.03,811,769,812,870,864,34.48275862068966,-0.631,-0.012,-0.777
99626,1755586604525,37.34,0.4,-37.06,810,773,808,857,867,33.333333333333336,-0.635,-0.015,-0.781
99655,1755586604555,37.42,-3.13,-37.02,808,766,812,855,863,34.48275862068966,-0.632,-0.018,-0.787
99685,1755586604585,37.53,-6.69,-37.0,808,767,813,859,876,33.333333333333336,-0.63,-0.017,-0.792
99715,1755586604614,37.54,-10.2,-36.99,804,766,826,857,873,33.333333333333336,-0.632,-0.018,-0.79
99744,1755586604644,37.61,-13.64,-36.96,808,778,812,861,866,34.48275862068966,-0.631,-0.014,-0.785
99774,1755586604674,37.74,-16.97,-36.98,807,771,819,860,862,33.333333333333336,-0.633,-0.011,-0.782
99804,1755586604703,37.75,-20.17,-36.98,810,761,820,860,865,33.333333333333336,-0.63,-0.011,-0.785
99833,1755586604733,37.83,-23.4,-37.04,810,769,822,854,862,34.48275862068966,-0.625,-0.01,-0.79
99863,1755586604763,37.85,-26.62,-37.18,810,768,825,862,867,33.333333333333336,-0.628,-0.009,-0.789
99893,1755586604792,37.8,-29.68,-37.25,807,788,819,850,872,33.333333333333336,-0.632,-0.012,-0.787
99922,1755586604822,37.78,-32.65,-37.26,810,768,819,854,865,34.48275862068966,-0.626,-0.013,-0.79
99952,1755586604851,37.74,-35.64,-37.37,810,768,811,858,866,33.333333333333336,-0.621,-0.01,-0.791
99981,1755586604881,37.64,-38.58,-37.52,806,769,820,863,867,34.48275862068966,-0.627,-0.014,-0.785
100011,1755586604910,37.62,-41.29,-37.5,811,770,811,859,862,33.333333333333336,-0.631,-0.015,-0.789
100040,1755586604940,37.69,-44.09,-37.45,811,776,817,861,874,34.48275862068966,-0.63,-0.018,-0.785
100070,1755586604970,37.74,-46.75,-37.36,809,775,832,862,872,33.333333333333336,-0.631,-0.016,-0.781
100100,1755586604999,37.8,-49.35,-37.32,811,763,812,862,866,33.333333333333336,-0.628,-0.011,-0.788
100129,1755586605029,37.81,-51.97,-37.36,809,763,816,861,869,34.48275862068966,-0.624,-0.012,-0.789
100159,1755586605058,37.81,-54.49,-37.36,811,768,817,857,872,33.333333333333336,-0.628,-0.014,-0.787
100188,1755586605088,37.85,-56.95,-37.3,808,769,810,859,872,34.48275862068966,-0.629,-0.015,-0.786
100218,1755586605118,37.9,-59.36,-37.26,810,771,809,860,867,33.333333333333336,-0.626,-0.013,-0.789
100248,1755586605147,37.9,-61.77,-37.28,807,770,814,863,870,33.333333333333336,-0.625,-0.011,-0.792
100277,1755586605177,37.93,-64.16,-37.29,805,769,802,855,872,34.48275862068966,-0.629,-0.016,-0.788
