timestamp_ms,recv_timestamp_ms,pitch,roll,yaw,flex1,flex2,flex3,flex4,flex5,sampling_hz,accel_x,accel_y,accel_z
52478,1755586439258,23.76,-30.55,-39.48,818,768,823,866,872,34.48275862068966,-0.4,-0.463,0.789
52508,1755586439287,23.76,-30.6,-39.52,813,777,830,870,874,33.333333333333336,-0.401,-0.463,0.791
52537,1755586439317,23.77,-30.61,-39.54,815,761,825,875,871,34.48275862068966,-0.403,-0.466,0.795
52567,1755586439346,23.76,-30.59,-39.55,816,769,819,863,876,33.333333333333336,-0.403,-0.468,0.794
52596,1755586439376,23.79,-30.56,-39.56,809,767,807,877,871,34.48275862068966,-0.4,-0.465,0.793
52626,1755586439405,23.78,-30.57,-39.6,812,771,819,873,872,33.333333333333336,-0.4,-0.463,0.791
52655,1755586439434,23.79,-30.61,-39.63,819,773,813,885,874,34.48275862068966,-0.406,-0.465,0.791
52685,1755586439464,23.78,-30.61,-39.62,811,767,815,869,867,33.333333333333336,-0.407,-0.469,0.794
52714,1755586439494,23.82,-30.57,-39.61,816,762,813,875,875,34.48275862068966,-0.403,-0.471,0.797
52744,1755586439523,23.82,-30.52,-39.61,817,774,831,875,898,33.333333333333336,-0.398,-0.466,0.794
52773,1755586439553,23.81,-30.54,-39.65,818,766,818,864,874,34.48275862068966,-0.4,-0.461,0.79
52803,1755586439583,23.78,-30.58,-39.68,809,764,839,864,879,33.333333333333336,-0.405,-0.464,0.792
52833,1755586439612,23.79,-30.56,-39.65,816,771,820,868,881,33.333333333333336,-0.407,-0.468,0.796
52862,1755586439642,23.8,-30.54,-39.62,831,767,822,877,878,34.48275862068966,-0.403,-0.467,0.795
52892,1755586439671,23.79,-30.52,-39.63,813,772,829,875,874,33.333333333333336,-0.399,-0.463,0.793
52921,1755586439701,23.76,-30.53,-39.67,815,768,821,873,878,34.48275862068966,-0.4,-0.464,0.795
52951,1755586439730,23.78,-30.49,-39.66,816,777,812,870,878,33.333333333333336,-0.405,-0.469,0.798
52980,1755586439760,23.83,-30.45,-39.62,811,774,820,874,875,34.48275862068966,-0.406,-0.466,0.793
53010,1755586439789,23.83,-30.48,-39.64,817,761,814,869,880,33.333333333333336,-0.402,-0.459,0.791
53039,1755586439819,23.76,-30.53,-39.7,818,770,832,862,877,34.48275862068966,-0.403,-0.463,0.797
53069,1755586439848,23.77,-30.49,-39.71,820,772,828,882,880,33.333333333333336,-0.405,-0.468,0.802
53099,1755586439878,23.83,-30.43,-39.69,819,773,818,870,874,33.333333333333336,-0.405,-0.462,0.795
53128,1755586439907,23.77,-30.49,-39.73,812,766,820,865,876,34.48275862068966,-0.403,-0.457,0.786
53158,1755586439937,23.7,-30.6,-39.78,814,768,822,869,868,33.333333333333336,-0.405,-0.461,0.793
53187,1755586439967,23.73,-30.53,-39.74,815,770,819,869,877,34.48275862068966,-0.406,-0.469,0.803
53217,1755586439997,23.84,-30.4,-39.68,817,762,819,878,867,33.333333333333336,-0.405,-0.467,0.799
53247,1755586440026,23.83,-30.39,-39.66,816,774,819,867,876,33.333333333333336,-0.403,-0.46,0.79
53276,1755586440056,23.81,-30.46,-39.71,812,772,822,866,869,34.48275862068966,-0.404,-0.458,0.79
53306,1755586440085,23.78,-30.48,-39.72,815,768,821,873,875,33.333333333333336,-0.406,-0.464,0.797
53335,1755586440115,23.82,-30.38,-39.67,814,770,828,871,873,34.48275862068966,-0.406,-0.468,0.803
53365,1755586440145,23.89,-30.26,-39.63,814,769,821,867,870,33.333333333333336,-0.402,-0.464,0.8
53395,1755586440174,23.97,-30.24,-39.65,815,768,825,880,875,33.333333333333336,-0.404,-0.456,0.789
53424,1755586440204,23.88,-30.32,-39.73,814,767,825,867,878,34.48275862068966,-0.407,-0.456,0.785
53454,1755586440233,23.87,-30.4,-39.73,813,775,816,887,877,33.333333333333336,-0.409,-0.459,0.792
53483,1755586440263,23.86,-30.4,-39.73,814,771,818,868,889,34.48275862068966,-0.405,-0.464,0.798
53513,1755586440292,24.3,-30.33,-39.72,816,770,818,868,878,33.333333333333336,-0.401,-0.468,0.799
53542,1755586440322,24.31,-30.3,-39.71,815,763,800,869,867,34.48275862068966,-0.401,-0.463,0.793
53572,1755586440352,24.24,-30.35,-39.79,816,770,825,882,872,33.333333333333336,-0.402,-0.452,0.788
53602,1755586440381,24.14,-30.44,-39.88,816,762,824,866,878,33.333333333333336,-0.407,-0.453,0.79
53631,1755586440411,24.13,-30.42,-39.89,812,776,816,878,876,34.48275862068966,-0.41,-0.462,0.799
53661,1755586440440,24.18,-30.33,-39.85,818,768,822,873,875,33.333333333333336,-0.407,-0.465,0.8
53690,1755586440470,24.21,-30.32,-39.86,815,781,828,868,874,34.48275862068966,-0.402,-0.458,0.792
53720,1755586440500,24.14,-30.36,-39.92,812,769,829,874,861,33.333333333333336,-0.403,-0.453,0.789
53750,1755586440529,24.11,-30.38,-39.96,819,771,822,871,870,33.333333333333336,-0.404,-0.459,0.796
53779,1755586440559,24.18,-30.34,-39.98,818,767,812,877,908,34.48275862068966,-0.405,-0.464,0.799
53799,1755586440579,24.21,-30.31,-39.99,809,768,816,868,869,50.0,-0.404,-0.464,0.795
53829,1755586440609,24.2,-30.31,-40.02,819,772,824,873,874,33.333333333333336,-0.401,-0.457,0.788
53859,1755586440638,24.17,-30.4,-40.11,809,769,825,864,863,33.333333333333336,-0.405,-0.458,0.792
53888,1755586440668,24.14,-30.43,-40.16,815,766,827,866,872,34.48275862068966,-0.409,-0.464,0.799
53918,1755586440698,24.21,-30.4,-40.15,811,764,822,877,869,33.333333333333336,-0.407,-0.467,0.799
53948,1755586440727,24.25,-30.35,-40.15,812,762,821,876,870,33.333333333333336,-0.403,-0.462,0.793
53977,1755586440757,24.17,-30.4,-40.23,811,770,802,870,867,34.48275862068966,-0.401,-0.458,0.788
54007,1755586440786,24.14,-30.49,-40.3,817,769,817,868,876,33.333333333333336,-0.407,-0.463,0.792
54036,1755586440816,24.13,-30.47,-40.28,815,763,819,863,870,34.48275862068966,-0.41,-0.467,0.797
54066,1755586440845,24.19,-30.43,-40.26,811,771,824,871,872,33.333333333333336,-0.404,-0.467,0.797
54095,1755586440875,24.13,-30.42,-40.31,815,776,810,881,885,34.48275862068966,-0.401,-0.464,0.792
54125,1755586440904,24.08,-30.47,-40.37,808,773,825,863,876,33.333333333333336,-0.402,-0.462,0.788
54155,1755586440934,24.06,-30.52,-40.4,813,775,827,876,873,33.333333333333336,-0.405,-0.461,0.791
54184,1755586440964,24.06,-30.54,-40.43,815,776,814,875,860,34.48275862068966,-0.406,-0.464,0.794
54214,1755586440993,23.91,-30.49,-40.46,812,771,821,869,873,33.333333333333336,-0.401,-0.466,0.793
54243,1755586441023,23.88,-30.42,-40.48,812,775,819,875,882,34.48275862068966,-0.401,-0.466,0.796
54272,1755586441052,23.73,-30.43,-40.57,818,761,812,870,869,34.48275862068966,-0.397,-0.46,0.79
54302,1755586441081,23.75,-30.6,-40.68,816,776,815,870,876,33.333333333333336,-0.402,-0.462,0.789
54331,1755586441111,23.8,-30.69,-40.69,814,767,813,867,871,34.48275862068966,-0.404,-0.467,0.793
54361,1755586441140,23.8,-30.73,-40.67,810,763,824,876,869,33.333333333333336,-0.403,-0.473,0.797
54390,1755586441170,23.77,-30.69,-40.64,815,777,815,867,874,34.48275862068966,-0.399,-0.47,0.796
54420,1755586441200,23.79,-30.72,-40.65,815,772,820,875,891,33.333333333333336,-0.395,-0.463,0.795
54450,1755586441230,23.71,-30.77,-40.76,815,769,815,870,881,33.333333333333336,-0.394,-0.459,0.792
54480,1755586441259,23.63,-30.87,-40.89,814,769,823,861,875,33.333333333333336,-0.398,-0.467,0.792
54509,1755586441289,23.62,-30.87,-40.92,816,766,819,876,867,34.48275862068966,-0.401,-0.473,0.797
54539,1755586441318,23.62,-30.8,-40.91,808,773,832,856,871,33.333333333333336,-0.4,-0.473,0.797
54568,1755586441348,23.59,-30.81,-40.95,817,763,825,877,863,34.48275862068966,-0.397,-0.468,0.79
54598,1755586441378,23.51,-30.86,-41.01,808,769,820,871,877,33.333333333333336,-0.396,-0.467,0.788
54628,1755586441408,23.46,-30.86,-41.06,815,767,817,867,872,33.333333333333336,-0.397,-0.471,0.796
54658,1755586441437,23.49,-30.83,-41.05,815,765,827,872,882,33.333333333333336,-0.393,-0.474,0.799
54687,1755586441467,23.55,-30.84,-41.05,814,767,811,867,873,34.48275862068966,-0.392,-0.468,0.791
54717,1755586441496,23.44,-30.9,-41.1,815,771,827,870,877,33.333333333333336,-0.389,-0.469,0.792
54746,1755586441526,23.48,-30.95,-41.1,811,770,819,872,874,34.48275862068966,-0.392,-0.477,0.8
54776,1755586441555,23.48,-30.89,-41.09,818,772,820,874,873,33.333333333333336,-0.394,-0.473,0.795
54805,1755586441585,23.44,-30.95,-41.11,819,764,803,880,878,34.48275862068966,-0.392,-0.47,0.788
54835,1755586441614,23.44,-31.0,-41.13,815,771,817,869,869,33.333333333333336,-0.393,-0.471,0.793
54864,1755586441644,23.38,-31.01,-41.13,819,764,815,869,877,34.48275862068966,-0.392,-0.474,0.796
54894,1755586441674,23.43,-30.99,-41.13,815,773,814,873,865,33.333333333333336,-0.391,-0.478,0.799
54923,1755586441703,23.46,-30.92,-41.14,812,769,820,857,873,34.48275862068966,-0.393,-0.476,0.796
54953,1755586441733,23.41,-30.94,-41.16,813,771,814,867,880,33.333333333333336,-0.395,-0.47,0.787
54983,1755586441762,23.37,-31.08,-41.21,813,773,816,869,871,33.333333333333336,-0.395,-0.47,0.787
55012,1755586441792,23.35,-31.1,-41.21,816,766,813,868,868,34.48275862068966,-0.395,-0.474,0.793
55042,1755586441821,23.32,-31.06,-41.19,818,763,809,872,873,33.333333333333336,-0.394,-0.479,0.796
55071,1755586441851,23.35,-31.04,-41.19,817,773,804,890,875,34.48275862068966,-0.389,-0.478,0.795
55101,1755586441880,23.31,-31.02,-41.22,808,772,817,879,878,33.333333333333336,-0.388,-0.473,0.791
55130,1755586441910,23.15,-31.06,-41.3,820,759,812,874,876,34.48275862068966,-0.391,-0.477,0.792
55160,1755586441940,23.08,-31.09,-41.32,815,768,813,874,872,33.333333333333336,-0.389,-0.48,0.798
55190,1755586441969,23.19,-31.06,-41.31,813,771,828,890,872,33.333333333333336,-0.385,-0.477,0.8
55219,1755586441999,23.14,-31.07,-41.36,814,774,821,855,866,34.48275862068966,-0.383,-0.476,0.794
55249,1755586442028,23.14,-31.1,-41.39,815,769,823,871,871,33.333333333333336,-0.387,-0.475,0.792
55278,1755586442058,23.16,-31.13,-41.4,811,771,816,872,875,34.48275862068966,-0.39,-0.476,0.794
55308,1755586442088,23.21,-31.13,-41.39,817,768,827,871,878,33.333333333333336,-0.39,-0.48,0.797
55337,1755586442117,23.26,-31.14,-41.39,813,770,820,873,865,34.48275862068966,-0.388,-0.478,0.793
55367,1755586442146,23.31,-31.17,-41.41,814,772,819,867,867,33.333333333333336,-0.389,-0.475,0.789
55396,1755586442176,23.31,-31.24,-41.43,817,759,823,869,877,34.48275862068966,-0.391,-0.474,0.789
55426,1755586442205,23.38,-31.3,-41.45,817,774,813,872,876,33.333333333333336,-0.388,-0.474,0.793
55455,1755586442235,23.41,-31.27,-41.49,812,780,817,872,866,34.48275862068966,-0.39,-0.479,0.796
55485,1755586442264,23.4,-31.26,-41.51,810,773,819,870,872,33.333333333333336,-0.392,-0.479,0.79
55514,1755586442294,23.42,-31.3,-41.52,820,775,812,874,877,34.48275862068966,-0.394,-0.477,0.786
55544,1755586442323,23.39,-31.36,-41.52,814,771,825,867,874,33.333333333333336,-0.396,-0.477,0.788
55573,1755586442353,23.43,-31.38,-41.51,808,768,816,867,868,34.48275862068966,-0.392,-0.478,0.793
55603,1755586442383,23.44,-31.37,-41.51,810,774,822,885,877,33.333333333333336,-0.39,-0.482,0.792
55633,1755586442412,23.46,-31.33,-41.52,820,762,819,876,875,33.333333333333336,-0.394,-0.481,0.788
55662,1755586442442,23.46,-31.34,-41.53,818,775,809,874,878,34.48275862068966,-0.398,-0.48,0.788
55692,1755586442471,23.5,-31.32,-41.49,814,771,819,883,874,33.333333333333336,-0.398,-0.482,0.792
55721,1755586442501,23.48,-31.23,-41.46,821,768,832,871,866,34.48275862068966,-0.396,-0.48,0.791
55751,1755586442530,23.49,-31.23,-41.46,812,771,818,873,872,33.333333333333336,-0.392,-0.478,0.788
55780,1755586442559,23.5,-31.24,-41.47,821,769,820,871,870,34.48275862068966,-0.394,-0.475,0.787
55809,1755586442589,23.48,-31.28,-41.48,811,766,819,865,876,34.48275862068966,-0.395,-0.473,0.787
55839,1755586442618,23.52,-31.33,-41.5,813,767,814,872,874,33.333333333333336,-0.395,-0.474,0.79
55868,1755586442648,23.55,-31.3,-41.5,813,772,820,864,872,34.48275862068966,-0.397,-0.478,0.79
55898,1755586442678,23.56,-31.31,-41.5,817,778,823,873,872,33.333333333333336,-0.396,-0.477,0.788
55928,1755586442707,23.56,-31.34,-41.54,815,766,818,874,870,33.333333333333336,-0.393,-0.475,0.788
55957,1755586442737,23.52,-31.33,-41.59,811,768,828,868,873,34.48275862068966,-0.394,-0.475,0.789
55987,1755586442766,23.46,-31.31,-41.65,819,773,820,871,873,33.333333333333336,-0.394,-0.478,0.789
56016,1755586442796,23.52,-31.3,-41.67,815,767,835,869,873,34.48275862068966,-0.396,-0.479,0.788
56046,1755586442825,23.49,-31.35,-41.71,811,765,820,869,871,33.333333333333336,-0.398,-0.475,0.784
56075,1755586442855,23.47,-31.42,-41.74,814,771,816,872,877,34.48275862068966,-0.397,-0.477,0.787
56105,1755586442885,23.57,-31.49,-41.75,808,768,820,871,870,33.333333333333336,-0.398,-0.481,0.792
56135,1755586442914,23.54,-31.46,-41.76,815,771,823,865,895,33.333333333333336,-0.396,-0.48,0.788
56164,1755586442944,23.57,-31.5,-41.78,814,770,818,879,865,34.48275862068966,-0.395,-0.478,0.786
56194,1755586442973,23.58,-31.55,-41.83,818,767,820,873,877,33.333333333333336,-0.396,-0.478,0.79
56223,1755586443003,23.61,-31.53,-41.83,817,773,824,875,875,34.48275862068966,-0.398,-0.481,0.79
56253,1755586443032,23.71,-31.54,-41.81,817,781,822,862,879,33.333333333333336,-0.398,-0.482,0.788
56282,1755586443062,23.8,-31.59,-41.81,824,772,817,876,881,34.48275862068966,-0.398,-0.479,0.782
56312,1755586443092,23.75,-31.66,-41.82,821,767,821,870,863,33.333333333333336,-0.4,-0.48,0.782
56342,1755586443121,23.8,-31.75,-41.8,812,765,823,874,874,33.333333333333336,-0.4,-0.483,0.788
56371,1755586443151,23.91,-31.71,-41.76,808,773,831,884,862,34.48275862068966,-0.401,-0.483,0.789
56401,1755586443180,23.85,-31.69,-41.78,812,773,822,870,871,33.333333333333336,-0.401,-0.482,0.782
56430,1755586443210,23.83,-31.74,-41.81,810,774,815,873,882,34.48275862068966,-0.402,-0.481,0.779
56460,1755586443239,23.8,-31.76,-41.82,814,773,820,874,869,33.333333333333336,-0.404,-0.482,0.785
56489,1755586443269,23.77,-31.71,-41.83,813,772,819,868,878,34.48275862068966,-0.4,-0.483,0.788
56519,1755586443298,23.8,-31.66,-41.84,810,777,821,863,873,33.333333333333336,-0.402,-0.482,0.781
56548,1755586443328,23.75,-31.67,-41.88,810,764,825,869,871,34.48275862068966,-0.407,-0.481,0.778
56578,1755586443358,23.69,-31.73,-41.9,813,764,827,877,867,33.333333333333336,-0.404,-0.482,0.782
56608,1755586443387,23.77,-31.68,-41.89,812,773,815,866,871,33.333333333333336,-0.402,-0.485,0.79
56637,1755586443417,23.72,-31.62,-41.91,816,773,832,861,883,34.48275862068966,-0.401,-0.482,0.782
56667,1755586443446,23.72,-31.66,-41.94,814,768,823,875,874,33.333333333333336,-0.402,-0.482,0.779
56696,1755586443476,23.67,-31.71,-41.98,811,767,822,877,881,34.48275862068966,-0.403,-0.482,0.781
56726,1755586443505,23.65,-31.73,-42.01,815,771,813,867,894,33.333333333333336,-0.402,-0.481,0.782
56755,1755586443535,23.62,-31.8,-42.07,812,768,793,876,874,34.48275862068966,-0.398,-0.48,0.781
56785,1755586443564,23.61,-31.97,-42.22,814,774,822,866,880,33.333333333333336,-0.394,-0.479,0.778
56814,1755586443594,23.51,-32.17,-42.41,812,765,821,873,875,34.48275862068966,-0.396,-0.482,0.777
56834,1755586443614,23.42,-32.27,-42.5,816,768,817,879,876,50.0,-0.401,-0.486,0.778
56864,1755586443643,23.41,-32.31,-42.53,816,771,822,884,875,33.333333333333336,-0.404,-0.49,0.785
56893,1755586443673,23.44,-32.32,-42.54,816,767,820,869,876,34.48275862068966,-0.401,-0.49,0.784
56923,1755586443703,23.39,-32.38,-42.62,810,775,821,872,876,33.333333333333336,-0.396,-0.491,0.779
56953,1755586443732,23.24,-32.45,-42.73,815,769,828,872,867,33.333333333333336,-0.396,-0.493,0.78
56982,1755586443762,23.11,-32.51,-42.81,812,770,814,865,876,34.48275862068966,-0.395,-0.493,0.782
57012,1755586443792,23.07,-32.56,-42.88,816,772,803,882,868,33.333333333333336,-0.393,-0.496,0.785
57042,1755586443821,22.99,-32.51,-42.9,815,766,826,872,876,33.333333333333336,-0.391,-0.499,0.784
57071,1755586443851,22.91,-32.45,-42.93,813,770,823,868,862,34.48275862068966,-0.39,-0.498,0.783
57101,1755586443881,22.86,-32.42,-42.97,813,769,827,868,874,33.333333333333336,-0.388,-0.497,0.782
57130,1755586443910,22.79,-32.42,-43.0,808,777,818,874,876,34.48275862068966,-0.387,-0.499,0.782
57160,1755586443940,22.73,-32.51,-43.05,811,772,825,860,890,33.333333333333336,-0.384,-0.499,0.778
57189,1755586443969,22.66,-32.55,-43.08,812,778,815,864,873,34.48275862068966,-0.381,-0.5,0.783
57219,1755586443999,22.7,-32.54,-43.1,817,770,812,877,875,33.333333333333336,-0.38,-0.501,0.786
57249,1755586444028,22.7,-32.51,-43.11,812,770,820,865,884,33.333333333333336,-0.38,-0.501,0.782
57278,1755586444058,22.7,-32.57,-43.14,811,769,828,863,869,34.48275862068966,-0.382,-0.5,0.78
57307,1755586444087,22.67,-32.57,-43.15,816,764,819,876,876,34.48275862068966,-0.382,-0.5,0.782
57337,1755586444116,22.74,-32.59,-43.13,816,768,828,865,862,33.333333333333336,-0.38,-0.501,0.783
57366,1755586444146,22.73,-32.6,-43.14,817,776,817,866,875,34.48275862068966,-0.378,-0.501,0.779
57396,1755586444176,22.72,-32.68,-43.19,812,768,822,872,885,33.333333333333336,-0.38,-0.501,0.779
57426,1755586444206,22.77,-32.71,-43.18,816,769,817,868,877,33.333333333333336,-0.381,-0.502,0.783
57446,1755586444226,22.83,-32.71,-43.17,812,771,833,870,882,50.0,-0.383,-0.504,0.784
57476,1755586444255,22.85,-32.71,-43.17,814,773,828,869,874,33.333333333333336,-0.381,-0.504,0.78
57505,1755586444285,22.8,-32.72,-43.19,812,775,811,865,875,34.48275862068966,-0.381,-0.504,0.78
57535,1755586444314,22.79,-32.74,-43.2,816,764,824,869,872,33.333333333333336,-0.381,-0.504,0.781
57564,1755586444344,22.82,-32.75,-43.19,815,773,816,881,873,34.48275862068966,-0.382,-0.503,0.78
57594,1755586444374,22.82,-32.74,-43.19,815,770,821,862,875,33.333333333333336,-0.38,-0.503,0.781
57624,1755586444403,22.85,-32.74,-43.2,815,773,814,880,870,33.333333333333336,-0.38,-0.503,0.781
57653,1755586444433,22.84,-32.78,-43.23,817,770,819,875,872,34.48275862068966,-0.381,-0.503,0.777
57683,1755586444463,22.85,-32.81,-43.24,816,767,821,871,873,33.333333333333336,-0.384,-0.504,0.778
57713,1755586444492,22.85,-32.79,-43.23,814,774,815,872,872,33.333333333333336,-0.385,-0.504,0.78
57742,1755586444521,22.9,-32.78,-43.21,809,774,818,871,875,34.48275862068966,-0.383,-0.505,0.778
57771,1755586444551,22.91,-32.8,-43.2,816,777,806,855,872,34.48275862068966,-0.381,-0.505,0.779
57801,1755586444581,22.99,-32.8,-43.2,812,768,822,868,874,33.333333333333336,-0.381,-0.501,0.78
57821,1755586444601,22.97,-32.78,-43.23,809,775,826,871,881,50.0,-0.381,-0.498,0.778
57851,1755586444630,23.01,-32.82,-43.26,818,770,821,868,876,33.333333333333336,-0.384,-0.5,0.776
57880,1755586444660,23.03,-32.87,-43.26,817,771,817,871,883,34.48275862068966,-0.385,-0.502,0.777
57910,1755586444689,23.07,-32.84,-43.25,813,767,819,881,877,33.333333333333336,-0.386,-0.506,0.779
57939,1755586444719,23.05,-32.8,-43.25,815,765,830,882,865,34.48275862068966,-0.384,-0.504,0.777
57969,1755586444749,23.09,-32.83,-43.26,815,774,818,871,875,33.333333333333336,-0.385,-0.501,0.775
57999,1755586444778,23.08,-32.88,-43.29,818,769,825,874,876,33.333333333333336,-0.384,-0.501,0.776
58028,1755586444808,23.14,-32.89,-43.29,818,772,814,860,870,34.48275862068966,-0.386,-0.502,0.778
58058,1755586444837,23.15,-32.89,-43.31,817,770,831,871,874,33.333333333333336,-0.388,-0.503,0.778
58087,1755586444867,23.19,-32.91,-43.32,816,771,815,874,874,34.48275862068966,-0.388,-0.5,0.772
58117,1755586444897,23.19,-32.98,-43.36,811,771,823,859,876,33.333333333333336,-0.389,-0.501,0.773
58147,1755586444926,23.2,-32.99,-43.37,812,769,831,880,881,33.333333333333336,-0.39,-0.506,0.779
58176,1755586444956,23.26,-32.93,-43.36,817,761,817,872,909,34.48275862068966,-0.39,-0.505,0.774
58205,1755586444985,23.26,-32.9,-43.34,812,764,813,871,868,34.48275862068966,-0.388,-0.502,0.771
58235,1755586445015,23.26,-32.94,-43.39,810,767,818,866,871,33.333333333333336,-0.39,-0.498,0.769
58265,1755586445044,23.21,-33.0,-43.46,814,765,814,871,876,33.333333333333336,-0.393,-0.5,0.77
58294,1755586445073,23.24,-33.01,-43.49,813,762,816,871,865,34.48275862068966,-0.393,-0.505,0.775
58323,1755586445103,23.29,-33.01,-43.53,815,774,806,869,884,34.48275862068966,-0.391,-0.504,0.773
58353,1755586445133,23.25,-33.04,-43.59,815,766,832,867,863,33.333333333333336,-0.392,-0.503,0.769
58383,1755586445162,23.27,-33.12,-43.63,815,771,822,879,870,33.333333333333336,-0.391,-0.504,0.772
58412,1755586445192,23.32,-33.13,-43.64,814,769,824,874,853,34.48275862068966,-0.393,-0.507,0.775
58442,1755586445221,23.3,-33.11,-43.64,812,774,826,871,877,33.333333333333336,-0.393,-0.507,0.774
58471,1755586445251,23.31,-33.12,-43.63,817,772,813,881,886,34.48275862068966,-0.391,-0.506,0.771
58501,1755586445281,23.28,-33.12,-43.65,812,770,821,865,865,33.333333333333336,-0.391,-0.507,0.774
58531,1755586445311,23.28,-33.1,-43.66,814,762,802,870,865,33.333333333333336,-0.391,-0.507,0.776
58561,1755586445340,23.29,-33.08,-43.66,808,769,831,877,883,33.333333333333336,-0.389,-0.505,0.774
58590,1755586445370,23.31,-33.08,-43.66,813,769,827,880,870,34.48275862068966,-0.39,-0.505,0.771
58620,1755586445399,23.29,-33.11,-43.67,813,773,822,862,869,33.333333333333336,-0.392,-0.507,0.771
58649,1755586445429,23.27,-33.13,-43.67,819,767,821,873,872,34.48275862068966,-0.393,-0.508,0.773
58669,1755586445449,23.24,-33.12,-43.68,817,777,821,870,873,50.0,-0.39,-0.506,0.774
58699,1755586445478,23.27,-33.08,-43.68,812,779,833,881,872,33.333333333333336,-0.391,-0.503,0.775
58728,1755586445508,23.23,-33.12,-43.72,813,770,817,868,873,34.48275862068966,-0.391,-0.5,0.771
58758,1755586445537,23.25,-33.17,-43.74,817,770,821,876,870,33.333333333333336,-0.393,-0.505,0.773
58787,1755586445567,23.26,-33.13,-43.71,809,768,817,880,870,34.48275862068966,-0.394,-0.51,0.776
58817,1755586445596,23.31,-33.06,-43.71,810,763,818,871,872,33.333333333333336,-0.392,-0.507,0.774
58846,1755586445626,23.23,-33.03,-43.74,810,765,825,872,874,34.48275862068966,-0.394,-0.501,0.768
58876,1755586445656,23.16,-33.11,-43.78,814,764,814,862,872,33.333333333333336,-0.397,-0.5,0.766
58906,1755586445685,23.15,-33.14,-43.76,818,762,814,877,871,33.333333333333336,-0.398,-0.507,0.774
58935,1755586445715,23.12,-33.08,-43.7,813,770,818,875,869,34.48275862068966,-0.396,-0.507,0.774
58965,1755586445744,23.11,-33.12,-43.68,815,770,823,865,871,33.333333333333336,-0.389,-0.505,0.772
58994,1755586445774,23.11,-33.15,-43.67,816,768,822,878,875,34.48275862068966,-0.388,-0.499,0.772
59024,1755586445803,23.06,-33.19,-43.7,808,770,827,872,875,33.333333333333336,-0.39,-0.5,0.773
59053,1755586445833,23.06,-33.21,-43.71,811,776,823,865,877,34.48275862068966,-0.391,-0.509,0.779
59083,1755586445863,23.17,-33.15,-43.68,815,770,822,868,871,33.333333333333336,-0.391,-0.506,0.775
59113,1755586445893,23.13,-33.17,-43.72,812,771,822,874,873,33.333333333333336,-0.39,-0.496,0.767
59142,1755586445922,23.14,-33.22,-43.76,815,770,808,873,872,34.48275862068966,-0.394,-0.499,0.774
59172,1755586445952,23.16,-33.19,-43.76,818,765,812,865,870,33.333333333333336,-0.395,-0.506,0.779
59201,1755586445981,23.2,-33.13,-43.73,812,775,815,875,875,34.48275862068966,-0.389,-0.508,0.775
59231,1755586446010,23.2,-33.09,-43.74,810,775,814,868,871,33.333333333333336,-0.389,-0.504,0.772
59260,1755586446040,23.17,-33.11,-43.79,814,760,821,866,870,34.48275862068966,-0.394,-0.498,0.769
59290,1755586446070,23.17,-33.17,-43.81,811,775,813,874,866,33.333333333333336,-0.398,-0.499,0.772
59310,1755586446090,23.17,-33.18,-43.81,808,771,822,869,869,50.0,-0.397,-0.503,0.779
59340,1755586446119,23.22,-33.1,-43.8,820,772,824,871,880,33.333333333333336,-0.39,-0.503,0.78
59369,1755586446149,23.23,-33.04,-43.81,812,769,819,867,874,34.48275862068966,-0.388,-0.501,0.774
59399,1755586446179,23.17,-33.1,-43.87,810,774,814,875,872,33.333333333333336,-0.393,-0.499,0.77
59428,1755586446208,23.14,-33.14,-43.9,816,762,815,877,873,34.48275862068966,-0.398,-0.502,0.775
59458,1755586446238,23.21,-33.09,-43.88,813,773,819,874,875,33.333333333333336,-0.396,-0.503,0.777
59487,1755586446267,23.24,-33.01,-43.87,813,773,827,865,874,34.48275862068966,-0.392,-0.501,0.772
59517,1755586446297,23.19,-33.05,-43.93,814,770,823,861,876,33.333333333333336,-0.393,-0.5,0.767
59546,1755586446326,23.08,-33.09,-44.0,812,776,821,863,874,34.48275862068966,-0.396,-0.5,0.769
59576,1755586446356,23.11,-33.08,-44.01,811,768,826,871,869,33.333333333333336,-0.398,-0.502,0.776
59606,1755586446386,23.17,-33.03,-44.0,815,770,817,876,874,33.333333333333336,-0.395,-0.502,0.777
59626,1755586446405,23.16,-33.0,-44.02,811,773,813,871,873,50.0,-0.391,-0.5,0.773
59655,1755586446435,23.13,-33.03,-44.06,813,789,823,872,877,34.48275862068966,-0.393,-0.498,0.77
59685,1755586446464,23.15,-33.06,-44.08,810,770,822,871,881,33.333333333333336,-0.397,-0.5,0.773
59714,1755586446494,23.17,-33.01,-44.06,822,769,823,862,869,34.48275862068966,-0.397,-0.504,0.781
59744,1755586446523,23.2,-32.91,-44.03,816,774,818,874,871,33.333333333333336,-0.394,-0.503,0.779
59773,1755586446553,23.19,-32.95,-44.06,814,761,826,874,901,34.48275862068966,-0.392,-0.494,0.765
59803,1755586446583,23.1,-33.1,-44.12,812,761,827,875,873,33.333333333333336,-0.396,-0.495,0.766
59833,1755586446612,23.09,-33.12,-44.13,812,774,823,871,870,33.333333333333336,-0.398,-0.508,0.782
59862,1755586446642,23.23,-32.99,-44.06,812,769,828,878,864,34.48275862068966,-0.394,-0.507,0.782
59892,1755586446671,23.22,-32.96,-44.08,814,769,827,868,885,33.333333333333336,-0.391,-0.495,0.768
59921,1755586446701,23.12,-33.08,-44.18,817,774,820,880,881,34.48275862068966,-0.396,-0.497,0.771
59951,1755586446730,23.14,-33.15,-44.18,811,767,821,867,899,33.333333333333336,-0.398,-0.506,0.784
59980,1755586446760,23.27,-33.0,-44.11,816,768,814,868,874,34.48275862068966,-0.393,-0.51,0.788
60010,1755586446789,23.27,-32.89,-44.13,815,772,826,873,873,33.333333333333336,-0.387,-0.501,0.775
60039,1755586446819,23.2,-32.98,-44.25,821,768,822,869,879,34.48275862068966,-0.391,-0.494,0.766
60068,1755586446848,23.11,-33.06,-44.31,812,765,817,875,880,34.48275862068966,-0.402,-0.501,0.772
60098,1755586446878,23.22,-33.06,-44.23,809,774,815,863,869,33.333333333333336,-0.403,-0.507,0.78
60128,1755586446907,23.27,-32.95,-44.17,815,778,820,876,864,33.333333333333336,-0.394,-0.504,0.779
60157,1755586446937,23.2,-32.91,-44.21,814,764,820,864,869,34.48275862068966,-0.386,-0.496,0.771
60187,1755586446966,23.17,-32.99,-44.3,810,769,825,871,865,33.333333333333336,-0.39,-0.492,0.769
60216,1755586446996,23.12,-33.03,-44.36,812,768,819,870,875,34.48275862068966,-0.399,-0.498,0.775
60246,1755586447025,23.17,-33.0,-44.31,810,774,803,871,870,33.333333333333336,-0.4,-0.503,0.779
60275,1755586447055,23.21,-32.97,-44.27,815,766,820,875,875,34.48275862068966,-0.392,-0.501,0.776
60305,1755586447084,23.12,-33.0,-44.33,806,767,827,866,875,33.333333333333336,-0.388,-0.494,0.771
60334,1755586447114,23.07,-33.02,-44.39,812,776,825,856,871,34.48275862068966,-0.391,-0.499,0.778
60364,1755586447143,23.1,-32.91,-44.37,818,767,816,871,883,33.333333333333336,-0.396,-0.504,0.779
60393,1755586447173,23.14,-32.83,-44.32,811,761,812,860,866,34.48275862068966,-0.392,-0.497,0.771
60423,1755586447203,23.14,-32.85,-44.35,814,768,811,867,881,33.333333333333336,-0.391,-0.49,0.77
60453,1755586447233,23.08,-32.89,-44.41,817,767,813,871,870,33.333333333333336,-0.395,-0.491,0.771
60483,1755586447263,23.1,-32.91,-44.41,811,762,817,867,872,33.333333333333336,-0.395,-0.501,0.778
60512,1755586447292,23.21,-32.84,-44.36,816,773,806,867,865,34.48275862068966,-0.393,-0.501,0.779
60542,1755586447322,23.17,-32.83,-44.39,816,761,815,873,873,33.333333333333336,-0.389,-0.491,0.77
60572,1755586447352,23.1,-32.94,-44.48,814,770,830,868,892,33.333333333333336,-0.392,-0.492,0.77
60601,1755586447381,23.07,-32.97,-44.49,809,770,802,869,871,34.48275862068966,-0.397,-0.5,0.779
60631,1755586447411,23.13,-32.9,-44.44,819,769,820,868,871,33.333333333333336,-0.395,-0.502,0.783
60660,1755586447440,23.17,-32.86,-44.46,813,765,830,871,867,34.48275862068966,-0.386,-0.495,0.778
60690,1755586447469,23.13,-32.85,-44.55,816,772,814,872,881,33.333333333333336,-0.388,-0.493,0.772
60719,1755586447499,23.06,-32.89,-44.61,813,768,829,865,876,34.48275862068966,-0.396,-0.498,0.772
60749,1755586447528,23.13,-32.88,-44.59,813,778,805,874,884,33.333333333333336,-0.397,-0.504,0.779
60778,1755586447558,23.18,-32.8,-44.57,816,762,820,866,870,34.48275862068966,-0.387,-0.497,0.773
60808,1755586447588,23.11,-32.81,-44.64,812,767,822,874,877,33.333333333333336,-0.389,-0.496,0.772
60828,1755586447608,23.07,-32.77,-44.67,818,766,819,874,885,50.0,-0.391,-0.498,0.777
60857,1755586447637,23.17,-32.73,-44.66,817,771,814,866,872,34.48275862068966,-0.394,-0.499,0.78
60887,1755586447667,23.16,-32.71,-44.67,811,770,830,870,872,33.333333333333336,-0.392,-0.495,0.775
60917,1755586447697,23.14,-32.77,-44.72,813,771,826,870,870,33.333333333333336,-0.388,-0.495,0.772
60946,1755586447726,23.13,-32.83,-44.77,817,767,817,865,875,34.48275862068966,-0.39,-0.497,0.775
60976,1755586447756,23.11,-32.81,-44.78,813,772,819,872,867,33.333333333333336,-0.394,-0.498,0.777
61005,1755586447785,23.11,-32.81,-44.77,810,773,819,872,872,34.48275862068966,-0.395,-0.5,0.776
61035,1755586447815,23.15,-32.79,-44.77,810,767,824,861,872,33.333333333333336,-0.39,-0.499,0.778
61065,1755586447845,23.12,-32.78,-44.82,813,766,821,861,872,33.333333333333336,-0.389,-0.494,0.775
61085,1755586447865,23.1,-32.79,-44.87,811,770,808,867,871,50.0,-0.393,-0.493,0.771
61114,1755586447894,23.09,-32.88,-44.9,817,771,836,871,876,34.48275862068966,-0.397,-0.496,0.771
61144,1755586447924,23.1,-32.89,-44.91,813,772,818,864,865,33.333333333333336,-0.396,-0.5,0.777
61174,1755586447954,23.09,-32.81,-44.89,814,767,825,873,862,33.333333333333336,-0.393,-0.498,0.775
61204,1755586447983,23.1,-32.82,-44.91,817,766,822,871,870,33.333333333333336,-0.39,-0.494,0.77
61233,1755586448013,23.04,-32.87,-44.95,812,768,819,871,869,34.48275862068966,-0.393,-0.495,0.773
