timestamp_ms,recv_timestamp_ms,pitch,roll,yaw,flex1,flex2,flex3,flex4,flex5,sampling_hz,accel_x,accel_y,accel_z
34060,1755585531068,17.92,37.03,-10.13,790,844,772,750,812,34.48275862068966,-0.29,0.584,0.772
34089,1755585531097,17.95,37.11,-10.13,789,837,771,754,812,34.48275862068966,-0.292,0.585,0.77
34119,1755585531127,17.95,37.11,-10.13,784,846,776,753,811,33.333333333333336,-0.291,0.583,0.765
34148,1755585531157,17.94,37.08,-10.1,795,841,775,753,804,34.48275862068966,-0.29,0.585,0.767
34178,1755585531187,17.92,37.07,-10.1,791,858,788,756,806,33.333333333333336,-0.288,0.587,0.767
34208,1755585531217,17.9,37.1,-10.09,799,852,762,753,811,33.333333333333336,-0.288,0.587,0.77
34228,1755585531236,17.89,37.13,-10.09,788,844,769,750,807,50.0,-0.29,0.586,0.77
34257,1755585531265,17.89,37.14,-10.1,789,838,783,756,811,34.48275862068966,-0.29,0.587,0.764
34287,1755585531295,17.85,37.09,-10.1,794,845,767,755,806,33.333333333333336,-0.288,0.587,0.762
34316,1755585531324,17.81,37.1,-10.1,793,842,773,751,815,34.48275862068966,-0.286,0.59,0.767
34346,1755585531354,17.81,37.15,-10.12,794,845,769,760,803,33.333333333333336,-0.286,0.588,0.766
34376,1755585531384,17.8,37.15,-10.14,794,846,773,749,810,33.333333333333336,-0.286,0.587,0.763
34405,1755585531413,17.76,37.14,-10.14,794,855,763,756,813,34.48275862068966,-0.284,0.587,0.766
34435,1755585531443,17.77,37.16,-10.19,787,848,779,763,812,33.333333333333336,-0.286,0.589,0.768
34464,1755585531472,17.79,37.19,-10.23,792,847,776,755,795,34.48275862068966,-0.286,0.589,0.766
34494,1755585531502,17.78,37.14,-10.27,790,855,771,752,811,33.333333333333336,-0.284,0.587,0.762
34523,1755585531532,17.78,37.09,-10.33,794,825,778,754,813,34.48275862068966,-0.283,0.587,0.767
34553,1755585531561,17.79,37.09,-10.41,794,846,767,752,806,33.333333333333336,-0.283,0.588,0.77
34582,1755585531590,17.8,37.12,-10.48,795,841,778,753,800,34.48275862068966,-0.285,0.588,0.768
34612,1755585531620,17.77,37.11,-10.52,790,844,767,753,807,33.333333333333336,-0.285,0.588,0.765
34641,1755585531649,17.81,37.08,-10.58,795,845,771,753,812,34.48275862068966,-0.289,0.587,0.767
34671,1755585531679,17.81,37.1,-10.58,792,850,771,759,807,33.333333333333336,-0.29,0.587,0.77
34700,1755585531708,17.81,37.13,-10.6,786,848,770,755,802,34.48275862068966,-0.284,0.587,0.771
34729,1755585531737,17.83,37.14,-10.66,792,858,787,754,803,34.48275862068966,-0.283,0.586,0.772
34759,1755585531767,17.81,37.18,-10.7,789,846,767,755,811,33.333333333333336,-0.283,0.584,0.771
34788,1755585531796,17.87,37.16,-10.8,790,847,767,757,810,34.48275862068966,-0.284,0.584,0.764
34818,1755585531826,17.86,37.11,-10.87,792,846,772,756,802,33.333333333333336,-0.287,0.587,0.766
34847,1755585531855,17.86,37.1,-10.95,795,834,766,749,808,34.48275862068966,-0.289,0.588,0.768
34877,1755585531885,17.9,37.11,-10.52,794,852,770,752,808,33.333333333333336,-0.29,0.585,0.77
34906,1755585531915,17.89,37.11,-10.55,789,839,762,755,807,34.48275862068966,-0.289,0.587,0.766
34936,1755585531944,17.95,37.08,-10.64,793,846,774,756,804,33.333333333333336,-0.289,0.586,0.763
34966,1755585531974,17.95,37.0,-10.68,788,842,772,751,807,33.333333333333336,-0.294,0.585,0.762
34995,1755585532004,18.02,36.94,-10.75,798,842,769,755,801,34.48275862068966,-0.294,0.585,0.759
35025,1755585532033,18.1,36.84,-10.86,800,845,771,754,808,33.333333333333336,-0.297,0.583,0.758
35054,1755585532062,18.07,36.69,-10.86,790,845,765,760,802,34.48275862068966,-0.298,0.582,0.762
35084,1755585532092,18.05,36.6,-10.86,794,854,768,756,805,33.333333333333336,-0.294,0.582,0.767
35113,1755585532121,18.09,36.58,-10.94,791,847,769,752,800,34.48275862068966,-0.292,0.582,0.771
35143,1755585532151,18.07,36.59,-10.96,794,850,788,753,804,33.333333333333336,-0.294,0.579,0.77
35172,1755585532180,18.1,36.49,-11.0,790,835,770,752,809,34.48275862068966,-0.297,0.576,0.767
35201,1755585532210,18.15,36.38,-11.0,784,849,773,755,809,34.48275862068966,-0.3,0.578,0.769
35231,1755585532239,18.12,36.39,-10.98,796,855,772,753,834,33.333333333333336,-0.3,0.579,0.77
35261,1755585532269,18.13,36.36,-10.99,790,843,772,759,811,33.333333333333336,-0.299,0.574,0.774
35290,1755585532298,18.19,36.31,-10.96,786,846,778,752,809,34.48275862068966,-0.297,0.574,0.774
35320,1755585532328,18.21,36.27,-10.95,796,840,763,753,807,33.333333333333336,-0.295,0.576,0.772
35349,1755585532357,18.2,36.22,-10.94,796,838,775,757,801,34.48275862068966,-0.294,0.574,0.774
35378,1755585532387,18.26,36.14,-10.96,797,841,775,753,808,34.48275862068966,-0.299,0.573,0.776
35408,1755585532416,18.23,36.14,-10.93,791,847,762,755,807,33.333333333333336,-0.295,0.574,0.775
35437,1755585532446,18.23,36.1,-10.96,789,841,775,748,810,34.48275862068966,-0.292,0.572,0.776
35467,1755585532475,18.28,36.01,-11.0,788,848,769,752,803,33.333333333333336,-0.295,0.571,0.777
35496,1755585532504,18.29,35.97,-11.02,793,849,770,758,808,34.48275862068966,-0.297,0.571,0.776
35526,1755585532534,18.32,35.89,-11.03,793,844,778,756,808,33.333333333333336,-0.298,0.57,0.778
35555,1755585532563,18.39,35.93,-11.03,786,852,774,750,807,34.48275862068966,-0.298,0.569,0.781
35585,1755585532593,18.42,35.94,-11.04,790,848,769,749,802,33.333333333333336,-0.294,0.569,0.776
35614,1755585532622,18.37,35.87,-11.09,788,849,773,748,833,34.48275862068966,-0.288,0.571,0.775
35644,1755585532652,18.43,35.8,-11.21,794,855,766,754,811,33.333333333333336,-0.293,0.569,0.779
35673,1755585532681,18.42,35.84,-11.23,788,843,776,758,810,34.48275862068966,-0.297,0.568,0.778
35703,1755585532711,18.42,35.8,-11.28,793,846,769,755,809,33.333333333333336,-0.297,0.567,0.776
35732,1755585532740,18.45,35.76,-11.36,787,853,771,749,811,34.48275862068966,-0.301,0.564,0.778
35761,1755585532769,18.47,35.74,-11.39,794,852,776,763,808,34.48275862068966,-0.303,0.563,0.777
35791,1755585532799,18.51,35.72,-11.45,791,844,772,756,802,33.333333333333336,-0.302,0.566,0.777
35820,1755585532828,18.52,35.7,-11.5,793,854,775,754,802,34.48275862068966,-0.303,0.565,0.774
35850,1755585532858,18.56,35.6,-11.53,795,854,771,749,806,33.333333333333336,-0.303,0.564,0.776
35879,1755585532888,18.57,35.58,-11.59,794,851,771,752,813,34.48275862068966,-0.3,0.565,0.777
35909,1755585532917,18.59,35.55,-11.65,794,844,777,757,812,33.333333333333336,-0.304,0.564,0.778
35938,1755585532947,18.6,35.49,-11.68,791,854,772,750,810,34.48275862068966,-0.307,0.561,0.78
35968,1755585532976,18.62,35.5,-11.7,788,848,773,758,813,33.333333333333336,-0.307,0.559,0.784
35998,1755585533006,18.62,35.58,-11.72,787,845,774,759,816,33.333333333333336,-0.303,0.561,0.782
36027,1755585533035,18.63,35.56,-11.78,791,852,770,756,804,34.48275862068966,-0.3,0.561,0.777
36056,1755585533065,18.69,35.5,-11.86,794,846,775,754,811,34.48275862068966,-0.304,0.56,0.778
36086,1755585533094,18.72,35.49,-11.89,794,844,770,758,809,33.333333333333336,-0.309,0.56,0.781
36115,1755585533124,18.73,35.52,-11.92,787,853,786,756,813,34.48275862068966,-0.309,0.559,0.779
36145,1755585533153,18.75,35.53,-11.94,786,843,773,753,810,33.333333333333336,-0.311,0.557,0.779
36174,1755585533182,18.75,35.54,-11.93,796,850,771,755,809,34.48275862068966,-0.309,0.559,0.779
36204,1755585533212,18.85,35.55,-12.0,798,851,771,757,808,33.333333333333336,-0.307,0.561,0.778
36233,1755585533241,18.84,35.57,-12.03,794,846,765,749,810,34.48275862068966,-0.309,0.561,0.775
36263,1755585533271,18.85,35.48,-12.09,795,851,770,757,801,33.333333333333336,-0.311,0.561,0.772
36292,1755585533300,18.88,35.4,-12.15,795,842,776,752,803,34.48275862068966,-0.31,0.562,0.776
36322,1755585533330,18.94,35.4,-12.25,792,851,772,752,813,33.333333333333336,-0.311,0.561,0.777
36351,1755585533359,18.97,35.37,-12.29,794,844,771,751,809,34.48275862068966,-0.314,0.558,0.774
36381,1755585533389,18.99,35.25,-12.34,790,844,786,756,811,33.333333333333336,-0.314,0.556,0.776
36411,1755585533419,19.02,35.17,-12.38,792,847,769,759,808,33.333333333333336,-0.312,0.556,0.78
36440,1755585533448,18.98,35.17,-12.39,795,851,762,754,805,34.48275862068966,-0.309,0.555,0.782
36469,1755585533477,19.02,35.14,-12.47,790,848,768,751,809,34.48275862068966,-0.31,0.553,0.782
36499,1755585533507,19.0,35.11,-12.53,796,841,773,757,812,33.333333333333336,-0.311,0.551,0.782
36528,1755585533536,19.0,35.13,-12.6,792,848,776,749,821,34.48275862068966,-0.311,0.551,0.786
36558,1755585533566,19.04,35.15,-12.65,787,851,772,758,806,33.333333333333336,-0.313,0.551,0.786
36587,1755585533595,19.04,35.15,-12.7,788,848,775,758,806,34.48275862068966,-0.312,0.551,0.781
36617,1755585533625,19.09,35.12,-12.75,797,840,773,759,808,33.333333333333336,-0.318,0.549,0.78
36646,1755585533654,19.07,35.13,-12.74,787,867,771,755,804,34.48275862068966,-0.321,0.549,0.778
36675,1755585533684,19.12,35.07,-12.73,795,849,762,758,809,34.48275862068966,-0.322,0.55,0.776
36705,1755585533713,19.17,34.98,-12.74,790,848,769,746,806,33.333333333333336,-0.321,0.549,0.78
36735,1755585533743,19.2,35.0,-12.74,787,850,776,751,809,33.333333333333336,-0.319,0.549,0.785
36764,1755585533772,19.19,35.09,-12.77,796,847,768,758,801,34.48275862068966,-0.316,0.549,0.784
36793,1755585533802,19.17,35.09,-12.8,790,845,774,750,813,34.48275862068966,-0.319,0.546,0.78
36823,1755585533831,19.2,35.02,-12.82,790,845,774,756,814,33.333333333333336,-0.318,0.55,0.779
36852,1755585533861,19.28,34.92,-12.89,788,849,782,754,804,34.48275862068966,-0.322,0.549,0.783
36882,1755585533890,19.28,34.92,-12.9,793,877,765,765,805,33.333333333333336,-0.323,0.549,0.782
36911,1755585533919,19.31,34.89,-12.94,792,851,776,756,808,34.48275862068966,-0.32,0.55,0.781
36941,1755585533949,19.3,34.89,-12.93,795,843,773,754,841,33.333333333333336,-0.321,0.547,0.785
36970,1755585533978,19.34,34.88,-12.94,804,855,777,753,810,34.48275862068966,-0.32,0.548,0.784
36999,1755585534007,19.41,34.84,-12.97,793,845,773,748,810,34.48275862068966,-0.32,0.547,0.78
37029,1755585534037,19.38,34.76,-12.96,795,834,772,748,800,33.333333333333336,-0.321,0.547,0.78
37058,1755585534066,19.38,34.75,-12.97,790,853,764,755,807,34.48275862068966,-0.323,0.548,0.784
37088,1755585534096,19.43,34.76,-12.96,793,849,773,754,802,33.333333333333336,-0.324,0.547,0.789
37117,1755585534125,19.46,34.83,-12.96,793,849,763,754,809,34.48275862068966,-0.321,0.546,0.788
37146,1755585534155,19.42,34.79,-12.95,795,848,771,757,812,34.48275862068966,-0.317,0.544,0.781
37176,1755585534184,19.45,34.67,-13.0,791,861,764,754,807,33.333333333333336,-0.32,0.545,0.782
37206,1755585534214,19.45,34.66,-12.98,789,846,767,755,794,33.333333333333336,-0.322,0.547,0.789
37235,1755585534244,19.46,34.71,-13.01,787,854,770,755,841,34.48275862068966,-0.317,0.546,0.789
37256,1755585534263,19.49,34.71,-13.05,789,844,773,756,806,47.61904761904762,-0.317,0.546,0.784
37285,1755585534293,19.46,34.65,-13.07,787,845,772,756,812,34.48275862068966,-0.318,0.546,0.784
37314,1755585534322,19.46,34.62,-13.1,786,842,773,749,807,34.48275862068966,-0.319,0.547,0.786
37344,1755585534352,19.63,34.56,-13.23,788,846,770,750,807,33.333333333333336,-0.323,0.545,0.788
37373,1755585534382,19.69,34.55,-13.25,794,839,771,756,805,34.48275862068966,-0.325,0.544,0.785
37403,1755585534411,19.69,34.55,-13.23,796,847,775,752,808,33.333333333333336,-0.329,0.542,0.787
37433,1755585534441,19.74,34.58,-13.22,795,853,767,748,807,33.333333333333336,-0.33,0.539,0.789
37462,1755585534470,19.78,34.57,-13.18,790,850,771,752,807,34.48275862068966,-0.326,0.541,0.785
37492,1755585534500,19.81,34.53,-13.18,791,852,778,754,812,33.333333333333336,-0.321,0.546,0.782
37521,1755585534529,19.89,34.46,-13.27,790,849,775,753,806,34.48275862068966,-0.319,0.544,0.78
37550,1755585534559,19.96,34.4,-13.35,792,850,775,760,808,34.48275862068966,-0.322,0.541,0.785
37580,1755585534588,19.97,34.43,-13.39,794,849,778,754,817,33.333333333333336,-0.323,0.542,0.787
37610,1755585534618,20.02,34.4,-13.48,791,850,769,757,812,33.333333333333336,-0.322,0.543,0.781
37639,1755585534647,20.01,34.3,-13.55,790,848,772,751,801,34.48275862068966,-0.325,0.543,0.779
37669,1755585534677,20.01,34.22,-13.6,791,846,770,757,810,33.333333333333336,-0.33,0.543,0.785
37698,1755585534707,19.99,34.29,-13.58,789,855,778,759,806,34.48275862068966,-0.335,0.542,0.79
37728,1755585534736,19.98,34.31,-13.59,795,848,773,753,810,33.333333333333336,-0.333,0.539,0.786
37757,1755585534765,20.01,34.25,-13.61,790,839,769,759,810,34.48275862068966,-0.329,0.537,0.789
37787,1755585534795,19.99,34.27,-13.64,789,848,770,758,809,33.333333333333336,-0.328,0.538,0.792
37816,1755585534825,20.01,34.29,-13.69,793,844,768,753,807,34.48275862068966,-0.329,0.538,0.789
37846,1755585534854,20.01,34.29,-13.73,793,855,772,751,828,33.333333333333336,-0.328,0.539,0.787
37875,1755585534884,20.0,34.29,-13.77,797,838,772,756,808,34.48275862068966,-0.329,0.54,0.787
37905,1755585534913,20.02,34.29,-13.86,788,848,762,756,809,33.333333333333336,-0.328,0.539,0.786
37934,1755585534943,20.02,34.27,-13.89,786,855,773,755,803,34.48275862068966,-0.331,0.538,0.785
37964,1755585534972,20.04,34.2,-13.94,797,842,774,760,818,33.333333333333336,-0.328,0.537,0.783
37994,1755585535002,20.08,34.16,-14.05,794,848,773,755,813,33.333333333333336,-0.327,0.54,0.784
38023,1755585535031,20.1,34.14,-14.14,791,839,770,756,807,34.48275862068966,-0.331,0.537,0.787
38053,1755585535061,20.16,34.09,-14.2,795,842,767,756,802,33.333333333333336,-0.334,0.535,0.79
38082,1755585535091,20.24,34.09,-14.28,790,845,768,751,807,34.48275862068966,-0.335,0.532,0.786
38112,1755585535120,20.29,34.05,-14.34,796,853,770,758,802,33.333333333333336,-0.338,0.534,0.784
38142,1755585535150,20.28,34.01,-14.37,786,854,770,755,805,33.333333333333336,-0.339,0.535,0.787
38162,1755585535170,20.26,34.01,-14.38,791,845,772,752,815,50.0,-0.341,0.535,0.79
38191,1755585535199,20.26,34.04,-14.41,790,860,777,754,811,34.48275862068966,-0.337,0.535,0.789
38221,1755585535229,20.32,34.03,-14.49,790,848,772,760,809,33.333333333333336,-0.336,0.532,0.789
38250,1755585535258,20.27,34.02,-14.5,793,857,768,758,809,34.48275862068966,-0.338,0.531,0.786
38280,1755585535288,20.27,33.97,-14.55,798,847,773,749,819,33.333333333333336,-0.339,0.533,0.786
38309,1755585535317,20.29,33.97,-14.56,789,843,772,753,807,34.48275862068966,-0.342,0.532,0.789
38339,1755585535347,20.25,34.0,-14.54,792,842,775,757,810,33.333333333333336,-0.341,0.533,0.787
38368,1755585535376,20.27,33.95,-14.57,791,835,771,758,804,34.48275862068966,-0.34,0.53,0.788
38398,1755585535406,20.26,33.95,-14.55,785,840,767,755,810,33.333333333333336,-0.341,0.53,0.79
38427,1755585535435,20.26,33.92,-14.55,788,850,771,755,809,34.48275862068966,-0.336,0.53,0.791
38457,1755585535465,20.32,33.94,-14.59,796,845,768,759,802,33.333333333333336,-0.338,0.531,0.793
38486,1755585535494,20.28,33.98,-14.57,792,864,767,757,809,34.48275862068966,-0.339,0.53,0.788
38516,1755585535524,20.29,33.93,-14.57,792,853,771,755,811,33.333333333333336,-0.341,0.53,0.786
38545,1755585535553,20.34,33.92,-14.59,798,855,772,752,806,34.48275862068966,-0.34,0.532,0.79
38575,1755585535583,20.32,33.97,-14.61,790,854,770,753,809,33.333333333333336,-0.338,0.532,0.788
38604,1755585535612,20.34,33.95,-14.62,791,848,777,756,806,34.48275862068966,-0.339,0.531,0.789
38634,1755585535642,20.35,33.95,-14.62,795,839,772,756,804,33.333333333333336,-0.338,0.532,0.788
38663,1755585535671,20.32,33.96,-14.63,796,853,769,754,809,34.48275862068966,-0.335,0.533,0.786
38693,1755585535701,20.34,33.92,-14.67,793,848,765,756,808,33.333333333333336,-0.339,0.531,0.789
38722,1755585535731,20.34,33.96,-14.66,797,845,783,757,803,34.48275862068966,-0.339,0.532,0.788
38752,1755585535760,20.35,33.93,-14.67,788,844,772,752,814,33.333333333333336,-0.336,0.533,0.786
38781,1755585535789,20.37,33.9,-14.67,793,845,778,754,813,34.48275862068966,-0.339,0.531,0.788
38811,1755585535819,20.35,33.89,-14.65,796,846,774,753,818,33.333333333333336,-0.337,0.532,0.789
38840,1755585535849,20.41,33.89,-14.7,800,855,777,752,800,34.48275862068966,-0.337,0.531,0.788
38870,1755585535878,20.36,33.9,-14.67,793,848,773,755,822,33.333333333333336,-0.338,0.532,0.788
38899,1755585535907,20.38,33.91,-14.69,788,856,770,761,806,34.48275862068966,-0.337,0.531,0.789
38929,1755585535937,20.41,33.9,-14.71,791,851,776,758,801,33.333333333333336,-0.335,0.533,0.787
38958,1755585535966,20.36,33.92,-14.71,789,846,772,757,810,34.48275862068966,-0.333,0.534,0.788
38988,1755585535996,20.39,33.93,-14.77,787,844,770,752,807,33.333333333333336,-0.333,0.533,0.79
39017,1755585536025,20.4,33.95,-14.81,787,850,777,757,804,34.48275862068966,-0.335,0.532,0.786
39047,1755585536055,20.39,33.91,-14.81,788,836,773,754,807,33.333333333333336,-0.337,0.532,0.784
39076,1755585536084,20.43,33.91,-14.81,790,843,774,753,806,34.48275862068966,-0.338,0.531,0.787
39106,1755585536114,20.43,33.92,-14.82,791,850,776,765,812,33.333333333333336,-0.334,0.533,0.788
39135,1755585536143,20.38,33.94,-14.84,794,854,774,753,806,34.48275862068966,-0.331,0.534,0.789
39165,1755585536173,20.39,33.93,-14.89,800,852,772,755,806,33.333333333333336,-0.334,0.53,0.787
39194,1755585536202,20.41,33.89,-14.91,790,847,768,750,808,34.48275862068966,-0.337,0.532,0.786
39223,1755585536231,20.39,33.86,-14.94,796,851,767,755,808,34.48275862068966,-0.335,0.533,0.788
39253,1755585536261,20.4,33.9,-14.96,793,844,769,757,810,33.333333333333336,-0.335,0.532,0.791
39283,1755585536291,20.43,33.9,-14.98,785,853,771,753,799,33.333333333333336,-0.337,0.531,0.788
39312,1755585536320,20.43,33.86,-14.98,791,852,773,751,805,34.48275862068966,-0.334,0.533,0.785
39342,1755585536350,20.4,33.84,-14.99,790,844,776,756,809,33.333333333333336,-0.332,0.535,0.788
39371,1755585536379,20.37,33.86,-15.02,793,841,765,761,803,34.48275862068966,-0.331,0.533,0.789
39401,1755585536409,20.39,33.83,-15.07,788,852,790,757,807,33.333333333333336,-0.333,0.533,0.787
39430,1755585536438,20.34,33.8,-15.12,795,841,769,757,805,34.48275862068966,-0.333,0.532,0.787
39460,1755585536468,20.34,33.8,-15.17,793,845,767,754,812,33.333333333333336,-0.335,0.53,0.788
39489,1755585536497,20.36,33.8,-15.2,797,847,771,753,808,34.48275862068966,-0.339,0.531,0.789
39519,1755585536527,20.37,33.81,-15.21,794,848,781,756,806,33.333333333333336,-0.337,0.532,0.789
39548,1755585536556,20.35,33.81,-15.25,785,844,783,752,808,34.48275862068966,-0.333,0.53,0.789
39578,1755585536586,20.36,33.78,-15.28,798,845,770,753,802,33.333333333333336,-0.333,0.529,0.789
39607,1755585536616,20.39,33.75,-15.3,790,840,764,755,805,34.48275862068966,-0.337,0.531,0.79
39637,1755585536645,20.35,33.75,-15.29,795,848,775,759,806,33.333333333333336,-0.336,0.53,0.789
39666,1755585536674,20.37,33.73,-15.31,795,850,773,751,805,34.48275862068966,-0.337,0.528,0.79
39696,1755585536704,20.4,33.73,-15.31,796,845,777,750,802,33.333333333333336,-0.337,0.529,0.789
39725,1755585536733,20.35,33.74,-15.29,797,852,768,757,801,34.48275862068966,-0.334,0.53,0.79
39754,1755585536763,20.39,33.72,-15.33,789,851,758,758,805,34.48275862068966,-0.334,0.53,0.791
39784,1755585536792,20.41,33.71,-15.34,785,853,769,757,809,33.333333333333336,-0.334,0.53,0.792
39813,1755585536821,20.34,33.72,-15.35,796,838,762,755,810,34.48275862068966,-0.33,0.531,0.791
39843,1755585536851,20.36,33.69,-15.41,794,850,764,759,801,33.333333333333336,-0.332,0.529,0.79
39872,1755585536880,20.38,33.68,-15.42,793,847,766,756,808,34.48275862068966,-0.337,0.528,0.792
39901,1755585536910,20.37,33.7,-15.4,791,846,773,747,803,34.48275862068966,-0.336,0.529,0.791
39931,1755585536939,20.37,33.71,-15.4,793,854,769,757,812,33.333333333333336,-0.332,0.53,0.79
39960,1755585536969,20.4,33.67,-15.43,790,848,772,756,822,34.48275862068966,-0.331,0.53,0.791
39990,1755585536998,20.39,33.66,-15.44,800,839,774,759,809,33.333333333333336,-0.332,0.53,0.791
40019,1755585537027,20.41,33.66,-15.44,793,851,772,755,801,34.48275862068966,-0.335,0.529,0.791
40048,1755585537056,20.43,33.66,-15.44,788,847,764,754,802,34.48275862068966,-0.335,0.53,0.788
40078,1755585537086,20.4,33.63,-15.43,793,845,776,751,806,33.333333333333336,-0.335,0.528,0.787
40107,1755585537115,20.42,33.57,-15.44,795,850,771,758,810,34.48275862068966,-0.335,0.528,0.791
40137,1755585537145,20.42,33.58,-15.43,794,844,768,757,809,33.333333333333336,-0.334,0.528,0.793
40166,1755585537174,20.4,33.61,-15.42,798,849,774,759,809,34.48275862068966,-0.332,0.531,0.793
40195,1755585537203,20.41,33.63,-15.45,793,848,764,753,807,34.48275862068966,-0.332,0.53,0.793
40225,1755585537233,20.42,33.66,-15.45,792,853,766,758,809,33.333333333333336,-0.333,0.531,0.79
40254,1755585537262,20.41,33.67,-15.44,794,846,770,750,820,34.48275862068966,-0.331,0.533,0.789
40284,1755585537292,20.4,33.63,-15.45,793,845,773,752,810,33.333333333333336,-0.33,0.532,0.789
40313,1755585537321,20.43,33.6,-15.48,787,846,762,754,811,34.48275862068966,-0.331,0.533,0.791
40343,1755585537351,20.43,33.62,-15.5,796,848,784,753,807,33.333333333333336,-0.33,0.532,0.791
40372,1755585537380,20.44,33.63,-15.54,790,860,772,753,807,34.48275862068966,-0.33,0.53,0.789
40402,1755585537410,20.43,33.57,-15.56,796,853,774,751,798,33.333333333333336,-0.333,0.531,0.788
40431,1755585537439,20.42,33.52,-15.57,797,846,772,756,807,34.48275862068966,-0.333,0.532,0.788
40460,1755585537469,20.44,33.49,-15.59,791,837,772,758,834,34.48275862068966,-0.334,0.53,0.79
40490,1755585537498,20.42,33.51,-15.58,791,851,778,745,809,33.333333333333336,-0.334,0.532,0.79
40519,1755585537528,20.4,33.46,-15.58,794,845,767,756,803,34.48275862068966,-0.329,0.531,0.791
40549,1755585537557,20.43,33.43,-15.63,791,842,769,751,808,33.333333333333336,-0.33,0.529,0.793
40578,1755585537587,20.42,33.42,-15.65,794,847,762,756,810,34.48275862068966,-0.333,0.53,0.792
40608,1755585537616,20.42,33.42,-15.67,789,849,775,753,808,33.333333333333336,-0.335,0.529,0.793
40638,1755585537646,20.42,33.44,-15.67,797,859,768,757,809,33.333333333333336,-0.335,0.528,0.794
40667,1755585537675,20.42,33.42,-15.68,793,849,771,757,816,34.48275862068966,-0.331,0.528,0.791
40696,1755585537704,20.41,33.38,-15.7,792,837,781,761,826,34.48275862068966,-0.331,0.528,0.793
40726,1755585537734,20.41,33.4,-15.72,787,849,770,760,809,33.333333333333336,-0.333,0.528,0.794
40755,1755585537764,20.41,33.44,-15.74,791,852,779,762,811,34.48275862068966,-0.332,0.528,0.791
40785,1755585537793,20.39,33.41,-15.76,786,850,773,750,811,33.333333333333336,-0.331,0.526,0.792
40814,1755585537823,20.4,33.41,-15.79,800,851,758,759,808,34.48275862068966,-0.332,0.527,0.793
40844,1755585537852,20.39,33.42,-15.81,793,844,773,757,805,33.333333333333336,-0.331,0.528,0.792
40864,1755585537872,20.37,33.42,-15.82,792,849,771,761,806,50.0,-0.33,0.528,0.791
40893,1755585537902,20.35,33.43,-15.85,786,852,770,751,801,34.48275862068966,-0.332,0.528,0.792
40923,1755585537931,20.32,33.41,-15.86,794,850,775,755,809,33.333333333333336,-0.331,0.527,0.79
40952,1755585537961,20.32,33.35,-15.9,789,858,769,752,815,34.48275862068966,-0.332,0.528,0.791
40982,1755585537990,20.32,33.33,-15.91,790,853,753,756,805,33.333333333333336,-0.332,0.526,0.794
41011,1755585538019,20.3,33.36,-15.9,791,848,772,749,818,34.48275862068966,-0.331,0.526,0.795
41041,1755585538049,20.3,33.37,-15.93,790,843,772,754,804,33.333333333333336,-0.33,0.527,0.794
41070,1755585538079,20.28,33.35,-15.96,791,845,773,756,808,34.48275862068966,-0.328,0.526,0.791
41100,1755585538108,20.27,33.29,-15.98,791,848,769,751,807,33.333333333333336,-0.331,0.524,0.793
41129,1755585538137,20.25,33.28,-15.98,790,843,768,754,812,34.48275862068966,-0.332,0.526,0.796
41158,1755585538166,20.23,33.31,-15.98,790,845,771,756,803,34.48275862068966,-0.33,0.526,0.796
41188,1755585538196,20.22,33.3,-16.0,792,853,769,751,808,33.333333333333336,-0.329,0.528,0.795
41217,1755585538225,20.22,33.3,-16.03,787,854,775,758,808,34.48275862068966,-0.329,0.527,0.793
41247,1755585538255,20.22,33.27,-16.04,791,841,775,760,816,33.333333333333336,-0.327,0.528,0.793
41277,1755585538285,20.21,33.2,-16.09,790,843,770,757,807,33.333333333333336,-0.328,0.526,0.794
41306,1755585538314,20.22,33.2,-16.1,799,844,778,757,812,34.48275862068966,-0.331,0.525,0.797
41335,1755585538344,20.19,33.28,-16.08,792,851,765,759,806,34.48275862068966,-0.331,0.524,0.797
41365,1755585538373,20.2,33.25,-16.11,791,852,770,756,807,33.333333333333336,-0.328,0.526,0.794
41395,1755585538403,20.18,33.21,-16.13,795,837,773,756,803,33.333333333333336,-0.328,0.525,0.795
41424,1755585538432,20.18,33.21,-16.15,792,844,772,761,805,34.48275862068966,-0.328,0.526,0.798
41453,1755585538461,20.17,33.26,-16.14,795,850,773,750,818,34.48275862068966,-0.327,0.527,0.797
41483,1755585538491,20.15,33.25,-16.16,794,839,773,759,807,33.333333333333336,-0.325,0.527,0.794
41512,1755585538520,20.16,33.2,-16.2,797,845,767,752,809,34.48275862068966,-0.325,0.526,0.796
41542,1755585538550,20.14,33.2,-16.21,795,852,771,758,801,33.333333333333336,-0.326,0.527,0.796
41571,1755585538579,20.16,33.17,-16.25,792,850,773,750,807,34.48275862068966,-0.326,0.526,0.796
41600,1755585538609,20.16,33.18,-16.28,787,851,766,754,805,34.48275862068966,-0.328,0.524,0.797
41630,1755585538638,20.14,33.18,-16.29,791,854,773,754,805,33.333333333333336,-0.328,0.524,0.795
41659,1755585538668,20.12,33.14,-16.31,796,847,766,755,804,34.48275862068966,-0.327,0.525,0.796
41689,1755585538697,20.12,33.15,-16.29,790,841,766,757,827,33.333333333333336,-0.331,0.525,0.799
41719,1755585538727,20.12,33.16,-16.27,791,845,769,772,810,33.333333333333336,-0.328,0.524,0.798
41748,1755585538757,20.13,33.17,-16.27,795,845,765,757,807,34.48275862068966,-0.326,0.526,0.798
41778,1755585538787,20.11,33.18,-16.28,795,845,770,757,810,33.333333333333336,-0.325,0.527,0.795
41798,1755585538806,20.11,33.16,-16.29,796,846,777,749,808,50.0,-0.326,0.525,0.794
41827,1755585538835,20.09,33.11,-16.28,787,850,778,757,813,34.48275862068966,-0.325,0.526,0.796
41857,1755585538865,20.12,33.14,-16.3,791,836,761,760,809,33.333333333333336,-0.325,0.526,0.799
41886,1755585538895,20.11,33.17,-16.32,790,834,770,757,802,34.48275862068966,-0.325,0.525,0.797
41916,1755585538924,20.11,33.16,-16.33,794,858,768,754,804,33.333333333333336,-0.327,0.525,0.795
41946,1755585538954,20.12,33.12,-16.33,792,855,775,754,812,33.333333333333336,-0.326,0.525,0.795
41966,1755585538974,20.1,33.12,-16.33,795,834,773,754,808,50.0,-0.325,0.526,0.796
41995,1755585539003,20.1,33.14,-16.33,791,862,785,754,809,34.48275862068966,-0.325,0.528,0.797
42025,1755585539033,20.12,33.16,-16.36,799,852,771,750,804,33.333333333333336,-0.324,0.527,0.798
42054,1755585539062,20.14,33.2,-16.37,796,847,771,758,805,34.48275862068966,-0.325,0.526,0.796
42083,1755585539092,20.11,33.18,-16.38,790,851,774,756,804,34.48275862068966,-0.323,0.526,0.793
42113,1755585539121,20.12,33.12,-16.41,795,859,787,757,806,33.333333333333336,-0.324,0.527,0.794
42143,1755585539151,20.09,33.14,-16.42,791,842,776,760,806,33.333333333333336,-0.323,0.528,0.796
42172,1755585539180,20.11,33.18,-16.44,787,847,776,755,802,34.48275862068966,-0.324,0.528,0.796
42202,1755585539210,20.07,33.19,-16.44,794,844,771,760,808,33.333333333333336,-0.324,0.527,0.793
42231,1755585539240,20.08,33.11,-16.51,797,846,767,769,810,34.48275862068966,-0.322,0.526,0.793
42261,1755585539269,20.12,33.09,-16.54,793,847,766,755,807,33.333333333333336,-0.327,0.526,0.798
42290,1755585539298,20.1,33.12,-16.54,796,850,772,758,808,34.48275862068966,-0.327,0.526,0.797
42320,1755585539328,20.12,33.08,-16.58,796,845,774,755,807,33.333333333333336,-0.325,0.526,0.795
42349,1755585539357,20.09,33.06,-16.58,793,850,767,752,814,34.48275862068966,-0.324,0.526,0.796
42378,1755585539387,20.1,33.05,-16.6,790,841,770,757,802,34.48275862068966,-0.324,0.527,0.798
42408,1755585539416,20.08,33.09,-16.62,794,845,771,752,805,33.333333333333336,-0.322,0.527,0.8
42437,1755585539446,20.08,33.1,-16.65,789,853,762,747,806,34.48275862068966,-0.323,0.526,0.797
42467,1755585539475,20.09,33.02,-16.69,791,854,775,749,811,33.333333333333336,-0.324,0.524,0.796
42497,1755585539505,20.04,33.05,-16.68,790,850,767,754,808,33.333333333333336,-0.325,0.526,0.798
42526,1755585539534,20.08,33.06,-16.71,789,849,768,758,806,34.48275862068966,-0.324,0.526,0.798
42556,1755585539564,20.1,33.03,-16.75,793,840,774,757,804,33.333333333333336,-0.324,0.526,0.795
42585,1755585539594,20.05,33.0,-16.75,788,854,762,753,806,34.48275862068966,-0.325,0.523,0.797
42615,1755585539623,20.07,33.02,-16.78,793,850,758,755,808,33.333333333333336,-0.325,0.524,0.799
42645,1755585539653,20.08,33.05,-16.81,794,848,770,759,808,33.333333333333336,-0.325,0.523,0.797
42674,1755585539682,20.05,33.02,-16.82,796,854,767,755,805,34.48275862068966,-0.326,0.523,0.797
42704,1755585539712,20.06,33.02,-16.83,791,843,772,752,809,33.333333333333336,-0.326,0.524,0.8
42733,1755585539741,20.06,33.06,-16.84,794,842,775,758,804,34.48275862068966,-0.325,0.526,0.799
42762,1755585539770,20.06,33.05,-16.86,792,854,769,753,803,34.48275862068966,-0.325,0.525,0.797
42792,1755585539800,20.05,33.03,-16.87,787,845,789,753,807,33.333333333333336,-0.325,0.526,0.796
42821,1755585539829,20.04,33.02,-16.89,804,840,772,756,805,34.48275862068966,-0.324,0.526,0.796
