timestamp_ms,recv_timestamp_ms,pitch,roll,yaw,flex1,flex2,flex3,flex4,flex5,sampling_hz,accel_x,accel_y,accel_z
16946,1755587204191,53.16,-2.84,101.5,782,906,843,877,890,33.333333333333336,-0.999,-0.025,0.08
16976,1755587204220,53.22,-3.12,101.69,782,903,836,883,899,33.333333333333336,-0.998,-0.026,0.079
17005,1755587204250,53.25,-3.39,101.94,777,916,834,871,885,34.48275862068966,-1.002,-0.026,0.08
17035,1755587204280,53.24,-3.71,102.2,784,906,841,881,884,33.333333333333336,-1.002,-0.025,0.08
17065,1755587204310,53.3,-4.06,102.46,782,908,835,887,894,33.333333333333336,-0.999,-0.026,0.08
17095,1755587204340,53.33,-4.33,102.72,777,905,827,883,888,33.333333333333336,-1.001,-0.03,0.084
17125,1755587204370,53.31,-4.47,102.96,785,913,837,879,893,33.333333333333336,-1.003,-0.028,0.083
17145,1755587204390,53.51,-4.66,103.15,778,905,838,877,895,50.0,-1.001,-0.027,0.083
17165,1755587204410,53.72,-4.94,103.32,778,912,836,877,893,50.0,-1.0,-0.028,0.081
17195,1755587204439,53.79,-5.17,103.57,779,909,839,874,878,33.333333333333336,-1.003,-0.031,0.084
17224,1755587204469,53.76,-5.43,103.83,772,910,845,885,888,34.48275862068966,-1.002,-0.029,0.081
17254,1755587204499,53.82,-5.69,104.07,782,897,832,868,908,33.333333333333336,-1.002,-0.031,0.082
17284,1755587204529,53.78,-5.95,104.37,779,907,833,881,895,33.333333333333336,-1.004,-0.031,0.082
17314,1755587204559,53.8,-6.17,104.61,781,902,820,880,886,33.333333333333336,-1.0,-0.029,0.079
17343,1755587204588,53.79,-6.42,104.82,788,910,839,882,891,34.48275862068966,-0.999,-0.029,0.081
17373,1755587204618,53.76,-6.66,105.09,776,901,835,874,892,33.333333333333336,-1.0,-0.03,0.08
17403,1755587204648,53.86,-7.01,105.25,783,901,858,872,889,33.333333333333336,-0.997,-0.03,0.077
17433,1755587204677,54.01,-7.29,105.39,777,900,834,874,895,33.333333333333336,-0.999,-0.032,0.08
17462,1755587204707,53.96,-7.59,105.63,782,905,851,871,891,34.48275862068966,-1.0,-0.03,0.077
17492,1755587204737,54.04,-8.18,105.76,775,901,832,876,892,33.333333333333336,-0.998,-0.033,0.071
17512,1755587204757,54.38,-8.64,105.85,784,903,836,876,890,50.0,-1.002,-0.035,0.071
17542,1755587204787,53.92,-9.13,106.16,786,913,832,876,891,33.333333333333336,-1.006,-0.041,0.079
17572,1755587204816,53.88,-9.52,106.38,781,877,823,888,891,33.333333333333336,-1.003,-0.042,0.079
17601,1755587204846,53.95,-9.65,106.66,784,908,839,881,885,34.48275862068966,-1.004,-0.042,0.086
17631,1755587204877,53.83,-9.91,106.95,782,911,829,875,896,33.333333333333336,-1.003,-0.041,0.084
17652,1755587204896,54.03,-10.2,107.14,778,898,830,882,890,47.61904761904762,-1.002,-0.043,0.083
17681,1755587204926,54.05,-10.4,107.4,780,913,829,878,893,34.48275862068966,-1.004,-0.043,0.081
17711,1755587204956,53.99,-10.68,107.67,784,915,811,881,887,33.333333333333336,-1.0,-0.043,0.076
17741,1755587204986,54.07,-11.09,107.86,785,901,837,885,887,33.333333333333336,-1.001,-0.043,0.071
17771,1755587205016,54.04,-11.52,108.12,777,909,832,870,882,33.333333333333336,-1.004,-0.048,0.074
17801,1755587205046,53.97,-11.85,108.41,778,906,839,876,889,33.333333333333336,-1.004,-0.047,0.073
17821,1755587205066,54.17,-12.15,108.59,783,902,840,868,881,50.0,-1.003,-0.045,0.074
17851,1755587205095,54.17,-12.5,108.84,781,900,828,876,888,33.333333333333336,-1.002,-0.047,0.078
17880,1755587205126,54.17,-12.77,109.1,782,912,834,869,887,34.48275862068966,-1.0,-0.048,0.079
17901,1755587205145,54.37,-13.07,109.28,776,900,834,885,892,47.61904761904762,-1.001,-0.049,0.08
17931,1755587205175,54.37,-13.32,109.56,782,903,836,874,893,33.333333333333336,-1.0,-0.048,0.078
17960,1755587205205,54.36,-13.56,109.84,780,898,827,879,894,34.48275862068966,-1.003,-0.048,0.077
17990,1755587205235,54.31,-13.85,110.11,786,901,823,891,879,33.333333333333336,-1.002,-0.047,0.075
18020,1755587205265,54.33,-14.14,110.36,781,915,838,880,888,33.333333333333336,-1.0,-0.048,0.074
18050,1755587205295,54.31,-14.44,110.62,781,914,836,882,897,33.333333333333336,-1.001,-0.049,0.075
18070,1755587205315,54.46,-14.75,110.82,780,905,846,885,923,50.0,-1.003,-0.049,0.076
18100,1755587205345,54.45,-15.0,111.09,778,900,830,879,896,33.333333333333336,-1.001,-0.046,0.074
18130,1755587205375,54.47,-15.28,111.31,782,898,830,898,892,33.333333333333336,-1.001,-0.046,0.074
18150,1755587205395,54.67,-15.58,111.48,782,903,822,879,891,50.0,-1.001,-0.047,0.075
18180,1755587205425,54.64,-15.86,111.73,783,895,840,880,891,33.333333333333336,-1.001,-0.048,0.074
18210,1755587205455,54.68,-16.16,111.97,787,909,834,868,907,33.333333333333336,-1.003,-0.048,0.073
18240,1755587205485,54.68,-16.49,112.24,775,892,824,870,886,33.333333333333336,-1.002,-0.05,0.074
18270,1755587205515,54.68,-16.74,112.5,784,910,835,875,890,33.333333333333336,-1.0,-0.049,0.074
18300,1755587205544,54.65,-17.05,112.74,776,903,838,876,891,33.333333333333336,-1.0,-0.048,0.073
18329,1755587205574,54.67,-17.37,112.96,779,910,840,885,888,34.48275862068966,-0.999,-0.048,0.072
18349,1755587205594,54.88,-17.67,113.1,782,893,835,880,892,50.0,-0.999,-0.048,0.073
18379,1755587205624,54.83,-17.87,113.35,777,907,830,863,884,33.333333333333336,-1.0,-0.049,0.072
18409,1755587205654,54.74,-18.17,113.61,779,908,839,873,892,33.333333333333336,-1.0,-0.051,0.071
18439,1755587205683,54.74,-18.41,113.86,784,902,840,884,885,33.333333333333336,-1.002,-0.052,0.072
18468,1755587205713,54.64,-18.68,114.15,784,903,834,882,887,34.48275862068966,-1.001,-0.051,0.071
18498,1755587205743,54.66,-18.96,114.4,784,896,822,875,891,33.333333333333336,-0.999,-0.051,0.071
18518,1755587205763,54.89,-19.23,114.56,780,904,830,877,896,50.0,-1.001,-0.053,0.074
18548,1755587205793,54.76,-19.43,114.86,784,903,835,900,890,33.333333333333336,-1.001,-0.052,0.073
18578,1755587205823,54.7,-19.63,115.14,780,896,830,885,890,33.333333333333336,-1.0,-0.052,0.07
18608,1755587205853,54.68,-19.9,115.38,780,902,821,885,890,33.333333333333336,-1.0,-0.051,0.069
18638,1755587205882,54.65,-20.18,115.62,789,905,821,873,889,33.333333333333336,-0.999,-0.052,0.071
18667,1755587205912,54.61,-20.46,115.87,786,912,824,874,892,34.48275862068966,-1.0,-0.053,0.072
18697,1755587205942,54.56,-20.72,116.12,785,906,845,880,889,33.333333333333336,-1.002,-0.054,0.073
18717,1755587205962,54.73,-20.94,116.31,780,909,838,872,902,50.0,-1.003,-0.054,0.075
18747,1755587205992,54.69,-21.16,116.58,783,911,833,875,887,33.333333333333336,-1.001,-0.054,0.076
18777,1755587206022,54.69,-21.34,116.83,780,908,825,880,887,33.333333333333336,-1.0,-0.055,0.077
18807,1755587206052,54.61,-21.47,117.13,772,900,842,873,894,33.333333333333336,-1.003,-0.055,0.077
18827,1755587206072,54.76,-21.69,117.32,786,901,831,875,892,50.0,-1.002,-0.054,0.075
18857,1755587206101,54.73,-21.91,117.58,781,907,828,878,891,33.333333333333336,-1.0,-0.054,0.075
18886,1755587206131,54.71,-22.08,117.85,782,900,834,880,887,34.48275862068966,-1.001,-0.055,0.077
18906,1755587206151,54.88,-22.27,118.05,782,902,822,877,896,50.0,-1.003,-0.055,0.078
18936,1755587206181,54.78,-22.42,118.38,783,896,831,878,923,33.333333333333336,-1.003,-0.055,0.078
18966,1755587206211,54.68,-22.53,118.73,781,900,837,873,893,33.333333333333336,-1.002,-0.053,0.077
18996,1755587206241,54.48,-22.64,119.1,783,902,817,874,892,33.333333333333336,-0.995,-0.052,0.076
19026,1755587206271,54.47,-22.82,119.32,779,909,830,879,892,33.333333333333336,-0.996,-0.051,0.074
19046,1755587206291,54.67,-22.98,119.49,783,902,833,873,891,50.0,-1.001,-0.051,0.076
19076,1755587206321,54.52,-23.16,119.77,785,903,836,878,885,33.333333333333336,-1.002,-0.05,0.077
19096,1755587206341,54.64,-23.27,119.98,777,906,834,877,885,50.0,-1.002,-0.049,0.08
19126,1755587206371,54.65,-23.4,120.18,791,899,828,869,921,33.333333333333336,-1.0,-0.05,0.083
19156,1755587206401,54.63,-23.44,120.45,785,896,819,877,887,33.333333333333336,-1.002,-0.051,0.086
19176,1755587206421,54.71,-23.57,120.66,781,905,836,868,893,50.0,-1.002,-0.053,0.086
19206,1755587206451,54.61,-23.64,120.98,771,906,824,876,889,33.333333333333336,-1.003,-0.054,0.085
19236,1755587206481,54.47,-23.66,121.33,783,902,829,876,882,33.333333333333336,-1.007,-0.052,0.087
19266,1755587206511,54.23,-23.7,121.71,786,908,827,878,888,33.333333333333336,-0.999,-0.051,0.088
19296,1755587206541,54.15,-23.73,121.96,779,900,830,869,886,33.333333333333336,-0.996,-0.05,0.089
19326,1755587206571,54.08,-23.72,122.22,772,904,835,884,893,33.333333333333336,-0.999,-0.05,0.093
19356,1755587206601,53.98,-23.72,122.53,779,908,834,884,881,33.333333333333336,-1.0,-0.05,0.093
19386,1755587206631,53.98,-23.66,122.81,776,898,835,869,894,33.333333333333336,-1.001,-0.048,0.094
19416,1755587206660,53.94,-23.63,123.09,777,893,835,879,882,33.333333333333336,-0.997,-0.045,0.093
19445,1755587206690,53.88,-23.59,123.33,783,894,833,882,888,34.48275862068966,-0.996,-0.045,0.095
19475,1755587206720,53.79,-23.53,123.62,781,894,825,867,887,33.333333333333336,-0.998,-0.047,0.098
19505,1755587206750,53.76,-23.48,123.91,776,892,837,909,893,33.333333333333336,-1.002,-0.049,0.098
19535,1755587206780,53.74,-23.51,124.21,775,906,830,887,899,33.333333333333336,-1.001,-0.05,0.096
19565,1755587206810,53.72,-23.48,124.51,783,899,840,880,898,33.333333333333336,-1.002,-0.049,0.102
19595,1755587206839,53.67,-23.38,124.84,787,892,830,877,895,33.333333333333336,-1.0,-0.047,0.106
19624,1755587206869,53.67,-23.26,125.13,784,901,829,878,888,34.48275862068966,-0.997,-0.045,0.104
19654,1755587206899,53.73,-23.16,125.38,784,895,829,874,890,33.333333333333336,-0.998,-0.043,0.101
19684,1755587206928,53.67,-23.05,125.66,780,906,839,875,892,33.333333333333336,-0.997,-0.043,0.101
19713,1755587206958,53.59,-22.97,125.91,779,905,837,877,889,34.48275862068966,-0.997,-0.042,0.098
19743,1755587206988,53.56,-22.85,126.14,783,899,826,876,885,33.333333333333336,-0.999,-0.041,0.098
19763,1755587207008,53.71,-22.79,126.32,784,896,830,876,888,50.0,-1.0,-0.042,0.099
19793,1755587207038,53.61,-22.74,126.59,780,902,840,877,895,33.333333333333336,-0.997,-0.044,0.099
19823,1755587207068,53.6,-22.66,126.85,780,908,830,877,882,33.333333333333336,-0.996,-0.046,0.101
19853,1755587207097,53.62,-22.65,127.09,787,893,835,888,903,33.333333333333336,-0.998,-0.048,0.102
19882,1755587207127,53.65,-22.57,127.36,790,895,828,871,888,34.48275862068966,-1.001,-0.048,0.104
19912,1755587207157,53.61,-22.47,127.65,786,902,829,883,893,33.333333333333336,-1.001,-0.045,0.102
19942,1755587207187,53.58,-22.36,127.93,782,900,846,885,893,33.333333333333336,-1.0,-0.041,0.101
19972,1755587207216,53.53,-22.32,128.2,784,907,833,890,873,33.333333333333336,-0.997,-0.043,0.102
20001,1755587207246,53.48,-22.2,128.46,784,893,836,880,893,34.48275862068966,-0.997,-0.042,0.102
20031,1755587207276,53.4,-22.16,128.71,785,901,843,880,905,33.333333333333336,-0.998,-0.042,0.1
20061,1755587207306,53.37,-22.05,128.98,782,892,833,876,891,33.333333333333336,-0.999,-0.042,0.105
20091,1755587207336,53.4,-21.98,129.23,780,910,835,873,897,33.333333333333336,-1.0,-0.044,0.106
20111,1755587207356,53.61,-21.91,129.41,786,901,825,873,884,50.0,-0.999,-0.045,0.108
20141,1755587207386,53.61,-21.89,129.63,791,900,826,881,889,33.333333333333336,-0.995,-0.044,0.103
20171,1755587207416,53.71,-21.78,129.84,781,899,834,877,883,33.333333333333336,-0.997,-0.046,0.106
20191,1755587207436,53.91,-21.73,129.99,783,903,833,884,884,50.0,-0.995,-0.044,0.105
20221,1755587207466,53.88,-21.57,130.2,780,898,832,877,892,33.333333333333336,-0.992,-0.039,0.097
20241,1755587207486,53.99,-21.57,130.31,784,898,828,879,898,50.0,-0.989,-0.038,0.092
20271,1755587207516,53.86,-21.61,130.5,784,897,838,873,895,33.333333333333336,-0.995,-0.042,0.092
20291,1755587207536,54.0,-21.72,130.66,788,903,833,867,889,50.0,-1.003,-0.052,0.096
20321,1755587207566,53.95,-21.8,130.99,785,901,824,887,903,33.333333333333336,-1.01,-0.059,0.102
20350,1755587207595,53.95,-22.05,131.32,784,900,832,876,883,34.48275862068966,-1.007,-0.059,0.104
20380,1755587207625,53.94,-22.1,131.63,785,896,828,875,893,33.333333333333336,-1.0,-0.056,0.108
20410,1755587207655,53.93,-22.11,131.9,784,902,842,873,885,33.333333333333336,-0.999,-0.055,0.111
20430,1755587207675,54.15,-22.11,132.1,780,902,836,881,890,50.0,-1.003,-0.056,0.113
20460,1755587207705,54.22,-22.09,132.4,787,883,831,888,881,33.333333333333336,-1.004,-0.052,0.11
20490,1755587207735,54.28,-22.09,132.69,790,899,832,868,893,33.333333333333336,-1.0,-0.052,0.108
20520,1755587207764,54.31,-22.1,132.98,785,898,835,879,890,33.333333333333336,-1.001,-0.052,0.104
20549,1755587207794,54.34,-22.1,133.28,786,895,833,877,887,34.48275862068966,-1.003,-0.049,0.1
20579,1755587207824,54.31,-22.11,133.55,789,915,817,875,886,33.333333333333336,-0.997,-0.045,0.097
20609,1755587207854,54.24,-22.08,133.76,779,899,831,880,893,33.333333333333336,-0.992,-0.044,0.095
20639,1755587207884,54.19,-22.02,133.98,782,898,826,872,893,33.333333333333336,-0.998,-0.045,0.097
20669,1755587207914,54.12,-22.0,134.26,778,899,834,875,885,33.333333333333336,-1.005,-0.047,0.1
20698,1755587207944,54.08,-22.0,134.57,779,896,826,875,893,34.48275862068966,-1.002,-0.05,0.101
20728,1755587207973,54.11,-22.0,134.85,779,893,837,875,893,33.333333333333336,-0.997,-0.05,0.098
20758,1755587208003,54.06,-22.02,135.11,784,901,838,877,895,33.333333333333336,-0.996,-0.048,0.095
20788,1755587208033,53.98,-22.0,135.37,785,894,822,872,892,33.333333333333336,-0.998,-0.046,0.096
20818,1755587208063,53.96,-21.99,135.62,783,896,831,873,890,33.333333333333336,-0.999,-0.048,0.098
20848,1755587208092,53.5,-21.96,135.86,782,889,830,876,890,33.333333333333336,-0.997,-0.05,0.098
20877,1755587208122,53.47,-21.98,136.12,791,905,838,882,881,34.48275862068966,-0.998,-0.051,0.097
20907,1755587208152,53.46,-21.99,136.38,784,888,831,878,892,33.333333333333336,-1.0,-0.05,0.097
20937,1755587208182,53.45,-22.01,136.64,775,900,832,877,905,33.333333333333336,-1.001,-0.049,0.096
20967,1755587208212,53.45,-22.03,136.91,785,891,822,879,887,33.333333333333336,-1.0,-0.051,0.097
20996,1755587208241,53.41,-22.06,137.2,782,901,830,875,889,34.48275862068966,-0.997,-0.051,0.094
21026,1755587208271,53.4,-22.08,137.46,785,882,841,870,900,33.333333333333336,-0.999,-0.05,0.094
21056,1755587208301,53.34,-22.09,137.74,782,883,838,878,889,33.333333333333336,-1.001,-0.049,0.097
21086,1755587208332,53.34,-22.08,138.02,777,901,833,866,894,33.333333333333336,-1.003,-0.051,0.099
21107,1755587208351,53.55,-22.1,138.22,785,905,825,872,899,47.61904761904762,-1.003,-0.051,0.099
21136,1755587208381,53.5,-22.14,138.53,784,889,826,880,890,34.48275862068966,-0.996,-0.051,0.097
21166,1755587208411,53.52,-22.11,138.77,785,898,850,873,882,33.333333333333336,-0.995,-0.048,0.097
21196,1755587208441,53.5,-22.14,139.03,784,902,846,878,890,33.333333333333336,-1.001,-0.049,0.097
21216,1755587208461,53.69,-22.18,139.23,791,896,832,874,887,50.0,-1.005,-0.05,0.096
21246,1755587208491,53.7,-22.23,139.5,777,904,827,877,896,33.333333333333336,-1.001,-0.05,0.095
21276,1755587208521,53.67,-22.22,139.78,773,892,837,881,884,33.333333333333336,-1.0,-0.049,0.094
21306,1755587208551,53.63,-22.25,140.05,778,880,834,875,887,33.333333333333336,-1.001,-0.049,0.097
21326,1755587208571,53.81,-22.25,140.23,789,900,827,870,893,50.0,-1.001,-0.047,0.096
21356,1755587208600,53.74,-22.29,140.5,785,890,839,881,882,33.333333333333336,-1.0,-0.047,0.094
21385,1755587208630,53.75,-22.35,140.75,790,901,836,878,885,34.48275862068966,-1.0,-0.05,0.094
21415,1755587208660,53.72,-22.42,141.02,781,896,830,881,887,33.333333333333336,-0.999,-0.051,0.094
21445,1755587208690,53.73,-22.46,141.29,786,890,832,881,882,33.333333333333336,-0.999,-0.051,0.096
21475,1755587208720,53.73,-22.46,141.58,779,898,826,880,882,33.333333333333336,-1.0,-0.051,0.098
21505,1755587208750,53.66,-22.48,141.89,783,895,821,874,883,33.333333333333336,-0.999,-0.051,0.098
21535,1755587208779,53.63,-22.5,142.18,783,897,831,873,890,33.333333333333336,-0.999,-0.051,0.095
21564,1755587208809,53.55,-22.58,142.46,782,890,825,873,896,34.48275862068966,-0.992,-0.05,0.094
21594,1755587208839,53.41,-22.64,142.7,775,894,834,875,892,33.333333333333336,-0.989,-0.048,0.093
21624,1755587208869,53.23,-22.68,142.94,788,898,822,881,881,33.333333333333336,-0.996,-0.048,0.096
21654,1755587208900,53.21,-22.73,143.23,780,889,826,879,878,33.333333333333336,-1.006,-0.051,0.1
21674,1755587208919,53.44,-22.75,143.45,781,894,830,874,881,50.0,-1.012,-0.054,0.106
21703,1755587208948,53.4,-22.73,143.83,784,897,823,878,892,34.48275862068966,-1.008,-0.054,0.107
21733,1755587208978,53.38,-22.69,144.12,773,903,827,881,898,33.333333333333336,-1.003,-0.052,0.102
21753,1755587208998,53.57,-22.71,144.32,782,891,834,877,886,50.0,-1.002,-0.052,0.102
21783,1755587209028,53.57,-22.66,144.61,780,901,833,871,885,33.333333333333336,-1.006,-0.049,0.104
21803,1755587209048,53.77,-22.56,144.81,788,891,829,874,885,50.0,-1.006,-0.044,0.106
21833,1755587209078,53.73,-22.47,145.09,788,891,837,877,885,33.333333333333336,-1.0,-0.043,0.107
21863,1755587209107,53.77,-22.4,145.32,781,899,829,889,890,33.333333333333336,-0.997,-0.045,0.104
21892,1755587209137,53.75,-22.36,145.56,777,892,833,880,886,34.48275862068966,-0.999,-0.045,0.1
21922,1755587209167,53.69,-22.37,145.81,784,894,831,870,884,33.333333333333336,-1.001,-0.046,0.098
21952,1755587209197,53.66,-22.3,146.08,791,901,822,867,890,33.333333333333336,-1.003,-0.047,0.103
21982,1755587209227,53.63,-22.26,146.35,772,898,832,879,872,33.333333333333336,-1.002,-0.048,0.104
22002,1755587209246,53.83,-22.22,146.54,782,894,826,875,887,50.0,-1.0,-0.049,0.105
22031,1755587209276,53.82,-22.19,146.82,782,894,847,868,888,34.48275862068966,-1.0,-0.048,0.101
22061,1755587209306,53.74,-22.13,147.11,779,904,823,870,881,33.333333333333336,-0.998,-0.045,0.099
22091,1755587209336,53.66,-22.12,147.37,778,881,835,886,877,33.333333333333336,-0.999,-0.046,0.1
22121,1755587209366,53.57,-22.11,147.68,784,888,835,877,880,33.333333333333336,-1.003,-0.051,0.105
22141,1755587209386,53.77,-22.15,147.9,782,892,821,877,878,50.0,-1.003,-0.054,0.106
22171,1755587209416,53.82,-22.14,148.18,782,894,827,874,877,33.333333333333336,-0.998,-0.05,0.104
22201,1755587209446,53.73,-22.13,148.47,784,903,829,873,890,33.333333333333336,-0.995,-0.045,0.104
22231,1755587209476,53.67,-22.06,148.71,785,901,838,889,884,33.333333333333336,-0.998,-0.043,0.104
22261,1755587209506,53.64,-22.01,148.98,785,893,825,877,889,33.333333333333336,-1.002,-0.043,0.102
22281,1755587209526,53.78,-22.03,149.18,788,895,843,875,894,50.0,-1.003,-0.044,0.101
22311,1755587209556,53.72,-22.0,149.49,786,897,837,877,887,33.333333333333336,-1.001,-0.044,0.104
22340,1755587209586,53.66,-21.96,149.76,782,902,818,878,887,34.48275862068966,-0.999,-0.044,0.105
22370,1755587209616,53.63,-21.95,150.0,789,893,826,872,889,33.333333333333336,-0.998,-0.046,0.104
22391,1755587209636,53.82,-21.94,150.17,786,896,827,875,891,47.61904761904762,-1.002,-0.045,0.104
22420,1755587209665,53.71,-21.89,150.44,782,896,830,875,892,34.48275862068966,-1.002,-0.043,0.107
22450,1755587209695,53.66,-21.81,150.7,782,899,837,874,890,33.333333333333336,-1.0,-0.045,0.107
22480,1755587209725,53.68,-21.77,150.96,790,894,835,869,886,33.333333333333336,-1.0,-0.048,0.105
22510,1755587209755,53.65,-21.81,151.24,785,892,838,872,893,33.333333333333336,-0.999,-0.049,0.1
22540,1755587209785,53.56,-21.82,151.52,782,879,823,872,882,33.333333333333336,-0.996,-0.046,0.101
22569,1755587209814,53.53,-21.79,151.76,787,898,836,871,892,34.48275862068966,-1.0,-0.044,0.104
22599,1755587209844,53.49,-21.7,152.06,783,897,838,873,886,33.333333333333336,-1.005,-0.045,0.11
22629,1755587209874,53.44,-21.62,152.38,777,896,827,874,890,33.333333333333336,-0.999,-0.044,0.109
22659,1755587209904,53.44,-21.55,152.62,789,895,830,866,880,33.333333333333336,-0.997,-0.044,0.107
22689,1755587209934,53.34,-21.49,152.89,784,892,843,878,894,33.333333333333336,-1.002,-0.043,0.108
22718,1755587209963,53.31,-21.39,153.19,782,894,839,877,889,34.48275862068966,-1.003,-0.045,0.11
22748,1755587209993,53.33,-21.3,153.48,782,890,841,875,895,33.333333333333336,-0.999,-0.045,0.111
22778,1755587210023,53.28,-21.24,153.74,783,898,832,867,925,33.333333333333336,-0.995,-0.043,0.107
22808,1755587210053,53.18,-21.2,154.0,777,892,833,870,901,33.333333333333336,-0.997,-0.043,0.105
22838,1755587210083,53.12,-21.17,154.3,783,899,837,881,894,33.333333333333336,-1.0,-0.046,0.104
22868,1755587210113,53.08,-21.12,154.61,782,900,811,874,911,33.333333333333336,-0.999,-0.045,0.104
22888,1755587210133,53.22,-21.1,154.82,783,891,828,877,901,50.0,-0.998,-0.044,0.106
22918,1755587210163,53.14,-21.06,155.13,784,885,827,877,890,33.333333333333336,-0.998,-0.044,0.111
22948,1755587210193,53.23,-21.0,155.38,785,901,855,878,889,33.333333333333336,-1.0,-0.042,0.113
22977,1755587210222,53.14,-21.32,155.67,784,894,822,878,885,34.48275862068966,-0.996,-0.039,0.112
23007,1755587210252,53.05,-21.21,155.92,783,899,847,882,888,33.333333333333336,-0.993,-0.042,0.11
23037,1755587210282,53.04,-21.14,156.16,786,890,819,875,894,33.333333333333336,-1.0,-0.045,0.109
23067,1755587210312,52.97,-21.1,156.47,779,898,844,880,893,33.333333333333336,-1.002,-0.045,0.11
23097,1755587210342,52.97,-21.08,156.74,785,896,829,868,884,33.333333333333336,-0.997,-0.045,0.112
23127,1755587210372,52.94,-20.94,157.02,781,906,832,878,888,33.333333333333336,-0.997,-0.044,0.115
23157,1755587210402,52.9,-20.9,157.3,787,893,817,883,893,33.333333333333336,-0.998,-0.044,0.112
23186,1755587210432,52.98,-20.82,157.56,787,890,829,870,888,34.48275862068966,-1.0,-0.043,0.111
23207,1755587210452,53.14,-20.73,157.76,783,893,824,885,892,47.61904761904762,-0.998,-0.041,0.113
23237,1755587210482,53.08,-20.65,158.02,786,902,831,883,886,33.333333333333336,-0.998,-0.041,0.113
23267,1755587210512,53.06,-20.59,158.27,781,907,833,874,878,33.333333333333336,-0.999,-0.043,0.113
23297,1755587210542,53.03,-20.52,158.56,780,895,833,874,889,33.333333333333336,-0.998,-0.044,0.112
23317,1755587210562,53.18,-20.48,158.75,784,883,839,883,893,50.0,-0.998,-0.044,0.112
23347,1755587210592,53.15,-20.47,159.0,777,903,832,875,886,33.333333333333336,-0.997,-0.044,0.111
23376,1755587210622,53.16,-20.38,159.27,784,904,824,890,895,34.48275862068966,-0.998,-0.044,0.114
23397,1755587210641,53.33,-20.32,159.45,784,896,832,881,882,47.61904761904762,-0.998,-0.042,0.114
23426,1755587210671,53.3,-20.23,159.72,786,890,830,874,898,34.48275862068966,-0.997,-0.042,0.115
23456,1755587210701,53.24,-20.17,160.0,791,895,830,854,892,33.333333333333336,-0.995,-0.044,0.114
23486,1755587210731,53.25,-20.04,160.25,785,900,837,883,894,33.333333333333336,-0.997,-0.044,0.113
23516,1755587210761,53.2,-20.03,160.54,782,898,825,877,899,33.333333333333336,-0.997,-0.045,0.111
23546,1755587210791,53.26,-19.97,160.81,787,890,834,879,894,33.333333333333336,-0.998,-0.045,0.112
23576,1755587210821,53.19,-20.0,161.08,778,903,832,876,882,33.333333333333336,-0.996,-0.046,0.113
23596,1755587210841,53.4,-19.96,161.26,791,899,825,878,877,50.0,-0.997,-0.045,0.112
23625,1755587210870,53.38,-19.91,161.55,787,904,823,881,891,34.48275862068966,-0.999,-0.047,0.114
23655,1755587210900,53.37,-19.85,161.86,781,901,828,883,881,33.333333333333336,-0.998,-0.046,0.111
23685,1755587210930,53.36,-19.87,162.14,788,892,825,875,889,33.333333333333336,-0.995,-0.045,0.109
23715,1755587210959,53.34,-19.85,162.41,782,892,815,876,891,33.333333333333336,-0.998,-0.046,0.112
23744,1755587210989,53.29,-19.83,162.7,790,886,820,869,888,34.48275862068966,-0.999,-0.045,0.113
23774,1755587211019,53.29,-19.75,162.97,786,892,836,874,898,33.333333333333336,-0.995,-0.042,0.113
23804,1755587211049,53.29,-19.69,163.23,780,891,836,871,880,33.333333333333336,-0.996,-0.042,0.113
23834,1755587211078,53.26,-19.65,163.48,782,892,829,882,890,33.333333333333336,-0.997,-0.043,0.111
23863,1755587211108,53.21,-19.62,163.75,785,890,832,887,881,34.48275862068966,-0.997,-0.044,0.11
23893,1755587211138,53.27,-19.58,164.01,774,897,835,873,887,33.333333333333336,-1.001,-0.044,0.111
23923,1755587211168,53.21,-19.53,164.29,781,892,832,875,887,33.333333333333336,-0.995,-0.041,0.111
23953,1755587211197,53.18,-19.5,164.51,785,895,828,877,891,33.333333333333336,-0.994,-0.042,0.11
23982,1755587211227,53.16,-19.49,164.77,792,893,823,870,893,34.48275862068966,-1.002,-0.046,0.111
24012,1755587211257,53.13,-19.5,165.08,781,896,828,880,893,33.333333333333336,-1.002,-0.047,0.108
24032,1755587211277,53.35,-19.54,165.26,781,860,833,870,889,50.0,-0.997,-0.046,0.106
24062,1755587211307,53.32,-19.6,165.5,783,900,831,873,885,33.333333333333336,-0.993,-0.044,0.105
24092,1755587211337,53.28,-19.65,165.74,783,894,829,879,879,33.333333333333336,-1.0,-0.046,0.108
24122,1755587211367,53.21,-19.61,166.07,786,890,842,886,889,33.333333333333336,-1.004,-0.048,0.111
24151,1755587211396,53.21,-19.6,166.38,786,896,830,882,886,34.48275862068966,-0.999,-0.047,0.11
24181,1755587211426,53.24,-19.59,166.65,772,896,828,871,891,33.333333333333336,-0.998,-0.045,0.11
24211,1755587211456,53.16,-19.54,166.93,790,903,831,875,894,33.333333333333336,-0.997,-0.043,0.109
24241,1755587211486,53.12,-19.46,167.19,783,893,827,872,885,33.333333333333336,-0.998,-0.043,0.11
24271,1755587211516,53.09,-19.43,167.47,786,892,823,874,891,33.333333333333336,-1.0,-0.045,0.112
24300,1755587211545,53.09,-19.36,167.75,777,887,824,872,885,34.48275862068966,-0.996,-0.045,0.112
24330,1755587211575,53.11,-19.28,168.0,782,896,835,879,893,33.333333333333336,-0.997,-0.043,0.111
24360,1755587211605,53.06,-19.26,168.27,784,897,821,879,892,33.333333333333336,-0.997,-0.043,0.109
24389,1755587211634,53.02,-19.19,168.53,785,886,830,875,888,34.48275862068966,-0.997,-0.044,0.109
24419,1755587211664,52.99,-19.14,168.78,776,898,825,872,885,33.333333333333336,-0.997,-0.044,0.109
24449,1755587211694,52.97,-19.07,169.03,783,887,834,877,890,33.333333333333336,-0.996,-0.043,0.11
24479,1755587211724,52.9,-19.05,169.3,785,887,834,877,899,33.333333333333336,-0.996,-0.045,0.111
24509,1755587211754,52.95,-18.99,169.55,787,904,831,866,881,33.333333333333336,-1.0,-0.047,0.113
24539,1755587211783,52.92,-18.97,169.81,784,878,831,873,889,33.333333333333336,-0.996,-0.046,0.11
24568,1755587211813,52.93,-18.93,170.04,790,888,835,877,877,34.48275862068966,-0.994,-0.045,0.106
24598,1755587211843,52.86,-18.9,170.29,781,894,832,877,884,33.333333333333336,-0.998,-0.042,0.107
24618,1755587211863,52.97,-18.91,170.46,794,899,837,880,885,50.0,-0.997,-0.042,0.108
24648,1755587211893,52.95,-18.88,170.71,785,886,833,866,883,33.333333333333336,-1.001,-0.046,0.112
24678,1755587211923,52.96,-18.87,171.0,785,901,823,874,887,33.333333333333336,-1.001,-0.049,0.114
24707,1755587211952,52.98,-18.83,171.29,784,896,833,882,880,34.48275862068966,-0.997,-0.048,0.113
24737,1755587211982,52.94,-18.81,171.54,791,893,827,870,886,33.333333333333336,-0.994,-0.046,0.111
24767,1755587212012,52.91,-18.8,171.79,780,890,829,889,875,33.333333333333336,-0.998,-0.047,0.11
24797,1755587212042,52.9,-18.78,172.08,778,895,822,871,888,33.333333333333336,-1.003,-0.047,0.11
24817,1755587212062,53.08,-18.83,172.29,783,891,825,870,900,50.0,-1.001,-0.049,0.11
24846,1755587212092,53.09,-18.81,172.56,783,893,829,871,889,34.48275862068966,-0.997,-0.048,0.109
24867,1755587212111,53.27,-18.88,172.73,784,887,811,877,894,47.61904761904762,-0.997,-0.047,0.109
24896,1755587212141,53.28,-18.87,173.0,786,886,827,886,888,34.48275862068966,-1.001,-0.048,0.11
24926,1755587212171,53.25,-18.84,173.3,783,893,831,876,907,33.333333333333336,-1.0,-0.048,0.11
24956,1755587212201,53.23,-18.85,173.58,779,893,838,874,889,33.333333333333336,-0.997,-0.046,0.109
24986,1755587212231,53.22,-18.85,173.84,789,898,825,873,891,33.333333333333336,-0.996,-0.046,0.11
25016,1755587212261,53.19,-18.87,174.09,787,893,826,872,885,33.333333333333336,-0.998,-0.046,0.108
25045,1755587212291,53.17,-18.89,174.37,781,882,840,872,889,34.48275862068966,-1.0,-0.047,0.109
25066,1755587212311,53.35,-18.93,174.57,787,883,829,874,889,47.61904761904762,-1.002,-0.048,0.11
25095,1755587212341,53.37,-18.89,174.86,780,896,826,868,916,34.48275862068966,-1.0,-0.047,0.111
25116,1755587212360,53.55,-18.9,175.06,782,894,831,877,890,47.61904761904762,-0.996,-0.047,0.112
25145,1755587212391,53.52,-18.88,175.31,782,890,825,881,891,34.48275862068966,-0.997,-0.046,0.108
25165,1755587212411,53.71,-18.92,175.48,780,902,813,883,890,50.0,-0.999,-0.046,0.107
25195,1755587212440,53.68,-18.92,175.77,775,889,827,877,893,33.333333333333336,-1.002,-0.048,0.108
25215,1755587212461,53.87,-18.96,175.98,782,895,822,879,899,50.0,-1.003,-0.049,0.109
25235,1755587212481,54.07,-18.97,176.19,781,906,844,878,888,50.0,-1.002,-0.048,0.111
25265,1755587212510,54.03,-18.91,176.49,781,897,827,864,884,33.333333333333336,-0.997,-0.045,0.112
25295,1755587212540,54.02,-18.85,176.74,784,898,822,879,890,33.333333333333336,-0.995,-0.043,0.11
25325,1755587212570,53.97,-18.81,177.0,783,900,813,872,892,33.333333333333336,-1.0,-0.044,0.108
25355,1755587212600,53.91,-18.82,177.28,787,896,826,877,897,33.333333333333336,-0.999,-0.045,0.107
25384,1755587212629,53.88,-18.77,177.57,783,897,824,877,895,34.48275862068966,-0.999,-0.044,0.108
25414,1755587212659,53.82,-18.77,177.83,794,888,833,874,899,33.333333333333336,-0.996,-0.043,0.109
