timestamp_ms,recv_timestamp_ms,pitch,roll,yaw,flex1,flex2,flex3,flex4,flex5,sampling_hz,accel_x,accel_y,accel_z
52618,1755587161524,10.23,60.64,69.09,822,895,867,879,883,34.48275862068966,-0.223,0.844,0.5
52648,1755587161554,10.19,60.61,69.18,816,883,864,883,874,33.333333333333336,-0.222,0.844,0.497
52677,1755587161583,10.23,60.55,69.17,819,888,848,877,888,34.48275862068966,-0.22,0.846,0.501
52706,1755587161612,10.21,60.52,69.17,824,885,872,879,881,34.48275862068966,-0.218,0.844,0.499
52736,1755587161642,10.17,60.49,69.25,816,884,852,879,884,33.333333333333336,-0.22,0.847,0.5
52765,1755587161671,10.17,60.48,69.25,824,880,868,878,884,34.48275862068966,-0.22,0.848,0.506
52795,1755587161701,10.16,60.49,69.25,816,876,854,886,884,33.333333333333336,-0.221,0.844,0.506
52824,1755587161730,10.14,60.47,69.3,823,898,860,891,882,34.48275862068966,-0.222,0.842,0.499
52854,1755587161760,10.11,60.42,69.32,819,884,846,885,883,33.333333333333336,-0.222,0.842,0.502
52883,1755587161789,10.12,60.4,69.33,821,890,863,894,883,34.48275862068966,-0.223,0.845,0.505
52913,1755587161819,10.13,60.41,69.38,823,891,850,880,883,33.333333333333336,-0.222,0.842,0.507
52942,1755587161848,10.17,60.44,69.39,821,887,860,885,891,34.48275862068966,-0.22,0.842,0.504
52971,1755587161877,10.18,60.41,69.37,821,885,857,879,873,34.48275862068966,-0.219,0.839,0.5
53001,1755587161907,10.18,60.37,69.42,818,885,857,876,888,33.333333333333336,-0.222,0.841,0.498
53030,1755587161936,10.17,60.34,69.48,815,892,853,877,893,34.48275862068966,-0.216,0.844,0.499
53060,1755587161966,10.21,60.29,69.36,819,889,845,898,891,33.333333333333336,-0.22,0.842,0.501
53089,1755587161996,10.21,60.32,69.45,824,886,853,879,879,34.48275862068966,-0.223,0.84,0.502
53119,1755587162025,10.18,60.32,69.53,818,876,853,884,887,33.333333333333336,-0.223,0.842,0.508
53149,1755587162055,10.25,60.51,69.56,820,886,851,882,883,33.333333333333336,-0.224,0.844,0.517
53178,1755587162085,10.27,60.71,69.59,814,889,863,887,899,34.48275862068966,-0.223,0.838,0.511
53208,1755587162114,10.29,60.91,69.72,824,893,860,880,890,33.333333333333336,-0.226,0.833,0.51
53237,1755587162144,10.29,61.05,69.93,817,893,858,876,875,34.48275862068966,-0.227,0.842,0.502
53267,1755587162173,10.3,61.17,70.1,815,884,860,880,884,33.333333333333336,-0.224,0.837,0.509
53297,1755587162203,10.41,61.62,70.25,822,897,860,878,882,33.333333333333336,-0.225,0.843,0.509
53326,1755587162232,10.52,62.04,70.53,822,887,851,879,885,34.48275862068966,-0.224,0.844,0.495
53356,1755587162262,10.44,62.42,70.73,824,896,863,888,895,33.333333333333336,-0.216,0.846,0.486
53385,1755587162291,10.51,62.68,70.81,825,888,846,877,875,34.48275862068966,-0.214,0.858,0.479
53414,1755587162321,10.48,62.93,70.84,825,893,854,880,904,34.48275862068966,-0.207,0.861,0.472
53444,1755587162350,10.46,62.76,70.84,819,891,861,883,882,33.333333333333336,-0.207,0.859,0.467
53473,1755587162379,10.36,62.68,70.91,830,890,857,873,890,34.48275862068966,-0.204,0.858,0.466
53503,1755587162408,10.33,62.73,70.91,818,881,857,881,879,33.333333333333336,-0.208,0.866,0.468
53532,1755587162438,10.34,62.75,70.92,830,894,861,885,892,34.48275862068966,-0.209,0.864,0.46
53561,1755587162468,10.33,62.71,70.97,821,887,854,887,885,34.48275862068966,-0.211,0.865,0.458
53591,1755587162497,10.29,62.74,71.02,818,891,841,879,884,33.333333333333336,-0.207,0.867,0.461
53620,1755587162527,10.24,62.69,71.05,819,885,858,892,885,34.48275862068966,-0.204,0.87,0.455
53650,1755587162556,10.11,62.5,71.03,821,892,855,880,900,33.333333333333336,-0.203,0.868,0.456
53679,1755587162585,10.08,62.41,71.0,817,885,853,879,889,34.48275862068966,-0.209,0.869,0.463
53709,1755587162615,10.01,62.36,71.02,822,885,853,881,883,33.333333333333336,-0.212,0.87,0.464
53738,1755587162644,9.96,62.2,71.04,825,886,858,887,885,34.48275862068966,-0.211,0.866,0.465
53768,1755587162674,9.94,62.13,71.06,817,883,839,871,886,33.333333333333336,-0.21,0.863,0.468
53797,1755587162703,9.94,62.04,71.06,823,881,855,883,878,34.48275862068966,-0.21,0.864,0.466
53827,1755587162732,9.88,61.83,71.04,818,887,853,888,878,33.333333333333336,-0.208,0.865,0.468
53856,1755587162762,9.86,61.81,71.02,823,885,849,888,888,34.48275862068966,-0.207,0.864,0.477
53885,1755587162791,9.9,61.83,71.02,824,878,851,885,883,34.48275862068966,-0.211,0.858,0.481
53915,1755587162821,9.93,61.75,71.06,816,885,847,865,870,33.333333333333336,-0.212,0.856,0.477
53945,1755587162850,9.91,61.8,71.12,818,888,849,883,877,33.333333333333336,-0.21,0.86,0.48
53974,1755587162880,9.96,61.73,71.07,820,883,854,880,880,34.48275862068966,-0.209,0.86,0.481
54003,1755587162909,9.99,61.75,71.06,817,882,850,884,888,34.48275862068966,-0.209,0.86,0.48
54033,1755587162939,9.96,61.7,71.04,822,900,855,889,889,33.333333333333336,-0.207,0.861,0.472
54062,1755587162968,9.9,61.39,70.98,816,882,857,877,909,34.48275862068966,-0.209,0.854,0.477
54092,1755587162998,9.92,61.3,70.94,826,894,851,885,885,33.333333333333336,-0.219,0.858,0.489
54121,1755587163027,9.96,61.35,70.99,826,883,863,887,886,34.48275862068966,-0.22,0.854,0.488
54151,1755587163057,9.97,61.3,71.07,819,882,848,884,882,33.333333333333336,-0.218,0.852,0.485
54180,1755587163086,10.01,61.23,71.11,824,886,851,873,902,34.48275862068966,-0.212,0.851,0.491
54210,1755587163116,10.03,61.25,71.09,826,889,856,884,886,33.333333333333336,-0.211,0.853,0.492
54239,1755587163145,10.02,61.26,71.1,819,885,849,879,886,34.48275862068966,-0.212,0.852,0.492
54269,1755587163175,10.03,61.24,71.13,822,894,859,883,886,33.333333333333336,-0.214,0.852,0.489
54298,1755587163205,10.01,61.14,71.17,822,876,849,885,882,34.48275862068966,-0.216,0.851,0.488
54328,1755587163234,9.98,61.11,71.26,823,884,857,884,891,33.333333333333336,-0.216,0.849,0.495
54357,1755587163263,10.03,61.12,71.27,818,888,863,894,894,34.48275862068966,-0.213,0.85,0.494
54387,1755587163293,10.04,61.06,71.25,827,882,852,884,883,33.333333333333336,-0.212,0.851,0.486
54416,1755587163322,9.99,60.91,71.26,812,884,854,887,883,34.48275862068966,-0.213,0.849,0.486
54446,1755587163352,10.01,60.82,71.25,822,883,861,876,872,33.333333333333336,-0.219,0.848,0.497
54475,1755587163382,10.01,60.86,71.33,807,886,849,885,886,34.48275862068966,-0.218,0.848,0.502
54505,1755587163411,10.0,60.84,71.31,819,889,856,899,889,33.333333333333336,-0.213,0.847,0.501
54534,1755587163440,10.03,60.82,71.28,823,898,844,878,888,34.48275862068966,-0.213,0.848,0.499
54564,1755587163470,10.07,60.75,71.29,817,890,866,883,896,33.333333333333336,-0.218,0.848,0.499
54593,1755587163499,10.08,60.73,71.32,820,886,866,885,894,34.48275862068966,-0.222,0.847,0.498
54622,1755587163529,10.1,60.71,71.38,816,881,865,871,897,34.48275862068966,-0.222,0.847,0.497
54652,1755587163558,10.08,60.65,71.43,820,880,847,875,881,33.333333333333336,-0.218,0.849,0.497
54681,1755587163587,10.06,60.56,71.41,823,877,853,884,889,34.48275862068966,-0.217,0.848,0.5
54711,1755587163617,10.07,60.51,71.44,820,888,858,880,880,33.333333333333336,-0.218,0.842,0.503
54740,1755587163646,10.08,60.51,71.5,821,885,870,874,886,34.48275862068966,-0.222,0.845,0.501
54770,1755587163676,10.05,60.43,71.53,820,886,858,881,884,33.333333333333336,-0.22,0.843,0.5
54799,1755587163705,10.05,60.37,71.56,818,886,852,881,900,34.48275862068966,-0.218,0.842,0.507
54829,1755587163735,10.08,60.34,71.58,815,878,854,884,904,33.333333333333336,-0.218,0.843,0.511
54849,1755587163755,10.1,60.36,71.6,824,886,851,884,890,50.0,-0.217,0.842,0.513
54878,1755587163784,10.11,60.36,71.63,822,882,844,870,874,34.48275862068966,-0.216,0.84,0.509
54908,1755587163814,10.13,60.32,71.66,822,891,854,885,885,33.333333333333336,-0.216,0.84,0.507
54938,1755587163844,10.13,60.31,71.68,822,893,853,886,885,33.333333333333336,-0.218,0.841,0.508
54967,1755587163873,10.15,60.33,71.72,816,885,854,888,883,34.48275862068966,-0.22,0.841,0.508
54997,1755587163903,10.14,60.29,71.77,820,889,853,879,885,33.333333333333336,-0.215,0.839,0.506
55026,1755587163933,10.14,60.19,71.78,823,884,864,881,880,34.48275862068966,-0.213,0.839,0.508
55056,1755587163962,10.16,60.2,71.76,818,882,865,875,880,33.333333333333336,-0.216,0.84,0.511
55086,1755587163992,10.21,60.18,71.71,817,889,858,877,880,33.333333333333336,-0.219,0.837,0.508
55115,1755587164021,10.23,60.11,71.77,815,891,851,890,889,34.48275862068966,-0.224,0.837,0.505
55145,1755587164051,10.24,60.06,71.8,821,886,857,903,889,33.333333333333336,-0.223,0.836,0.508
55174,1755587164080,10.26,60.07,71.87,822,896,852,875,888,34.48275862068966,-0.22,0.839,0.512
55203,1755587164109,10.27,60.07,71.88,819,889,844,878,883,34.48275862068966,-0.218,0.838,0.513
55233,1755587164139,10.25,60.06,71.89,820,893,850,879,884,33.333333333333336,-0.217,0.837,0.511
55262,1755587164168,10.26,60.04,71.89,820,895,859,880,878,34.48275862068966,-0.219,0.835,0.51
55291,1755587164198,10.28,60.0,71.9,823,886,862,898,895,34.48275862068966,-0.222,0.837,0.507
55321,1755587164227,10.23,59.94,71.95,814,885,856,885,881,33.333333333333336,-0.223,0.839,0.508
55351,1755587164257,10.22,59.97,71.98,818,889,859,879,886,33.333333333333336,-0.222,0.836,0.515
55380,1755587164287,10.29,60.04,72.01,823,890,858,882,888,34.48275862068966,-0.22,0.836,0.512
55410,1755587164316,10.27,59.99,72.02,823,884,847,881,884,33.333333333333336,-0.218,0.838,0.51
55439,1755587164346,10.23,60.02,72.01,818,893,856,872,884,34.48275862068966,-0.217,0.836,0.516
55469,1755587164375,10.27,60.16,72.05,816,884,858,879,879,33.333333333333336,-0.221,0.835,0.513
55499,1755587164405,10.31,60.24,72.05,828,883,846,891,886,33.333333333333336,-0.222,0.836,0.508
55528,1755587164434,10.32,60.25,72.08,829,890,856,881,882,34.48275862068966,-0.224,0.838,0.506
55558,1755587164464,10.3,60.29,72.16,823,893,854,875,890,33.333333333333336,-0.225,0.835,0.508
55587,1755587164493,10.36,60.41,72.22,818,891,851,882,888,34.48275862068966,-0.225,0.839,0.51
55616,1755587164522,10.42,60.5,72.21,817,888,853,886,884,34.48275862068966,-0.223,0.841,0.51
55646,1755587164552,10.46,60.58,72.24,819,883,854,882,887,33.333333333333336,-0.22,0.839,0.511
55675,1755587164581,10.57,60.78,72.28,823,883,864,897,894,34.48275862068966,-0.221,0.841,0.509
55704,1755587164610,10.65,60.87,72.27,827,877,865,886,874,34.48275862068966,-0.224,0.842,0.497
55734,1755587164640,10.68,60.98,72.3,819,880,846,885,881,33.333333333333336,-0.227,0.843,0.498
55763,1755587164669,10.78,61.1,72.38,825,886,859,886,879,34.48275862068966,-0.229,0.84,0.502
55793,1755587164699,10.89,61.44,72.44,818,885,866,881,871,33.333333333333336,-0.228,0.844,0.502
55822,1755587164728,10.92,61.63,72.54,817,880,857,881,881,34.48275862068966,-0.227,0.848,0.494
55852,1755587164758,10.88,61.75,72.62,818,897,853,887,886,33.333333333333336,-0.22,0.847,0.489
55881,1755587164787,10.89,61.79,72.62,821,889,868,887,885,34.48275862068966,-0.218,0.85,0.486
55911,1755587164817,10.86,61.74,72.65,823,892,847,892,887,33.333333333333336,-0.219,0.851,0.483
55940,1755587164846,10.83,61.71,72.69,826,895,859,877,895,34.48275862068966,-0.223,0.853,0.481
55970,1755587164876,10.86,61.79,72.72,817,889,862,885,902,33.333333333333336,-0.223,0.856,0.476
55999,1755587164905,10.88,61.75,72.76,821,885,857,889,885,34.48275862068966,-0.223,0.856,0.473
56028,1755587164934,10.82,61.69,72.84,810,891,862,882,872,34.48275862068966,-0.22,0.857,0.481
56058,1755587164963,10.83,61.76,72.83,817,889,845,881,886,33.333333333333336,-0.221,0.857,0.481
56087,1755587164993,10.84,61.73,72.87,821,888,859,875,884,34.48275862068966,-0.222,0.854,0.477
56117,1755587165023,10.79,61.72,72.94,824,881,863,882,885,33.333333333333336,-0.22,0.857,0.478
56146,1755587165052,10.79,61.77,72.89,818,883,859,885,897,34.48275862068966,-0.22,0.858,0.477
56176,1755587165082,10.78,61.81,72.9,821,887,856,878,878,33.333333333333336,-0.225,0.857,0.477
56205,1755587165111,10.77,61.79,72.91,819,886,861,875,918,34.48275862068966,-0.223,0.857,0.477
56235,1755587165140,10.76,61.72,72.92,826,886,855,884,884,33.333333333333336,-0.222,0.856,0.475
56264,1755587165170,10.72,61.73,72.92,821,890,860,881,882,34.48275862068966,-0.221,0.855,0.48
56293,1755587165199,10.74,61.78,72.94,823,875,852,877,883,34.48275862068966,-0.225,0.855,0.479
56323,1755587165228,10.75,61.81,72.95,820,887,859,885,874,33.333333333333336,-0.224,0.856,0.474
56352,1755587165258,10.71,61.74,72.96,817,884,855,881,891,34.48275862068966,-0.224,0.856,0.476
56381,1755587165287,10.65,61.68,73.0,819,888,856,878,890,34.48275862068966,-0.221,0.852,0.481
56411,1755587165317,10.69,61.69,72.99,821,897,860,892,887,33.333333333333336,-0.224,0.854,0.483
56440,1755587165346,10.7,61.7,72.99,821,888,857,893,890,34.48275862068966,-0.225,0.856,0.481
56469,1755587165375,10.67,61.59,72.98,819,889,851,884,886,34.48275862068966,-0.224,0.85,0.48
56499,1755587165405,10.69,61.65,73.03,821,881,863,881,892,33.333333333333336,-0.227,0.853,0.482
56528,1755587165434,10.71,61.69,73.05,823,881,856,881,877,34.48275862068966,-0.227,0.856,0.477
56558,1755587165464,10.64,61.56,73.07,824,890,859,884,883,33.333333333333336,-0.228,0.855,0.475
56587,1755587165493,10.58,61.39,73.14,821,877,854,876,885,34.48275862068966,-0.226,0.851,0.484
56616,1755587165523,10.62,61.39,73.17,821,886,873,880,879,34.48275862068966,-0.228,0.852,0.488
56646,1755587165552,10.63,61.46,73.23,818,886,855,890,885,33.333333333333336,-0.224,0.854,0.483
56675,1755587165581,10.58,61.35,73.23,814,893,856,888,897,34.48275862068966,-0.221,0.852,0.483
56705,1755587165611,10.56,61.32,73.24,818,885,844,882,885,33.333333333333336,-0.222,0.852,0.485
56734,1755587165640,10.58,61.3,73.26,818,888,854,881,887,34.48275862068966,-0.227,0.853,0.486
56764,1755587165670,10.61,61.31,73.29,825,892,855,885,876,33.333333333333336,-0.228,0.854,0.485
56793,1755587165699,10.62,61.28,73.31,827,886,847,868,886,34.48275862068966,-0.227,0.852,0.485
56823,1755587165729,10.66,61.29,73.3,821,890,859,883,883,33.333333333333336,-0.226,0.854,0.489
56852,1755587165758,10.64,61.36,73.39,826,891,857,878,899,34.48275862068966,-0.226,0.85,0.49
56882,1755587165788,10.68,61.33,73.38,828,886,862,882,880,33.333333333333336,-0.227,0.851,0.483
56902,1755587165808,10.69,61.29,73.39,815,891,861,885,882,50.0,-0.228,0.85,0.482
56931,1755587165837,10.7,61.26,73.4,820,888,862,887,886,34.48275862068966,-0.229,0.854,0.486
56961,1755587165867,10.71,61.26,73.42,819,891,846,884,888,33.333333333333336,-0.228,0.849,0.489
56990,1755587165896,10.73,61.32,73.5,822,890,845,881,871,34.48275862068966,-0.227,0.851,0.485
57020,1755587165926,10.69,61.25,73.49,823,884,865,890,889,33.333333333333336,-0.224,0.849,0.487
57049,1755587165955,10.7,61.3,73.52,821,887,851,883,882,34.48275862068966,-0.228,0.851,0.483
57078,1755587165984,10.74,61.31,73.58,818,888,864,876,882,34.48275862068966,-0.227,0.849,0.481
57108,1755587166014,10.69,61.24,73.62,823,897,859,880,896,33.333333333333336,-0.22,0.849,0.478
57137,1755587166044,10.69,61.15,73.62,827,881,857,888,894,34.48275862068966,-0.223,0.851,0.482
57157,1755587166063,10.68,61.09,73.63,820,889,861,884,887,50.0,-0.225,0.847,0.489
57187,1755587166093,10.69,61.14,73.71,818,873,856,891,883,33.333333333333336,-0.228,0.849,0.491
57216,1755587166122,10.72,61.16,73.74,820,883,850,884,890,34.48275862068966,-0.225,0.849,0.484
57246,1755587166152,10.66,61.05,73.76,822,883,859,877,883,33.333333333333336,-0.223,0.849,0.483
57275,1755587166181,10.66,60.98,73.77,821,883,857,884,888,34.48275862068966,-0.223,0.849,0.49
57304,1755587166210,10.72,60.99,73.67,826,882,852,892,893,34.48275862068966,-0.223,0.848,0.489
57334,1755587166240,10.72,60.96,73.69,824,883,854,885,891,33.333333333333336,-0.231,0.847,0.49
57363,1755587166269,10.68,60.88,73.76,818,878,845,884,892,34.48275862068966,-0.231,0.847,0.489
57392,1755587166298,10.73,60.87,73.79,815,894,863,885,878,34.48275862068966,-0.23,0.846,0.495
57422,1755587166328,10.74,60.89,73.81,826,894,854,885,901,33.333333333333336,-0.225,0.845,0.495
57451,1755587166358,10.71,60.86,73.85,817,888,858,888,877,34.48275862068966,-0.223,0.846,0.494
57472,1755587166378,10.71,60.82,73.83,819,891,861,876,875,47.61904761904762,-0.22,0.844,0.492
57501,1755587166407,10.75,60.7,73.76,823,880,859,891,879,34.48275862068966,-0.224,0.841,0.491
57531,1755587166438,10.74,60.64,73.82,821,888,855,879,875,33.333333333333336,-0.232,0.841,0.493
57551,1755587166457,10.73,60.58,73.85,822,890,845,896,883,50.0,-0.233,0.841,0.495
57580,1755587166486,10.73,60.57,73.93,820,889,868,880,877,34.48275862068966,-0.229,0.844,0.496
57610,1755587166516,10.72,60.58,73.91,819,894,858,879,880,33.333333333333336,-0.226,0.844,0.495
57639,1755587166545,10.68,60.54,73.95,819,895,854,884,884,34.48275862068966,-0.227,0.842,0.491
57669,1755587166575,10.64,60.43,73.96,821,878,857,885,879,33.333333333333336,-0.226,0.845,0.495
57698,1755587166604,10.64,60.41,73.96,820,885,855,878,889,34.48275862068966,-0.23,0.846,0.507
57727,1755587166633,10.65,60.52,74.04,817,891,858,876,884,34.48275862068966,-0.229,0.843,0.507
57757,1755587166663,10.67,60.53,74.02,821,881,842,886,888,33.333333333333336,-0.227,0.838,0.5
57786,1755587166692,10.67,60.44,74.07,822,889,842,883,888,34.48275862068966,-0.232,0.837,0.497
57815,1755587166721,10.63,60.35,74.18,822,889,858,884,887,34.48275862068966,-0.23,0.839,0.503
57845,1755587166751,10.71,60.45,74.15,825,880,851,880,879,33.333333333333336,-0.229,0.844,0.512
57874,1755587166780,10.76,60.5,74.15,818,895,861,881,876,34.48275862068966,-0.228,0.839,0.505
57904,1755587166810,10.71,60.44,74.27,818,878,861,879,895,33.333333333333336,-0.227,0.835,0.5
57933,1755587166839,10.72,60.38,74.31,827,884,854,880,882,34.48275862068966,-0.224,0.84,0.501
57962,1755587166868,10.76,60.41,74.27,821,880,840,902,897,34.48275862068966,-0.227,0.844,0.503
57992,1755587166898,10.76,60.44,74.32,817,889,846,886,889,33.333333333333336,-0.229,0.841,0.506
58021,1755587166927,10.77,60.45,74.34,820,875,854,888,892,34.48275862068966,-0.227,0.838,0.502
58051,1755587166956,10.76,60.4,74.35,819,881,839,886,887,33.333333333333336,-0.224,0.838,0.499
58080,1755587166986,10.71,60.37,74.38,825,877,858,880,876,34.48275862068966,-0.228,0.842,0.504
58109,1755587167015,10.71,60.46,74.41,818,890,851,882,885,34.48275862068966,-0.229,0.841,0.505
58138,1755587167044,10.69,60.52,74.46,823,885,860,883,879,34.48275862068966,-0.227,0.838,0.5
58168,1755587167074,10.68,60.53,74.5,825,890,854,881,885,33.333333333333336,-0.229,0.839,0.503
58197,1755587167104,10.74,60.6,74.56,823,885,859,884,895,34.48275862068966,-0.235,0.838,0.51
58227,1755587167133,10.76,60.88,74.7,813,889,859,889,893,33.333333333333336,-0.233,0.843,0.505
58256,1755587167163,10.77,60.87,74.7,821,888,868,871,888,34.48275862068966,-0.225,0.837,0.498
58286,1755587167192,10.83,60.88,74.68,823,891,855,876,882,33.333333333333336,-0.224,0.839,0.502
58315,1755587167222,10.93,61.34,74.7,823,885,856,873,893,34.48275862068966,-0.23,0.845,0.515
58345,1755587167251,11.1,61.78,74.7,822,877,845,885,881,33.333333333333336,-0.231,0.846,0.504
58374,1755587167281,11.21,61.9,74.73,826,887,859,884,886,34.48275862068966,-0.23,0.842,0.478
58404,1755587167310,11.16,61.81,74.8,822,880,848,882,917,33.333333333333336,-0.23,0.845,0.469
58433,1755587167339,11.14,61.74,74.9,824,890,865,883,888,34.48275862068966,-0.233,0.851,0.473
58463,1755587167369,11.15,61.7,74.93,819,887,864,880,886,33.333333333333336,-0.231,0.855,0.478
58492,1755587167398,11.14,61.76,75.0,826,874,856,890,875,34.48275862068966,-0.227,0.855,0.478
58522,1755587167427,11.05,61.63,74.97,827,885,855,877,884,33.333333333333336,-0.221,0.852,0.472
58551,1755587167457,11.0,61.44,74.98,828,877,852,891,888,34.48275862068966,-0.228,0.848,0.477
58580,1755587167487,10.99,61.39,75.05,821,888,865,881,889,34.48275862068966,-0.231,0.851,0.486
58610,1755587167517,11.03,61.41,75.11,820,889,848,892,894,33.333333333333336,-0.231,0.853,0.485
58640,1755587167546,11.05,61.28,75.07,817,883,862,883,897,33.333333333333336,-0.227,0.851,0.482
58669,1755587167575,10.98,61.23,75.07,822,893,853,865,881,34.48275862068966,-0.227,0.852,0.483
58699,1755587167605,10.97,61.3,75.09,821,885,865,879,878,33.333333333333336,-0.23,0.854,0.48
58728,1755587167634,10.94,61.18,75.12,815,887,864,886,875,34.48275862068966,-0.231,0.853,0.477
58758,1755587167664,10.9,61.01,75.12,817,887,857,877,885,33.333333333333336,-0.232,0.852,0.481
58787,1755587167693,10.91,61.0,75.18,821,888,858,882,893,34.48275862068966,-0.233,0.848,0.493
58817,1755587167723,10.91,61.05,75.24,822,887,847,880,877,33.333333333333336,-0.227,0.847,0.493
58846,1755587167752,10.89,61.01,75.2,818,887,840,887,881,34.48275862068966,-0.224,0.849,0.486
58876,1755587167781,10.87,60.93,75.18,819,882,860,875,891,33.333333333333336,-0.226,0.848,0.488
58905,1755587167811,10.87,60.93,75.14,826,891,848,886,895,34.48275862068966,-0.229,0.847,0.494
58935,1755587167840,10.92,60.97,75.15,822,878,857,883,886,33.333333333333336,-0.234,0.847,0.492
58964,1755587167870,10.9,60.91,75.2,824,894,860,886,887,34.48275862068966,-0.231,0.842,0.489
58993,1755587167899,10.88,60.88,75.24,817,892,851,893,889,34.48275862068966,-0.23,0.846,0.491
59023,1755587167928,10.87,60.87,75.26,823,889,857,891,878,33.333333333333336,-0.231,0.845,0.493
59052,1755587167958,10.83,60.81,75.29,820,874,858,886,886,34.48275862068966,-0.233,0.843,0.492
59082,1755587167988,10.8,60.72,75.35,818,883,849,881,889,33.333333333333336,-0.233,0.842,0.491
59111,1755587168017,10.79,60.6,75.36,820,890,844,883,884,34.48275862068966,-0.23,0.84,0.494
59140,1755587168046,10.8,60.65,75.42,821,892,858,887,875,34.48275862068966,-0.232,0.843,0.497
59170,1755587168075,10.82,60.64,75.43,822,882,849,875,886,33.333333333333336,-0.231,0.843,0.499
59199,1755587168105,10.84,60.66,75.44,821,891,863,884,889,34.48275862068966,-0.227,0.845,0.499
59228,1755587168134,10.86,60.69,75.46,822,891,861,880,883,34.48275862068966,-0.228,0.842,0.499
59258,1755587168164,10.88,60.66,75.48,818,886,855,880,879,33.333333333333336,-0.23,0.844,0.494
59287,1755587168194,10.86,60.57,75.51,822,895,879,882,890,34.48275862068966,-0.232,0.844,0.498
59317,1755587168223,10.89,60.64,75.51,824,883,852,880,886,33.333333333333336,-0.231,0.843,0.503
59346,1755587168253,10.93,60.7,75.54,819,886,857,879,880,34.48275862068966,-0.231,0.842,0.496
59376,1755587168282,10.89,60.57,75.57,814,868,854,878,887,33.333333333333336,-0.23,0.84,0.491
59405,1755587168311,10.86,60.53,75.63,819,876,861,883,882,34.48275862068966,-0.233,0.842,0.498
59435,1755587168341,10.95,60.66,75.63,835,895,851,886,892,33.333333333333336,-0.237,0.844,0.503
59464,1755587168371,10.95,60.67,75.71,817,882,847,883,883,34.48275862068966,-0.234,0.84,0.494
59494,1755587168400,10.9,60.55,75.77,820,890,866,883,879,33.333333333333336,-0.228,0.839,0.494
59524,1755587168429,10.92,60.62,75.76,828,883,859,877,887,33.333333333333336,-0.229,0.845,0.503
59553,1755587168459,10.94,60.71,75.79,824,884,849,885,887,34.48275862068966,-0.231,0.845,0.506
59582,1755587168489,10.93,60.72,75.83,825,888,856,885,892,34.48275862068966,-0.228,0.841,0.501
59612,1755587168518,10.97,60.75,75.82,817,882,853,876,883,33.333333333333336,-0.229,0.84,0.494
59641,1755587168547,10.97,60.75,75.88,820,889,860,887,887,34.48275862068966,-0.236,0.842,0.498
59671,1755587168577,10.99,60.86,75.97,817,883,857,881,888,33.333333333333336,-0.237,0.842,0.501
59700,1755587168606,11.02,61.02,76.04,819,886,863,878,891,34.48275862068966,-0.229,0.838,0.495
59729,1755587168636,10.99,61.02,76.07,823,889,846,885,890,34.48275862068966,-0.228,0.837,0.496
59759,1755587168665,11.06,61.13,76.13,820,887,856,881,878,33.333333333333336,-0.233,0.841,0.498
59788,1755587168694,11.15,61.4,76.21,818,880,865,881,886,34.48275862068966,-0.233,0.844,0.497
59818,1755587168725,11.15,61.46,76.25,823,881,853,878,883,33.333333333333336,-0.229,0.847,0.483
59838,1755587168744,11.09,61.33,76.28,821,890,850,882,883,50.0,-0.224,0.841,0.476
59867,1755587168773,11.0,61.32,76.32,822,884,843,881,876,34.48275862068966,-0.226,0.844,0.486
59897,1755587168803,11.04,61.53,76.38,819,880,860,888,882,33.333333333333336,-0.233,0.851,0.49
59926,1755587168833,11.04,61.51,76.44,822,879,858,888,888,34.48275862068966,-0.228,0.848,0.479
59956,1755587168862,10.97,61.43,76.5,820,880,855,884,893,33.333333333333336,-0.222,0.845,0.478
59986,1755587168892,10.97,61.43,76.51,816,884,844,873,881,33.333333333333336,-0.224,0.851,0.481
60015,1755587168921,10.99,61.38,76.52,813,879,862,881,879,34.48275862068966,-0.228,0.854,0.483
60044,1755587168950,10.98,61.33,76.56,825,893,858,881,873,34.48275862068966,-0.224,0.851,0.483
60073,1755587168979,10.95,61.28,76.54,819,887,849,880,878,34.48275862068966,-0.222,0.849,0.481
60103,1755587169009,10.84,61.15,76.56,822,885,846,878,885,33.333333333333336,-0.226,0.852,0.477
60132,1755587169039,10.79,61.02,76.58,825,889,849,878,875,34.48275862068966,-0.226,0.851,0.487
60162,1755587169068,10.83,61.07,76.6,823,888,855,884,889,33.333333333333336,-0.228,0.847,0.491
60191,1755587169098,10.88,61.09,76.6,821,889,851,885,880,34.48275862068966,-0.229,0.842,0.482
60221,1755587169128,10.89,61.0,76.67,821,886,861,876,887,33.333333333333336,-0.231,0.846,0.486
60251,1755587169157,10.93,60.96,76.68,813,891,854,881,887,33.333333333333336,-0.23,0.847,0.493
60280,1755587169187,10.88,60.96,76.74,819,895,849,884,886,34.48275862068966,-0.226,0.845,0.492
60310,1755587169216,10.86,60.85,76.73,825,884,864,878,881,33.333333333333336,-0.225,0.843,0.492
60339,1755587169246,10.86,60.82,76.74,822,885,861,885,884,34.48275862068966,-0.227,0.845,0.494
60369,1755587169275,10.84,60.79,76.77,825,882,867,891,882,33.333333333333336,-0.228,0.845,0.496
60399,1755587169304,10.82,60.81,76.81,823,893,863,883,889,33.333333333333336,-0.227,0.844,0.494
60428,1755587169334,10.81,60.78,76.84,819,886,853,869,893,34.48275862068966,-0.227,0.843,0.49
60457,1755587169363,10.78,60.72,76.89,826,886,854,879,876,34.48275862068966,-0.227,0.843,0.492
60487,1755587169393,10.77,60.64,76.91,821,883,862,884,883,33.333333333333336,-0.226,0.842,0.496
60516,1755587169422,10.76,60.54,76.97,819,886,864,876,889,34.48275862068966,-0.224,0.84,0.498
60546,1755587169452,10.75,60.5,76.99,824,884,856,878,887,33.333333333333336,-0.224,0.842,0.501
60575,1755587169482,10.72,60.53,77.0,824,880,839,892,890,34.48275862068966,-0.222,0.843,0.501
60595,1755587169501,10.74,60.52,77.02,818,887,856,888,889,50.0,-0.222,0.841,0.502
60625,1755587169531,10.72,60.52,77.04,820,887,853,883,881,33.333333333333336,-0.224,0.841,0.501
60654,1755587169560,10.71,60.49,77.05,817,883,854,884,880,34.48275862068966,-0.225,0.839,0.502
60683,1755587169590,10.72,60.5,77.1,822,880,865,879,891,34.48275862068966,-0.225,0.842,0.503
60713,1755587169619,10.73,60.47,77.1,821,890,865,883,884,33.333333333333336,-0.224,0.843,0.501
60742,1755587169648,10.69,60.47,77.14,818,892,854,883,874,34.48275862068966,-0.224,0.843,0.501
60772,1755587169678,10.7,60.39,77.13,818,889,857,879,893,33.333333333333336,-0.226,0.839,0.502
60801,1755587169707,10.75,60.34,77.12,822,886,858,885,885,34.48275862068966,-0.228,0.841,0.502
60830,1755587169737,10.76,60.35,77.16,815,890,854,881,886,34.48275862068966,-0.227,0.84,0.507
60860,1755587169766,10.77,60.36,77.18,823,896,861,881,874,33.333333333333336,-0.224,0.842,0.504
60890,1755587169795,10.77,60.31,77.19,820,886,851,889,892,33.333333333333336,-0.225,0.841,0.5
60919,1755587169825,10.73,60.17,77.22,824,881,863,890,884,34.48275862068966,-0.225,0.839,0.499
60948,1755587169854,10.69,60.11,77.24,818,889,859,879,877,34.48275862068966,-0.223,0.836,0.508
60978,1755587169884,10.75,60.17,77.25,820,877,876,891,890,33.333333333333336,-0.226,0.834,0.514
61007,1755587169913,10.79,60.19,77.27,820,890,853,880,874,34.48275862068966,-0.227,0.833,0.507
61037,1755587169943,10.76,60.14,77.35,825,885,862,886,880,33.333333333333336,-0.229,0.835,0.507
61066,1755587169972,10.81,60.16,77.39,820,880,854,872,883,34.48275862068966,-0.229,0.835,0.513
61096,1755587170001,10.84,60.32,77.45,820,893,858,885,878,33.333333333333336,-0.228,0.839,0.515
61125,1755587170032,10.9,60.44,77.45,821,881,830,890,898,34.48275862068966,-0.225,0.838,0.509
61145,1755587170051,10.89,60.44,77.46,822,881,862,887,881,50.0,-0.224,0.833,0.502
61175,1755587170081,10.87,60.52,77.5,820,885,871,881,878,33.333333333333336,-0.225,0.838,0.508
61204,1755587170111,11.0,60.81,77.07,821,886,855,880,885,34.48275862068966,-0.23,0.838,0.509
61224,1755587170130,11.15,60.97,77.05,815,884,854,886,879,50.0,-0.24,0.832,0.498
61254,1755587170160,11.21,61.12,77.27,819,890,851,895,888,33.333333333333336,-0.248,0.829,0.493
61283,1755587170190,11.3,61.35,77.47,818,884,854,884,882,34.48275862068966,-0.239,0.835,0.497
61313,1755587170219,11.36,61.73,77.48,816,889,866,880,880,33.333333333333336,-0.223,0.845,0.494
61343,1755587170249,11.36,61.97,77.31,824,887,851,886,885,33.333333333333336,-0.219,0.851,0.488
