timestamp_ms,recv_timestamp_ms,pitch,roll,yaw,flex1,flex2,flex3,flex4,flex5,sampling_hz,accel_x,accel_y,accel_z
64615,1755587076134,61.53,-98.58,-33.26,773,779,777,754,881,50.0,-0.88,-0.48,-0.07
64635,1755587076154,61.4,-98.47,-33.22,769,775,778,746,884,50.0,-0.879,-0.48,-0.061
64655,1755587076174,61.28,-98.38,-33.19,773,778,774,752,886,50.0,-0.876,-0.477,-0.059
64675,1755587076194,61.32,-98.39,-33.18,771,767,771,753,891,50.0,-0.876,-0.476,-0.063
64705,1755587076224,61.44,-98.42,-33.18,768,772,777,754,889,33.333333333333336,-0.883,-0.469,-0.066
64735,1755587076254,61.53,-98.42,-33.19,765,767,773,757,879,33.333333333333336,-0.887,-0.463,-0.07
64765,1755587076284,61.5,-98.3,-33.21,769,763,787,748,878,33.333333333333336,-0.882,-0.461,-0.072
64786,1755587076304,61.54,-98.29,-33.26,774,777,774,751,886,47.61904761904762,-0.88,-0.461,-0.079
64806,1755587076324,61.6,-98.4,-33.34,773,778,773,752,884,50.0,-0.88,-0.465,-0.086
64835,1755587076354,61.6,-98.45,-33.4,772,773,771,753,877,34.48275862068966,-0.882,-0.47,-0.083
64865,1755587076384,61.46,-98.43,-33.45,767,771,774,756,884,33.333333333333336,-0.878,-0.473,-0.08
64895,1755587076414,61.49,-98.39,-33.49,768,771,767,754,882,33.333333333333336,-0.883,-0.473,-0.074
64925,1755587076444,61.53,-98.36,-33.49,774,771,769,752,884,33.333333333333336,-0.888,-0.474,-0.069
64955,1755587076474,61.34,-98.22,-33.47,768,769,774,758,875,33.333333333333336,-0.883,-0.473,-0.068
64975,1755587076494,61.23,-98.14,-33.47,774,769,773,752,886,50.0,-0.877,-0.475,-0.068
64995,1755587076514,61.15,-98.11,-33.49,775,771,766,752,878,50.0,-0.873,-0.479,-0.071
65015,1755587076534,61.08,-98.12,-33.51,773,774,773,755,883,50.0,-0.872,-0.48,-0.067
65035,1755587076554,61.0,-98.09,-33.52,776,776,768,748,872,50.0,-0.871,-0.478,-0.062
65065,1755587076584,60.84,-97.91,-33.49,772,774,775,756,881,33.333333333333336,-0.876,-0.483,-0.062
65095,1755587076614,60.82,-97.92,-33.46,771,771,771,752,879,33.333333333333336,-0.884,-0.485,-0.062
65116,1755587076634,60.89,-97.97,-33.44,767,766,780,755,884,47.61904761904762,-0.883,-0.485,-0.059
65145,1755587076664,60.99,-97.88,-33.32,774,764,780,749,891,34.48275862068966,-0.882,-0.482,-0.051
65175,1755587076694,61.01,-97.68,-33.25,770,772,771,754,887,33.333333333333336,-0.877,-0.478,-0.053
65195,1755587076714,61.07,-97.52,-33.29,770,776,769,756,886,50.0,-0.871,-0.475,-0.06
65215,1755587076734,61.13,-97.53,-33.34,772,779,778,751,866,50.0,-0.871,-0.467,-0.072
65245,1755587076764,61.05,-97.78,-33.47,763,770,775,757,866,33.333333333333336,-0.873,-0.466,-0.079
65265,1755587076784,60.99,-97.98,-33.62,770,769,774,750,884,50.0,-0.874,-0.468,-0.075
65295,1755587076814,60.98,-98.04,-33.71,768,777,774,745,871,33.333333333333336,-0.881,-0.475,-0.074
65315,1755587076834,60.98,-98.13,-33.74,767,772,768,751,887,50.0,-0.885,-0.48,-0.077
65335,1755587076854,60.93,-98.33,-33.78,774,769,775,753,885,50.0,-0.884,-0.482,-0.074
65365,1755587076884,60.91,-98.56,-33.86,768,765,771,755,888,33.333333333333336,-0.886,-0.481,-0.062
65395,1755587076914,60.87,-98.67,-33.93,773,771,774,749,878,33.333333333333336,-0.887,-0.479,-0.049
65425,1755587076944,60.8,-98.64,-33.89,778,769,769,746,875,33.333333333333336,-0.889,-0.476,-0.049
65445,1755587076964,60.74,-98.68,-33.8,770,780,778,755,892,50.0,-0.893,-0.475,-0.057
65475,1755587076993,60.65,-99.01,-33.67,774,781,775,754,882,33.333333333333336,-0.897,-0.484,-0.065
65505,1755587077023,60.48,-99.26,-33.63,769,772,774,750,887,33.333333333333336,-0.891,-0.485,-0.064
65535,1755587077054,60.44,-99.24,-33.52,772,773,773,752,880,33.333333333333336,-0.882,-0.481,-0.059
65555,1755587077073,60.51,-99.25,-33.38,774,773,771,749,868,50.0,-0.876,-0.477,-0.057
65585,1755587077103,60.65,-99.4,-33.31,776,771,778,746,884,33.333333333333336,-0.877,-0.484,-0.06
65615,1755587077133,60.75,-99.4,-33.28,766,781,773,748,888,33.333333333333336,-0.873,-0.486,-0.063
65644,1755587077163,60.75,-99.47,-33.3,771,764,781,752,890,34.48275862068966,-0.868,-0.483,-0.065
65674,1755587077193,60.91,-99.48,-33.27,769,774,762,749,882,33.333333333333336,-0.872,-0.477,-0.064
65704,1755587077223,60.9,-99.46,-33.26,768,772,779,747,880,33.333333333333336,-0.877,-0.473,-0.066
65734,1755587077253,60.85,-99.53,-33.28,774,775,767,743,887,33.333333333333336,-0.879,-0.471,-0.072
65764,1755587077283,60.88,-99.81,-33.34,770,777,772,752,884,33.333333333333336,-0.88,-0.47,-0.074
65794,1755587077312,60.98,-99.75,-33.28,778,775,776,738,881,33.333333333333336,-0.887,-0.468,-0.065
65824,1755587077342,60.86,-99.55,-33.23,768,773,775,746,895,33.333333333333336,-0.882,-0.468,-0.062
65854,1755587077372,60.78,-99.58,-33.25,772,773,778,745,887,33.333333333333336,-0.88,-0.472,-0.071
65884,1755587077402,60.83,-99.72,-33.26,771,773,769,748,883,33.333333333333336,-0.884,-0.467,-0.069
65913,1755587077432,60.81,-99.75,-33.38,768,763,762,748,874,34.48275862068966,-0.88,-0.459,-0.07
65943,1755587077462,60.74,-99.75,-33.46,772,777,768,750,878,33.333333333333336,-0.881,-0.462,-0.076
65963,1755587077482,60.7,-99.73,-33.49,775,773,770,743,888,50.0,-0.886,-0.47,-0.082
65983,1755587077502,60.65,-99.71,-33.48,775,773,772,750,892,50.0,-0.887,-0.479,-0.084
66013,1755587077532,60.72,-99.86,-33.46,778,777,767,748,889,33.333333333333336,-0.884,-0.484,-0.079
66043,1755587077562,60.77,-99.75,-33.38,775,778,775,755,850,33.333333333333336,-0.877,-0.485,-0.07
66073,1755587077592,60.92,-99.64,-33.31,772,773,775,744,886,33.333333333333336,-0.874,-0.478,-0.068
66103,1755587077622,60.9,-99.67,-33.34,771,763,775,748,891,33.333333333333336,-0.875,-0.473,-0.07
66133,1755587077652,60.9,-99.64,-33.32,770,773,771,752,882,33.333333333333336,-0.885,-0.475,-0.077
66163,1755587077681,60.96,-99.61,-33.23,771,783,774,754,887,33.333333333333336,-0.889,-0.475,-0.078
66193,1755587077712,61.03,-99.73,-33.17,770,762,773,757,875,33.333333333333336,-0.885,-0.473,-0.073
66213,1755587077731,61.08,-99.67,-33.09,758,766,764,748,880,50.0,-0.881,-0.468,-0.063
66243,1755587077761,61.04,-99.48,-33.01,764,771,767,745,888,33.333333333333336,-0.877,-0.464,-0.061
66273,1755587077791,61.02,-99.39,-33.02,771,782,781,744,885,33.333333333333336,-0.874,-0.466,-0.072
66303,1755587077822,61.11,-99.31,-32.99,768,768,766,750,881,33.333333333333336,-0.882,-0.469,-0.079
66323,1755587077842,61.13,-99.32,-32.96,774,779,779,749,888,50.0,-0.884,-0.463,-0.085
66343,1755587077862,61.16,-99.43,-32.98,769,767,771,752,882,50.0,-0.887,-0.454,-0.084
66373,1755587077891,61.18,-99.47,-33.03,770,772,771,753,887,33.333333333333336,-0.888,-0.457,-0.079
66403,1755587077921,61.15,-99.41,-33.01,768,773,774,756,888,33.333333333333336,-0.89,-0.467,-0.085
66423,1755587077941,61.13,-99.39,-32.98,772,765,775,754,891,50.0,-0.888,-0.47,-0.086
66453,1755587077971,61.2,-99.6,-33.0,777,769,774,751,881,33.333333333333336,-0.885,-0.466,-0.074
66483,1755587078001,61.13,-99.48,-33.01,773,775,773,749,887,33.333333333333336,-0.88,-0.464,-0.062
66513,1755587078031,61.2,-99.35,-33.02,775,775,775,753,888,33.333333333333336,-0.879,-0.466,-0.07
66542,1755587078061,61.23,-99.49,-33.03,772,777,778,750,896,34.48275862068966,-0.885,-0.466,-0.08
66572,1755587078091,61.22,-99.62,-33.0,775,769,772,749,879,33.333333333333336,-0.885,-0.464,-0.081
66602,1755587078121,61.18,-99.5,-32.93,769,788,770,739,887,33.333333333333336,-0.882,-0.465,-0.073
66623,1755587078141,61.12,-99.35,-32.89,776,784,776,750,883,47.61904761904762,-0.874,-0.465,-0.071
66652,1755587078171,61.16,-99.45,-32.96,776,779,770,751,885,34.48275862068966,-0.878,-0.467,-0.074
66673,1755587078191,61.23,-99.55,-33.0,776,772,775,751,885,47.61904761904762,-0.883,-0.47,-0.071
66702,1755587078221,61.37,-99.55,-32.98,778,778,792,748,896,34.48275862068966,-0.886,-0.47,-0.064
66732,1755587078251,61.44,-99.42,-32.93,776,774,771,749,887,33.333333333333336,-0.885,-0.467,-0.067
66762,1755587078281,61.43,-99.41,-32.95,775,768,771,749,875,33.333333333333336,-0.88,-0.463,-0.074
66792,1755587078311,61.36,-99.46,-32.98,775,778,775,751,879,33.333333333333336,-0.88,-0.464,-0.083
66812,1755587078331,61.29,-99.52,-32.99,768,765,773,751,878,50.0,-0.883,-0.465,-0.092
66842,1755587078361,61.14,-99.61,-32.99,771,778,773,748,888,33.333333333333336,-0.884,-0.465,-0.092
66872,1755587078391,61.36,-99.82,-33.04,768,766,765,745,893,33.333333333333336,-0.881,-0.465,-0.084
66902,1755587078421,61.58,-99.87,-33.03,769,773,777,749,880,33.333333333333336,-0.888,-0.467,-0.073
66932,1755587078450,61.48,-99.72,-32.98,772,775,778,741,882,33.333333333333336,-0.888,-0.466,-0.069
66962,1755587078481,61.58,-99.65,-32.95,778,779,773,752,885,33.333333333333336,-0.883,-0.467,-0.076
66982,1755587078500,61.71,-99.64,-32.94,757,767,774,752,878,50.0,-0.885,-0.468,-0.085
67012,1755587078530,61.72,-99.7,-32.93,775,783,782,751,887,33.333333333333336,-0.882,-0.462,-0.088
67042,1755587078561,61.72,-99.72,-32.96,770,771,770,750,882,33.333333333333336,-0.882,-0.46,-0.085
67062,1755587078581,61.72,-99.69,-32.98,769,773,777,750,881,50.0,-0.883,-0.461,-0.083
67082,1755587078601,61.67,-99.67,-32.99,773,772,776,764,878,50.0,-0.885,-0.466,-0.085
67112,1755587078631,61.63,-99.68,-33.0,774,778,769,752,899,33.333333333333336,-0.886,-0.47,-0.087
67142,1755587078660,61.65,-99.59,-32.97,771,770,769,750,883,33.333333333333336,-0.886,-0.47,-0.081
67172,1755587078690,61.66,-99.43,-32.9,769,772,781,740,874,33.333333333333336,-0.885,-0.47,-0.079
67201,1755587078720,61.68,-99.39,-32.88,768,774,771,746,887,34.48275862068966,-0.884,-0.468,-0.079
67231,1755587078750,61.74,-99.37,-32.88,769,771,766,748,867,33.333333333333336,-0.884,-0.464,-0.078
67251,1755587078770,61.77,-99.35,-32.87,771,774,774,746,890,50.0,-0.883,-0.463,-0.078
67281,1755587078800,61.8,-99.25,-32.87,764,766,768,747,899,33.333333333333336,-0.882,-0.462,-0.078
67311,1755587078830,61.86,-99.31,-32.9,773,772,769,749,887,33.333333333333336,-0.886,-0.464,-0.082
67341,1755587078860,61.91,-99.37,-32.91,770,774,766,749,889,33.333333333333336,-0.887,-0.462,-0.082
67371,1755587078890,61.96,-99.31,-32.91,776,781,769,745,871,33.333333333333336,-0.889,-0.462,-0.079
67391,1755587078910,61.93,-99.2,-32.9,769,776,771,752,880,50.0,-0.884,-0.461,-0.076
67421,1755587078940,61.97,-99.29,-32.98,766,768,774,766,879,33.333333333333336,-0.882,-0.464,-0.083
67451,1755587078970,62.01,-99.34,-33.01,766,776,776,751,889,33.333333333333336,-0.885,-0.465,-0.084
67471,1755587078990,62.07,-99.41,-33.03,769,771,782,751,891,50.0,-0.888,-0.468,-0.085
67501,1755587079019,62.18,-99.39,-33.01,765,778,773,749,886,33.333333333333336,-0.885,-0.465,-0.084
67531,1755587079049,62.27,-99.4,-33.02,778,768,778,747,880,33.333333333333336,-0.883,-0.463,-0.084
67561,1755587079080,61.84,-99.42,-33.04,770,776,773,744,882,33.333333333333336,-0.886,-0.464,-0.084
67581,1755587079100,61.84,-99.39,-33.04,779,760,781,749,881,50.0,-0.885,-0.465,-0.086
67601,1755587079120,61.82,-99.39,-33.05,770,772,771,754,891,50.0,-0.885,-0.465,-0.087
67631,1755587079150,61.79,-99.42,-33.12,780,776,770,749,892,33.333333333333336,-0.882,-0.465,-0.088
67661,1755587079180,61.79,-99.46,-33.17,772,775,768,752,884,33.333333333333336,-0.885,-0.467,-0.091
67691,1755587079210,61.68,-99.43,-33.18,768,768,768,750,888,33.333333333333336,-0.888,-0.469,-0.087
67721,1755587079239,61.7,-99.33,-33.36,772,776,772,747,890,33.333333333333336,-0.878,-0.471,-0.085
67751,1755587079269,61.7,-99.35,-33.56,773,770,771,747,886,33.333333333333336,-0.87,-0.47,-0.083
67781,1755587079299,61.5,-99.42,-33.66,770,773,772,744,881,33.333333333333336,-0.872,-0.472,-0.088
67810,1755587079330,61.43,-99.63,-33.75,776,778,772,750,877,34.48275862068966,-0.878,-0.475,-0.09
67831,1755587079349,61.44,-99.73,-33.75,775,777,773,749,878,47.61904761904762,-0.886,-0.479,-0.086
67861,1755587079379,61.54,-99.65,-33.67,770,770,779,750,882,33.333333333333336,-0.887,-0.476,-0.076
67891,1755587079410,61.54,-99.57,-33.6,763,768,768,747,881,33.333333333333336,-0.88,-0.476,-0.077
67911,1755587079430,61.58,-99.58,-33.58,770,766,777,748,889,50.0,-0.875,-0.478,-0.083
67931,1755587079450,61.64,-99.58,-33.55,766,762,770,747,881,50.0,-0.876,-0.476,-0.083
67961,1755587079480,61.63,-99.55,-33.54,775,777,768,744,889,33.333333333333336,-0.875,-0.473,-0.081
67982,1755587079500,61.62,-99.52,-33.55,766,769,790,747,885,47.61904761904762,-0.877,-0.471,-0.08
68011,1755587079530,61.67,-99.51,-33.55,768,779,771,751,885,34.48275862068966,-0.882,-0.474,-0.085
68032,1755587079550,61.67,-99.52,-33.52,760,769,774,749,874,47.61904761904762,-0.882,-0.475,-0.088
68062,1755587079580,61.65,-99.53,-33.49,767,770,776,744,895,33.333333333333336,-0.88,-0.474,-0.087
68092,1755587079611,61.62,-99.51,-33.47,776,773,774,746,883,33.333333333333336,-0.875,-0.475,-0.086
68112,1755587079631,61.61,-99.47,-33.47,770,776,780,745,881,50.0,-0.872,-0.472,-0.086
68132,1755587079650,61.62,-99.51,-33.5,773,775,768,748,879,50.0,-0.872,-0.473,-0.089
68162,1755587079680,61.51,-99.59,-33.54,775,772,770,750,882,33.333333333333336,-0.878,-0.475,-0.09
68192,1755587079710,61.43,-99.68,-33.49,768,773,770,747,881,33.333333333333336,-0.878,-0.475,-0.089
68222,1755587079741,61.4,-99.72,-33.46,776,786,771,745,885,33.333333333333336,-0.873,-0.472,-0.083
68251,1755587079770,61.41,-99.66,-33.47,774,783,776,744,885,34.48275862068966,-0.873,-0.472,-0.081
68272,1755587079790,61.42,-99.59,-33.48,772,769,776,750,890,47.61904761904762,-0.876,-0.471,-0.081
68292,1755587079810,61.39,-99.53,-33.48,772,765,781,750,882,50.0,-0.877,-0.472,-0.084
68321,1755587079840,61.36,-99.63,-33.52,775,779,779,752,878,34.48275862068966,-0.877,-0.475,-0.087
68342,1755587079860,61.37,-99.67,-33.53,775,773,773,748,888,47.61904761904762,-0.877,-0.475,-0.084
68371,1755587079890,61.4,-99.6,-33.53,777,774,776,756,885,34.48275862068966,-0.877,-0.472,-0.077
68391,1755587079910,61.32,-99.49,-33.53,778,785,775,752,889,50.0,-0.877,-0.474,-0.073
68421,1755587079940,61.23,-99.41,-33.53,774,774,769,745,884,33.333333333333336,-0.877,-0.476,-0.075
68442,1755587079960,61.24,-99.44,-33.54,770,771,775,748,887,47.61904761904762,-0.877,-0.475,-0.077
68471,1755587079990,61.24,-99.34,-33.53,767,770,774,750,885,34.48275862068966,-0.88,-0.472,-0.072
68492,1755587080010,61.21,-99.21,-33.51,771,792,775,748,888,47.61904761904762,-0.88,-0.471,-0.074
68522,1755587080040,61.17,-99.03,-33.5,769,771,776,742,874,33.333333333333336,-0.881,-0.473,-0.08
68551,1755587080070,61.2,-99.12,-33.53,764,769,773,747,882,34.48275862068966,-0.88,-0.477,-0.087
68572,1755587080090,61.2,-99.19,-33.53,767,766,770,752,885,47.61904761904762,-0.877,-0.476,-0.083
68602,1755587080120,61.15,-99.23,-33.53,775,769,775,751,883,33.333333333333336,-0.877,-0.478,-0.074
68631,1755587080150,61.0,-99.06,-33.55,766,768,773,749,888,34.48275862068966,-0.875,-0.481,-0.072
68652,1755587080171,60.89,-98.97,-33.56,765,769,773,752,878,47.61904761904762,-0.873,-0.482,-0.076
68672,1755587080191,60.89,-99.06,-33.59,778,776,774,748,877,50.0,-0.874,-0.48,-0.084
68702,1755587080221,60.91,-99.17,-33.63,769,766,775,750,883,33.333333333333336,-0.876,-0.476,-0.082
68722,1755587080241,60.93,-99.12,-33.64,773,776,770,744,895,50.0,-0.88,-0.472,-0.076
68752,1755587080271,60.77,-99.13,-33.67,777,785,779,750,886,33.333333333333336,-0.88,-0.476,-0.076
68772,1755587080291,60.64,-99.12,-33.66,777,775,769,752,885,50.0,-0.877,-0.479,-0.075
68802,1755587080321,60.8,-99.07,-33.64,769,775,775,750,901,33.333333333333336,-0.879,-0.48,-0.064
68822,1755587080341,60.87,-98.96,-33.62,772,768,766,752,886,50.0,-0.879,-0.481,-0.053
68852,1755587080371,60.98,-98.74,-33.55,768,766,769,744,883,33.333333333333336,-0.88,-0.482,-0.055
68882,1755587080401,61.06,-98.56,-33.47,778,773,776,746,890,33.333333333333336,-0.88,-0.48,-0.06
68912,1755587080431,61.25,-98.46,-33.34,772,773,773,746,894,33.333333333333336,-0.879,-0.476,-0.069
68942,1755587080461,61.34,-98.51,-33.37,763,773,771,748,888,33.333333333333336,-0.878,-0.473,-0.07
68962,1755587080481,61.36,-98.43,-33.38,772,772,780,754,896,50.0,-0.878,-0.47,-0.068
68992,1755587080511,61.41,-98.31,-33.4,766,776,771,750,887,33.333333333333336,-0.879,-0.472,-0.072
69022,1755587080541,61.43,-98.32,-33.4,774,775,768,749,881,33.333333333333336,-0.882,-0.475,-0.073
69052,1755587080571,61.44,-98.38,-33.38,778,773,781,756,897,33.333333333333336,-0.883,-0.476,-0.067
69072,1755587080591,61.48,-98.36,-33.37,766,766,774,744,882,50.0,-0.881,-0.475,-0.06
69102,1755587080621,61.55,-98.23,-33.32,766,771,771,754,874,33.333333333333336,-0.882,-0.472,-0.058
69132,1755587080651,61.53,-98.09,-33.33,771,764,772,746,880,33.333333333333336,-0.88,-0.472,-0.065
69162,1755587080681,61.55,-98.04,-33.35,770,763,776,752,881,33.333333333333336,-0.878,-0.474,-0.073
69192,1755587080711,61.48,-98.06,-33.36,774,767,770,746,876,33.333333333333336,-0.878,-0.475,-0.078
69212,1755587080731,61.45,-98.09,-33.38,774,769,765,748,887,50.0,-0.877,-0.473,-0.077
69232,1755587080751,61.39,-98.14,-33.41,761,771,766,750,878,50.0,-0.877,-0.472,-0.077
69262,1755587080781,61.19,-98.24,-33.49,764,769,773,751,903,33.333333333333336,-0.874,-0.471,-0.074
69292,1755587080811,61.04,-98.38,-33.58,769,771,768,751,884,33.333333333333336,-0.873,-0.476,-0.071
69322,1755587080840,61.03,-98.32,-33.58,774,771,773,750,888,33.333333333333336,-0.88,-0.477,-0.063
69352,1755587080870,61.14,-98.16,-33.54,769,769,770,753,888,33.333333333333336,-0.885,-0.476,-0.058
69381,1755587080900,61.35,-98.03,-33.5,769,780,770,751,888,34.48275862068966,-0.883,-0.476,-0.059
69411,1755587080930,61.46,-97.89,-33.48,769,771,773,744,891,33.333333333333336,-0.878,-0.474,-0.06
69441,1755587080960,61.57,-97.84,-33.56,775,778,778,751,881,33.333333333333336,-0.877,-0.473,-0.059
69471,1755587080990,61.63,-97.62,-33.58,771,777,773,754,882,33.333333333333336,-0.882,-0.479,-0.06
69501,1755587081020,61.69,-97.56,-33.54,771,771,774,750,881,33.333333333333336,-0.884,-0.48,-0.066
69531,1755587081050,61.8,-97.58,-33.52,778,770,763,755,875,33.333333333333336,-0.882,-0.48,-0.067
69561,1755587081080,61.88,-97.59,-33.48,769,771,772,741,886,33.333333333333336,-0.879,-0.481,-0.069
69581,1755587081100,61.9,-97.6,-33.47,777,783,774,748,885,50.0,-0.873,-0.479,-0.07
69611,1755587081130,61.95,-97.62,-33.46,773,772,769,745,879,33.333333333333336,-0.876,-0.477,-0.071
69631,1755587081150,61.94,-97.63,-33.46,768,773,769,756,888,50.0,-0.877,-0.478,-0.072
69661,1755587081180,61.94,-97.64,-33.44,778,774,770,745,882,33.333333333333336,-0.879,-0.476,-0.071
69681,1755587081200,61.96,-97.62,-33.42,773,776,776,745,890,50.0,-0.881,-0.474,-0.067
69711,1755587081230,61.92,-97.54,-33.41,771,774,776,755,882,33.333333333333336,-0.877,-0.473,-0.067
69741,1755587081260,61.93,-97.54,-33.43,771,771,771,751,886,33.333333333333336,-0.876,-0.475,-0.075
69771,1755587081289,62.0,-97.64,-33.43,766,778,774,759,867,33.333333333333336,-0.88,-0.478,-0.076
69801,1755587081319,62.07,-97.67,-33.4,767,774,769,740,902,33.333333333333336,-0.88,-0.474,-0.071
69831,1755587081349,62.14,-97.6,-33.4,774,773,771,749,877,33.333333333333336,-0.879,-0.471,-0.066
69860,1755587081379,62.1,-97.53,-33.37,776,777,774,751,883,34.48275862068966,-0.878,-0.473,-0.07
69881,1755587081399,62.04,-97.54,-33.37,768,795,777,747,899,47.61904761904762,-0.879,-0.475,-0.076
69901,1755587081420,62.03,-97.62,-33.38,763,765,767,743,881,50.0,-0.879,-0.479,-0.08
69921,1755587081440,62.01,-97.66,-33.37,774,775,766,741,880,50.0,-0.878,-0.479,-0.079
69941,1755587081460,62.01,-97.67,-33.35,773,771,770,745,894,50.0,-0.878,-0.479,-0.077
69961,1755587081480,62.05,-97.66,-33.33,778,775,774,753,886,50.0,-0.879,-0.477,-0.072
69991,1755587081510,62.04,-97.57,-33.28,778,772,776,751,876,33.333333333333336,-0.879,-0.476,-0.07
70011,1755587081530,62.01,-97.55,-33.26,770,767,767,757,889,50.0,-0.879,-0.477,-0.071
70041,1755587081560,62.05,-97.62,-33.25,769,772,775,755,890,33.333333333333336,-0.88,-0.475,-0.074
70061,1755587081580,62.11,-97.63,-33.24,775,771,771,754,888,50.0,-0.882,-0.473,-0.073
70091,1755587081610,62.1,-97.58,-33.21,776,776,777,750,882,33.333333333333336,-0.88,-0.471,-0.072
70121,1755587081640,62.03,-97.62,-33.23,762,778,773,749,881,33.333333333333336,-0.877,-0.471,-0.077
70141,1755587081660,62.05,-97.69,-33.26,767,773,778,753,890,50.0,-0.877,-0.474,-0.079
70171,1755587081690,62.04,-97.72,-33.25,769,775,767,745,871,33.333333333333336,-0.877,-0.476,-0.076
70201,1755587081720,62.05,-97.67,-33.24,778,778,775,753,885,33.333333333333336,-0.876,-0.475,-0.074
70221,1755587081740,62.06,-97.67,-33.24,762,773,776,755,883,50.0,-0.877,-0.474,-0.073
70241,1755587081760,62.07,-97.66,-33.22,774,769,771,751,873,50.0,-0.878,-0.475,-0.075
70261,1755587081780,62.05,-97.64,-33.21,774,770,773,747,881,50.0,-0.877,-0.476,-0.076
70291,1755587081810,61.98,-97.53,-33.22,777,774,784,748,884,33.333333333333336,-0.873,-0.474,-0.075
70321,1755587081840,62.05,-97.53,-33.23,770,778,770,744,901,33.333333333333336,-0.88,-0.472,-0.078
70341,1755587081860,62.1,-97.63,-33.25,772,770,771,747,891,50.0,-0.883,-0.47,-0.079
70361,1755587081880,62.11,-97.71,-33.26,777,770,776,755,875,50.0,-0.887,-0.47,-0.076
70391,1755587081910,62.08,-97.68,-33.27,774,774,773,757,882,33.333333333333336,-0.882,-0.469,-0.073
70421,1755587081940,62.06,-97.59,-33.27,769,773,768,754,887,33.333333333333336,-0.88,-0.469,-0.073
70441,1755587081960,62.03,-97.59,-33.29,768,772,772,751,883,50.0,-0.881,-0.473,-0.077
70471,1755587081990,62.02,-97.66,-33.32,770,777,777,752,886,33.333333333333336,-0.882,-0.476,-0.077
70501,1755587082020,61.97,-97.66,-33.31,772,778,775,749,882,33.333333333333336,-0.881,-0.476,-0.074
70521,1755587082040,61.94,-97.66,-33.32,771,774,767,754,883,50.0,-0.88,-0.474,-0.071
70551,1755587082071,61.9,-97.67,-33.34,769,782,778,754,885,33.333333333333336,-0.879,-0.475,-0.074
70572,1755587082091,61.9,-97.74,-33.35,769,775,775,751,888,47.61904761904762,-0.88,-0.478,-0.077
70592,1755587082111,61.94,-97.84,-33.35,770,774,771,754,886,50.0,-0.882,-0.479,-0.077
70622,1755587082141,61.93,-97.87,-33.34,768,766,774,754,875,33.333333333333336,-0.88,-0.474,-0.073
70642,1755587082161,61.92,-97.86,-33.34,765,766,761,748,887,50.0,-0.878,-0.474,-0.072
70672,1755587082191,61.89,-97.81,-33.33,771,763,769,752,880,33.333333333333336,-0.876,-0.475,-0.074
70702,1755587082221,61.9,-97.82,-33.31,762,779,771,752,891,33.333333333333336,-0.878,-0.477,-0.074
70732,1755587082250,61.95,-97.84,-33.3,763,767,770,747,862,33.333333333333336,-0.878,-0.476,-0.072
70762,1755587082281,61.93,-97.77,-33.27,768,778,776,749,871,33.333333333333336,-0.88,-0.475,-0.071
70782,1755587082300,61.91,-97.72,-33.25,770,775,771,755,889,50.0,-0.881,-0.474,-0.072
70812,1755587082330,61.91,-97.71,-33.24,772,772,774,748,847,33.333333333333336,-0.882,-0.475,-0.073
70842,1755587082360,61.94,-97.75,-33.24,770,773,772,753,883,33.333333333333336,-0.879,-0.474,-0.075
70872,1755587082390,61.93,-97.74,-33.23,773,775,772,750,875,33.333333333333336,-0.877,-0.473,-0.073
70901,1755587082420,61.92,-97.77,-33.25,774,764,772,748,888,34.48275862068966,-0.878,-0.473,-0.072
70931,1755587082450,61.89,-97.77,-33.24,780,778,774,749,872,33.333333333333336,-0.879,-0.475,-0.074
70951,1755587082470,61.88,-97.83,-33.24,769,768,775,750,878,50.0,-0.881,-0.477,-0.077
70981,1755587082500,61.87,-97.92,-33.24,774,775,782,747,880,33.333333333333336,-0.88,-0.477,-0.074
71011,1755587082530,61.91,-97.85,-33.23,773,770,774,746,884,33.333333333333336,-0.879,-0.472,-0.068
71041,1755587082560,61.95,-97.83,-33.24,770,770,764,746,878,33.333333333333336,-0.882,-0.473,-0.069
71061,1755587082580,61.93,-97.83,-33.24,773,774,771,752,907,50.0,-0.884,-0.475,-0.075
71081,1755587082600,61.88,-97.85,-33.23,771,777,776,749,880,50.0,-0.883,-0.478,-0.081
71111,1755587082630,61.9,-97.89,-33.19,770,772,770,755,889,33.333333333333336,-0.881,-0.479,-0.08
71141,1755587082660,61.96,-97.95,-33.18,760,772,767,747,882,33.333333333333336,-0.881,-0.475,-0.075
71171,1755587082690,61.94,-97.87,-33.17,770,768,774,753,869,33.333333333333336,-0.881,-0.47,-0.07
71201,1755587082720,61.91,-97.82,-33.18,762,775,769,749,878,33.333333333333336,-0.881,-0.472,-0.073
71221,1755587082740,61.88,-97.81,-33.17,767,761,766,745,877,50.0,-0.882,-0.474,-0.079
71241,1755587082760,61.87,-97.88,-33.18,779,767,768,750,884,50.0,-0.881,-0.476,-0.083
71271,1755587082790,61.85,-97.9,-33.18,769,765,783,749,876,33.333333333333336,-0.88,-0.475,-0.078
71301,1755587082820,61.83,-97.87,-33.19,768,772,772,753,878,33.333333333333336,-0.881,-0.474,-0.073
71331,1755587082850,61.79,-97.83,-33.19,772,774,768,753,878,33.333333333333336,-0.879,-0.474,-0.073
71361,1755587082880,61.78,-97.8,-33.18,771,771,768,746,897,33.333333333333336,-0.881,-0.476,-0.075
71381,1755587082900,61.79,-97.82,-33.18,771,773,776,757,886,50.0,-0.881,-0.476,-0.076
71401,1755587082920,61.79,-97.83,-33.17,772,771,771,747,879,50.0,-0.881,-0.476,-0.074
71421,1755587082940,61.79,-97.83,-33.16,771,777,773,753,866,50.0,-0.881,-0.476,-0.072
71451,1755587082970,61.78,-97.85,-33.16,772,765,771,751,874,33.333333333333336,-0.879,-0.474,-0.072
71481,1755587083000,61.76,-97.78,-33.16,766,770,776,750,879,33.333333333333336,-0.878,-0.474,-0.073
71511,1755587083030,61.7,-97.69,-33.17,769,771,768,757,870,33.333333333333336,-0.879,-0.473,-0.073
71541,1755587083059,61.55,-97.71,-33.17,769,776,769,747,880,33.333333333333336,-0.88,-0.476,-0.077
71571,1755587083089,61.6,-97.78,-33.19,771,775,773,751,881,33.333333333333336,-0.883,-0.478,-0.074
71600,1755587083119,61.6,-97.73,-33.19,765,775,775,746,877,34.48275862068966,-0.883,-0.473,-0.066
71630,1755587083149,61.55,-97.73,-33.2,768,778,774,750,889,33.333333333333336,-0.881,-0.475,-0.067
71660,1755587083179,61.52,-97.71,-33.17,771,780,775,748,874,33.333333333333336,-0.88,-0.477,-0.07
71690,1755587083209,61.54,-97.73,-33.16,771,768,765,744,875,33.333333333333336,-0.88,-0.475,-0.069
71720,1755587083239,61.55,-97.75,-33.18,773,774,777,746,878,33.333333333333336,-0.88,-0.475,-0.069
71740,1755587083259,61.56,-97.76,-33.19,773,774,772,750,874,50.0,-0.882,-0.476,-0.069
71770,1755587083289,61.49,-97.79,-33.18,769,769,773,751,880,33.333333333333336,-0.882,-0.477,-0.069
71800,1755587083319,61.45,-97.8,-33.18,767,774,777,752,885,33.333333333333336,-0.881,-0.476,-0.066
71830,1755587083349,61.48,-97.88,-33.23,767,775,773,749,881,33.333333333333336,-0.879,-0.476,-0.068
71850,1755587083369,61.44,-98.02,-33.25,779,773,776,749,882,50.0,-0.878,-0.475,-0.07
71870,1755587083389,61.4,-98.13,-33.26,764,771,775,753,887,50.0,-0.879,-0.474,-0.069
71890,1755587083409,61.33,-98.14,-33.23,774,771,776,746,885,50.0,-0.884,-0.475,-0.066
71911,1755587083429,61.25,-98.1,-33.19,769,784,778,755,880,47.61904761904762,-0.886,-0.473,-0.066
71940,1755587083459,61.3,-98.16,-33.19,774,773,766,748,898,34.48275862068966,-0.882,-0.473,-0.065
71961,1755587083479,61.34,-98.17,-33.18,767,777,768,742,871,47.61904761904762,-0.878,-0.474,-0.065
71991,1755587083510,61.3,-98.2,-33.2,776,772,772,745,880,33.333333333333336,-0.876,-0.475,-0.065
72011,1755587083530,61.26,-98.25,-33.2,772,768,780,752,898,50.0,-0.877,-0.475,-0.066
72041,1755587083560,61.24,-98.34,-33.21,765,773,771,748,886,33.333333333333336,-0.88,-0.476,-0.067
72071,1755587083590,61.26,-98.36,-33.21,765,770,776,744,881,33.333333333333336,-0.88,-0.475,-0.066
72101,1755587083620,61.27,-98.36,-33.21,773,780,775,755,877,33.333333333333336,-0.88,-0.472,-0.065
72131,1755587083650,61.21,-98.33,-33.22,771,762,768,754,874,33.333333333333336,-0.877,-0.471,-0.066
72151,1755587083670,61.21,-98.32,-33.23,770,768,764,752,886,50.0,-0.877,-0.471,-0.065
72171,1755587083690,61.22,-98.29,-33.23,773,772,765,751,895,50.0,-0.879,-0.472,-0.065
72191,1755587083710,61.2,-98.3,-33.24,766,775,772,753,880,50.0,-0.877,-0.474,-0.067
72221,1755587083740,61.22,-98.45,-33.3,769,771,777,755,886,33.333333333333336,-0.878,-0.475,-0.07
72241,1755587083760,61.19,-98.53,-33.32,772,779,774,745,879,50.0,-0.876,-0.475,-0.069
72271,1755587083790,61.21,-98.53,-33.34,770,768,774,748,880,33.333333333333336,-0.878,-0.474,-0.067
72301,1755587083820,61.23,-98.5,-33.33,763,773,774,748,889,33.333333333333336,-0.882,-0.474,-0.065
72321,1755587083840,61.24,-98.47,-33.31,772,774,772,742,894,50.0,-0.883,-0.475,-0.066
72351,1755587083870,61.26,-98.47,-33.28,773,776,777,752,880,33.333333333333336,-0.882,-0.477,-0.069
72381,1755587083900,61.34,-98.4,-33.26,777,768,760,746,889,33.333333333333336,-0.88,-0.476,-0.066
72411,1755587083930,61.36,-98.34,-33.25,774,771,778,744,870,33.333333333333336,-0.879,-0.475,-0.067
72441,1755587083960,61.34,-98.39,-33.27,773,775,772,744,878,33.333333333333336,-0.878,-0.476,-0.072
72471,1755587083990,61.36,-98.54,-33.34,772,773,765,747,877,33.333333333333336,-0.877,-0.473,-0.074
72501,1755587084021,61.34,-98.72,-33.47,769,772,774,750,898,33.333333333333336,-0.876,-0.473,-0.072
72522,1755587084041,61.31,-98.72,-33.51,774,768,775,750,883,47.61904761904762,-0.878,-0.472,-0.067
72552,1755587084070,61.29,-98.64,-33.53,768,780,771,748,883,33.333333333333336,-0.881,-0.475,-0.066
72582,1755587084101,61.26,-98.66,-33.54,773,773,772,745,879,33.333333333333336,-0.881,-0.479,-0.07
