timestamp_ms,recv_timestamp_ms,pitch,roll,yaw,flex1,flex2,flex3,flex4,flex5,sampling_hz,accel_x,accel_y,accel_z
56164,1755586218814,22.49,-32.51,-11.43,773,787,774,752,821,34.48275862068966,-0.391,-0.495,0.776
56194,1755586218843,22.53,-32.55,-11.44,767,773,778,760,821,33.333333333333336,-0.394,-0.498,0.776
56223,1755586218873,22.5,-32.56,-11.42,772,784,771,754,815,34.48275862068966,-0.396,-0.499,0.775
56253,1755586218902,22.52,-32.54,-11.43,773,772,776,757,812,33.333333333333336,-0.391,-0.494,0.779
56282,1755586218932,22.49,-32.47,-11.45,773,772,772,755,814,34.48275862068966,-0.392,-0.495,0.775
56312,1755586218961,22.5,-32.51,-11.45,767,773,774,754,823,33.333333333333336,-0.397,-0.497,0.774
56341,1755586218991,22.46,-32.54,-11.44,770,772,768,749,814,34.48275862068966,-0.399,-0.496,0.774
56371,1755586219020,22.48,-32.54,-11.45,768,772,791,749,810,33.333333333333336,-0.394,-0.495,0.777
56400,1755586219050,22.43,-32.5,-11.45,763,780,772,749,815,34.48275862068966,-0.393,-0.496,0.778
56430,1755586219079,22.42,-32.45,-11.45,769,772,771,749,810,33.333333333333336,-0.398,-0.496,0.777
56459,1755586219109,22.45,-32.5,-11.43,764,781,775,748,819,34.48275862068966,-0.399,-0.496,0.773
56489,1755586219138,22.53,-32.56,-11.4,766,770,775,756,826,33.333333333333336,-0.4,-0.498,0.775
56518,1755586219168,22.45,-32.55,-11.4,767,777,778,757,818,34.48275862068966,-0.394,-0.496,0.776
56548,1755586219198,22.46,-32.54,-11.42,772,774,763,749,814,33.333333333333336,-0.392,-0.496,0.778
56578,1755586219227,22.46,-32.53,-11.42,771,772,779,750,818,33.333333333333336,-0.396,-0.499,0.779
56607,1755586219257,22.44,-32.56,-11.4,767,771,777,773,814,34.48275862068966,-0.395,-0.495,0.775
56637,1755586219286,22.46,-32.6,-11.42,772,768,766,749,819,33.333333333333336,-0.393,-0.491,0.776
56666,1755586219316,22.41,-32.6,-11.46,774,764,774,757,817,34.48275862068966,-0.396,-0.494,0.778
56696,1755586219345,22.44,-32.63,-11.48,769,767,793,752,816,33.333333333333336,-0.395,-0.496,0.776
56725,1755586219375,22.46,-32.64,-11.5,767,772,775,746,817,34.48275862068966,-0.399,-0.497,0.776
56755,1755586219404,22.38,-32.62,-11.51,773,764,766,754,823,33.333333333333336,-0.4,-0.497,0.773
56784,1755586219434,22.41,-32.67,-11.51,768,777,776,742,821,34.48275862068966,-0.394,-0.495,0.774
56814,1755586219463,22.43,-32.74,-11.55,767,770,774,756,805,33.333333333333336,-0.389,-0.494,0.78
56843,1755586219493,22.32,-32.7,-11.66,767,767,763,757,818,34.48275862068966,-0.39,-0.497,0.781
56873,1755586219523,22.36,-32.69,-11.69,771,775,768,753,815,33.333333333333336,-0.394,-0.502,0.776
56903,1755586219552,22.41,-32.71,-11.67,768,772,775,754,818,33.333333333333336,-0.396,-0.502,0.773
56932,1755586219582,22.34,-32.74,-11.71,766,770,772,748,816,34.48275862068966,-0.39,-0.499,0.774
56962,1755586219612,22.33,-32.75,-11.77,774,762,768,753,822,33.333333333333336,-0.393,-0.501,0.777
56992,1755586219641,22.33,-32.71,-11.76,765,774,774,761,817,33.333333333333336,-0.4,-0.504,0.776
57021,1755586219671,22.36,-32.72,-11.72,766,775,766,752,817,34.48275862068966,-0.399,-0.502,0.773
57041,1755586219691,22.38,-32.74,-11.72,768,768,762,754,819,50.0,-0.398,-0.501,0.771
57071,1755586219721,22.29,-32.78,-11.73,768,774,772,760,818,33.333333333333336,-0.395,-0.503,0.773
57091,1755586219741,22.3,-32.78,-11.71,773,778,773,757,823,50.0,-0.391,-0.506,0.776
57121,1755586219770,22.39,-32.76,-11.67,776,772,776,748,812,33.333333333333336,-0.391,-0.504,0.776
57150,1755586219800,22.36,-32.71,-11.64,765,769,771,754,813,34.48275862068966,-0.389,-0.503,0.775
57180,1755586219829,22.33,-32.71,-11.64,775,774,765,751,817,33.333333333333336,-0.391,-0.502,0.771
57210,1755586219859,22.3,-32.71,-11.63,772,763,767,749,808,33.333333333333336,-0.394,-0.5,0.772
57239,1755586219888,22.24,-32.73,-11.62,775,773,773,756,808,34.48275862068966,-0.393,-0.501,0.772
57268,1755586219918,22.25,-32.78,-11.63,771,771,777,757,818,34.48275862068966,-0.389,-0.499,0.773
57298,1755586219947,22.17,-32.81,-11.67,765,771,766,754,815,33.333333333333336,-0.387,-0.499,0.776
57327,1755586219977,22.13,-32.81,-11.7,767,776,767,756,816,34.48275862068966,-0.389,-0.501,0.778
57357,1755586220006,22.13,-32.81,-11.71,774,774,767,756,818,33.333333333333336,-0.391,-0.499,0.774
57386,1755586220036,22.1,-32.93,-11.77,763,773,773,756,822,34.48275862068966,-0.39,-0.497,0.771
57416,1755586220065,21.99,-33.0,-11.84,766,781,770,760,814,33.333333333333336,-0.39,-0.5,0.773
57445,1755586220095,21.96,-33.0,-11.87,771,758,768,755,815,34.48275862068966,-0.387,-0.504,0.775
57475,1755586220124,22.03,-33.09,-11.96,775,773,775,755,816,33.333333333333336,-0.386,-0.5,0.776
57504,1755586220154,22.02,-33.11,-12.04,772,769,767,752,819,34.48275862068966,-0.388,-0.502,0.775
57525,1755586220174,22.04,-33.22,-12.05,764,770,774,751,821,47.61904761904762,-0.387,-0.507,0.773
57554,1755586220204,22.25,-33.18,-12.01,765,768,768,750,821,34.48275862068966,-0.384,-0.506,0.774
57584,1755586220234,22.32,-33.18,-12.0,771,775,762,751,842,33.333333333333336,-0.385,-0.505,0.776
57614,1755586220263,22.28,-33.21,-12.1,771,770,770,753,825,33.333333333333336,-0.387,-0.506,0.771
57643,1755586220293,22.12,-33.3,-12.29,768,789,774,748,810,34.48275862068966,-0.389,-0.507,0.763
57673,1755586220323,22.06,-33.36,-12.32,766,774,773,751,810,33.333333333333336,-0.391,-0.509,0.764
57703,1755586220352,22.04,-33.53,-12.36,773,786,768,752,813,33.333333333333336,-0.383,-0.51,0.769
57732,1755586220382,21.98,-33.6,-12.46,771,771,772,752,813,34.48275862068966,-0.383,-0.51,0.771
57761,1755586220411,21.83,-33.65,-12.59,770,779,772,754,810,34.48275862068966,-0.39,-0.513,0.766
57791,1755586220441,21.82,-33.69,-12.57,766,774,767,755,819,33.333333333333336,-0.386,-0.515,0.764
57821,1755586220470,21.98,-33.8,-12.53,772,771,772,753,812,33.333333333333336,-0.385,-0.517,0.772
57850,1755586220499,21.8,-33.8,-12.59,765,771,769,756,830,34.48275862068966,-0.381,-0.516,0.77
57880,1755586220529,21.84,-33.81,-12.6,770,771,760,747,807,33.333333333333336,-0.381,-0.519,0.765
57909,1755586220558,21.89,-33.89,-12.57,766,764,766,753,816,34.48275862068966,-0.384,-0.522,0.766
57938,1755586220588,21.75,-33.87,-12.59,772,774,774,752,817,34.48275862068966,-0.384,-0.521,0.769
57968,1755586220617,21.67,-33.89,-12.63,773,771,771,750,823,33.333333333333336,-0.379,-0.519,0.767
57997,1755586220647,21.77,-33.93,-12.61,764,761,766,749,819,34.48275862068966,-0.381,-0.523,0.769
58027,1755586220677,21.74,-33.88,-12.59,771,767,783,749,821,33.333333333333336,-0.378,-0.521,0.769
58057,1755586220707,21.72,-33.9,-12.62,765,765,771,756,820,33.333333333333336,-0.376,-0.521,0.765
58087,1755586220736,21.74,-33.96,-12.64,774,776,779,751,819,33.333333333333336,-0.378,-0.522,0.766
58116,1755586220766,21.69,-33.96,-12.65,772,770,764,758,816,34.48275862068966,-0.38,-0.521,0.767
58146,1755586220795,21.77,-34.0,-12.67,771,774,768,751,814,33.333333333333336,-0.38,-0.523,0.766
58175,1755586220825,21.8,-33.93,-12.65,768,776,778,758,814,34.48275862068966,-0.379,-0.527,0.766
58195,1755586220845,21.79,-33.99,-12.66,770,767,774,770,816,50.0,-0.373,-0.524,0.759
58225,1755586220874,21.83,-34.06,-12.73,767,770,766,753,818,33.333333333333336,-0.375,-0.523,0.76
58254,1755586220904,21.78,-34.16,-12.76,768,773,780,750,829,34.48275862068966,-0.38,-0.526,0.762
58284,1755586220933,21.89,-34.32,-12.74,765,770,766,753,822,33.333333333333336,-0.383,-0.527,0.761
58313,1755586220963,21.87,-34.43,-12.75,770,771,775,753,819,34.48275862068966,-0.384,-0.528,0.762
58343,1755586220992,21.9,-34.45,-12.73,764,774,778,743,814,33.333333333333336,-0.38,-0.53,0.764
58373,1755586221022,22.09,-34.49,-12.7,764,773,771,755,815,33.333333333333336,-0.379,-0.531,0.766
58402,1755586221051,22.14,-34.57,-12.7,764,770,768,754,820,34.48275862068966,-0.381,-0.53,0.759
58431,1755586221081,22.09,-34.64,-12.7,767,773,772,748,814,34.48275862068966,-0.384,-0.532,0.752
58461,1755586221110,22.14,-34.73,-12.69,766,778,762,754,828,33.333333333333336,-0.384,-0.534,0.755
58490,1755586221140,22.09,-34.74,-12.69,772,774,776,759,827,34.48275862068966,-0.386,-0.536,0.761
58520,1755586221169,22.08,-34.76,-12.69,775,775,772,749,820,33.333333333333336,-0.383,-0.536,0.757
58549,1755586221199,22.13,-34.84,-12.7,766,770,765,749,810,34.48275862068966,-0.385,-0.535,0.753
58579,1755586221228,21.96,-34.89,-12.72,779,773,770,751,818,33.333333333333336,-0.385,-0.535,0.75
58609,1755586221258,22.07,-34.98,-12.68,769,776,775,749,817,33.333333333333336,-0.383,-0.537,0.755
58639,1755586221288,21.99,-34.98,-12.67,765,770,768,752,817,33.333333333333336,-0.383,-0.538,0.76
58668,1755586221317,21.87,-34.92,-12.75,765,768,773,756,818,34.48275862068966,-0.381,-0.535,0.754
58697,1755586221347,21.92,-34.91,-12.76,771,773,766,753,818,34.48275862068966,-0.387,-0.539,0.753
58727,1755586221376,21.88,-34.94,-12.72,773,774,779,747,819,33.333333333333336,-0.387,-0.54,0.75
58756,1755586221406,21.89,-35.05,-12.74,766,764,762,756,817,34.48275862068966,-0.383,-0.538,0.749
58786,1755586221436,21.81,-35.03,-12.76,766,774,770,753,819,33.333333333333336,-0.381,-0.54,0.755
58816,1755586221465,21.78,-34.98,-12.77,770,775,769,750,802,33.333333333333336,-0.379,-0.538,0.756
58845,1755586221495,21.86,-34.99,-12.77,766,769,769,756,821,34.48275862068966,-0.382,-0.54,0.752
58875,1755586221524,21.81,-35.05,-12.78,767,772,769,750,817,33.333333333333336,-0.382,-0.539,0.747
58904,1755586221554,21.88,-35.13,-12.77,772,765,767,749,817,34.48275862068966,-0.383,-0.541,0.754
58934,1755586221583,21.85,-35.18,-12.79,764,772,773,755,814,33.333333333333336,-0.38,-0.541,0.755
58963,1755586221613,21.85,-35.15,-12.8,764,771,771,752,825,34.48275862068966,-0.378,-0.538,0.752
58993,1755586221642,21.82,-35.16,-12.81,766,766,772,750,810,33.333333333333336,-0.382,-0.54,0.752
59023,1755586221672,21.82,-35.12,-12.81,770,773,769,753,825,33.333333333333336,-0.386,-0.542,0.752
59052,1755586221702,21.75,-35.27,-12.83,766,758,770,752,811,34.48275862068966,-0.383,-0.539,0.745
59082,1755586221731,21.76,-35.36,-12.83,768,779,771,748,816,33.333333333333336,-0.379,-0.539,0.747
59111,1755586221761,21.79,-35.31,-12.81,767,765,767,758,823,34.48275862068966,-0.382,-0.544,0.759
59141,1755586221791,21.75,-35.22,-12.82,763,771,765,755,815,33.333333333333336,-0.38,-0.543,0.755
59171,1755586221820,21.82,-35.15,-12.81,778,766,772,750,821,33.333333333333336,-0.381,-0.541,0.747
59200,1755586221850,21.73,-35.25,-12.83,768,774,756,748,824,34.48275862068966,-0.383,-0.541,0.746
59230,1755586221879,21.74,-35.25,-12.82,767,771,774,754,817,33.333333333333336,-0.382,-0.54,0.753
59259,1755586221909,21.73,-35.24,-12.83,769,756,772,750,859,34.48275862068966,-0.382,-0.542,0.752
59289,1755586221938,21.75,-35.26,-12.84,771,767,773,751,820,33.333333333333336,-0.382,-0.541,0.749
59318,1755586221968,21.71,-35.23,-12.82,764,787,766,753,823,34.48275862068966,-0.378,-0.539,0.751
59348,1755586221997,21.73,-35.21,-12.85,766,775,766,750,822,33.333333333333336,-0.379,-0.537,0.753
59377,1755586222027,21.75,-35.33,-12.89,769,776,767,755,827,34.48275862068966,-0.382,-0.539,0.749
59407,1755586222056,21.8,-35.41,-12.9,768,780,761,748,817,33.333333333333336,-0.385,-0.541,0.748
59436,1755586222086,21.79,-35.4,-12.88,766,777,770,759,822,34.48275862068966,-0.384,-0.54,0.752
59466,1755586222115,21.78,-35.31,-12.9,761,767,771,749,820,33.333333333333336,-0.38,-0.541,0.756
59495,1755586222145,21.77,-35.18,-12.88,763,775,763,753,819,34.48275862068966,-0.378,-0.542,0.755
59525,1755586222174,21.78,-35.23,-12.87,762,777,771,757,826,33.333333333333336,-0.379,-0.542,0.753
59554,1755586222204,21.8,-35.09,-12.86,773,768,768,755,812,34.48275862068966,-0.381,-0.541,0.754
59584,1755586222233,21.77,-35.06,-12.91,763,767,770,749,816,33.333333333333336,-0.379,-0.536,0.751
59614,1755586222264,21.72,-35.12,-12.94,771,772,772,754,818,33.333333333333336,-0.382,-0.538,0.747
59634,1755586222284,21.71,-35.2,-12.96,765,762,781,753,809,50.0,-0.386,-0.541,0.747
59664,1755586222313,21.68,-35.33,-12.99,767,772,774,751,820,33.333333333333336,-0.385,-0.537,0.748
59693,1755586222343,21.66,-35.43,-13.04,769,770,773,756,821,34.48275862068966,-0.388,-0.54,0.748
59723,1755586222372,21.61,-35.48,-13.01,768,775,773,750,817,33.333333333333336,-0.386,-0.541,0.751
59752,1755586222402,21.7,-35.47,-12.97,775,763,768,755,814,34.48275862068966,-0.384,-0.54,0.756
59782,1755586222431,21.66,-35.5,-12.98,770,777,763,751,812,33.333333333333336,-0.386,-0.542,0.754
59811,1755586222461,21.67,-35.53,-12.94,759,775,782,750,826,34.48275862068966,-0.383,-0.542,0.75
59841,1755586222491,21.64,-35.52,-12.92,765,771,767,752,832,33.333333333333336,-0.382,-0.541,0.752
59871,1755586222520,21.61,-35.52,-12.94,769,768,769,750,816,33.333333333333336,-0.382,-0.541,0.755
59900,1755586222550,21.64,-35.5,-12.9,761,772,768,750,821,34.48275862068966,-0.385,-0.544,0.755
59930,1755586222580,21.7,-35.47,-12.83,766,762,771,756,825,33.333333333333336,-0.386,-0.542,0.755
59960,1755586222609,21.72,-35.35,-12.7,767,770,768,750,819,33.333333333333336,-0.384,-0.541,0.756
59989,1755586222639,21.7,-35.37,-12.7,766,774,767,753,827,34.48275862068966,-0.383,-0.544,0.755
60019,1755586222668,21.7,-35.38,-12.69,767,776,770,752,821,33.333333333333336,-0.377,-0.539,0.75
60048,1755586222698,21.64,-35.37,-12.74,764,774,769,753,819,34.48275862068966,-0.381,-0.537,0.752
60078,1755586222728,21.55,-35.35,-12.75,772,777,770,751,820,33.333333333333336,-0.382,-0.537,0.753
60108,1755586222757,21.65,-35.37,-12.73,773,765,770,752,823,33.333333333333336,-0.384,-0.538,0.755
60137,1755586222787,21.69,-35.37,-12.69,767,776,765,748,811,34.48275862068966,-0.383,-0.538,0.757
60167,1755586222817,21.66,-35.29,-12.72,761,769,772,752,813,33.333333333333336,-0.384,-0.537,0.754
60197,1755586222846,21.75,-35.34,-12.71,767,777,766,753,817,33.333333333333336,-0.383,-0.539,0.751
60226,1755586222876,21.78,-35.32,-12.69,767,774,768,760,820,34.48275862068966,-0.384,-0.538,0.753
60256,1755586222905,21.75,-35.28,-12.71,761,767,773,751,823,33.333333333333336,-0.382,-0.535,0.757
60285,1755586222935,21.78,-35.15,-12.75,768,774,771,752,815,34.48275862068966,-0.383,-0.532,0.758
60315,1755586222964,21.82,-35.09,-12.73,766,773,773,746,820,33.333333333333336,-0.388,-0.535,0.756
60344,1755586222994,21.81,-35.13,-12.71,763,776,769,753,816,34.48275862068966,-0.385,-0.532,0.752
60374,1755586223023,21.78,-35.1,-12.74,768,775,771,752,814,33.333333333333336,-0.381,-0.533,0.755
60403,1755586223053,21.69,-35.06,-12.78,769,775,775,747,819,34.48275862068966,-0.378,-0.535,0.758
60433,1755586223082,21.79,-35.03,-12.75,765,768,777,755,820,33.333333333333336,-0.378,-0.534,0.759
60462,1755586223112,21.75,-34.94,-12.75,766,767,768,752,819,34.48275862068966,-0.381,-0.533,0.759
60492,1755586223141,21.75,-34.94,-12.77,770,774,769,750,817,33.333333333333336,-0.385,-0.532,0.755
60521,1755586223171,21.73,-34.99,-12.79,767,781,776,754,821,34.48275862068966,-0.387,-0.529,0.75
60551,1755586223200,21.69,-35.03,-12.8,768,776,771,751,811,33.333333333333336,-0.389,-0.532,0.753
60581,1755586223230,21.69,-35.03,-12.8,772,769,770,754,821,33.333333333333336,-0.388,-0.534,0.757
60610,1755586223260,21.8,-35.0,-12.78,768,775,766,749,808,34.48275862068966,-0.388,-0.534,0.758
60640,1755586223290,21.75,-34.98,-12.8,765,773,767,751,813,33.333333333333336,-0.388,-0.531,0.752
60670,1755586223319,21.72,-35.01,-12.8,771,776,764,756,817,33.333333333333336,-0.39,-0.531,0.75
60699,1755586223349,21.72,-35.07,-12.77,765,765,770,752,831,34.48275862068966,-0.385,-0.531,0.756
60729,1755586223378,21.72,-35.03,-12.79,765,768,770,756,820,33.333333333333336,-0.383,-0.53,0.762
60759,1755586223408,21.71,-34.95,-12.8,771,774,774,752,821,33.333333333333336,-0.385,-0.531,0.759
60788,1755586223438,21.78,-34.89,-12.76,765,779,764,752,817,34.48275862068966,-0.388,-0.533,0.756
60818,1755586223467,21.71,-34.94,-12.77,764,777,769,754,840,33.333333333333336,-0.383,-0.53,0.753
60847,1755586223497,21.7,-34.91,-12.78,764,770,784,754,812,34.48275862068966,-0.382,-0.53,0.757
60877,1755586223526,21.72,-34.9,-12.79,769,776,772,752,815,33.333333333333336,-0.386,-0.529,0.759
60906,1755586223556,21.76,-34.94,-12.78,765,776,773,752,822,34.48275862068966,-0.388,-0.527,0.754
60936,1755586223585,21.75,-34.94,-12.78,769,776,772,755,811,33.333333333333336,-0.39,-0.529,0.755
60965,1755586223615,21.74,-34.96,-12.76,769,771,772,746,816,34.48275862068966,-0.386,-0.532,0.765
60995,1755586223644,21.75,-34.9,-12.75,771,777,765,754,817,33.333333333333336,-0.38,-0.53,0.765
61024,1755586223674,21.74,-34.83,-12.77,766,770,772,750,823,34.48275862068966,-0.38,-0.527,0.764
61054,1755586223703,21.7,-34.79,-12.78,770,769,774,745,815,33.333333333333336,-0.388,-0.527,0.761
61083,1755586223733,21.71,-34.81,-12.74,769,774,772,751,829,34.48275862068966,-0.391,-0.526,0.757
61113,1755586223763,21.7,-34.82,-12.7,771,775,764,757,818,33.333333333333336,-0.39,-0.527,0.76
61143,1755586223793,21.69,-34.86,-12.71,758,771,772,752,823,33.333333333333336,-0.384,-0.525,0.763
61163,1755586223812,21.71,-34.86,-12.71,768,773,765,754,817,50.0,-0.381,-0.524,0.764
61192,1755586223842,21.71,-34.82,-12.73,767,770,767,757,819,34.48275862068966,-0.382,-0.527,0.766
61222,1755586223871,21.74,-34.75,-12.71,761,772,771,752,812,33.333333333333336,-0.386,-0.527,0.761
61251,1755586223901,21.77,-34.79,-12.71,766,766,762,755,817,34.48275862068966,-0.39,-0.525,0.756
61281,1755586223931,21.71,-34.83,-12.73,759,765,769,759,815,33.333333333333336,-0.389,-0.525,0.756
61311,1755586223960,21.74,-34.88,-12.71,768,768,774,743,822,33.333333333333336,-0.385,-0.526,0.758
61340,1755586223990,21.74,-34.95,-12.73,760,776,769,756,818,34.48275862068966,-0.385,-0.526,0.761
61370,1755586224019,21.71,-34.94,-12.77,768,775,774,757,821,33.333333333333336,-0.386,-0.527,0.761
61399,1755586224049,21.7,-34.91,-12.77,772,769,775,747,814,34.48275862068966,-0.387,-0.529,0.758
61429,1755586224078,21.73,-34.93,-12.74,766,772,769,752,817,33.333333333333336,-0.388,-0.529,0.758
61458,1755586224108,21.71,-34.91,-12.75,763,773,766,752,817,34.48275862068966,-0.385,-0.527,0.757
61488,1755586224137,21.71,-34.89,-12.75,767,771,763,753,819,33.333333333333336,-0.386,-0.53,0.76
61517,1755586224167,21.7,-34.89,-12.71,767,770,777,756,817,34.48275862068966,-0.384,-0.532,0.76
61537,1755586224187,21.71,-34.87,-12.68,771,770,783,750,815,50.0,-0.381,-0.528,0.76
61567,1755586224216,21.65,-34.85,-12.73,769,768,765,750,823,33.333333333333336,-0.378,-0.522,0.761
61596,1755586224246,21.53,-34.79,-12.78,768,771,771,750,818,34.48275862068966,-0.383,-0.524,0.76
61626,1755586224275,21.63,-34.88,-12.72,766,776,774,751,815,33.333333333333336,-0.39,-0.53,0.758
61655,1755586224305,21.67,-34.9,-12.62,770,773,774,741,821,34.48275862068966,-0.389,-0.53,0.759
61685,1755586224335,21.58,-34.89,-12.63,766,768,781,760,815,33.333333333333336,-0.381,-0.526,0.758
61715,1755586224365,21.68,-34.94,-12.65,764,774,766,753,824,33.333333333333336,-0.376,-0.524,0.765
61735,1755586224385,21.71,-34.92,-12.67,768,764,767,754,817,50.0,-0.378,-0.526,0.773
61765,1755586224414,21.64,-34.85,-12.69,769,767,773,753,819,33.333333333333336,-0.386,-0.527,0.768
61794,1755586224444,21.7,-34.85,-12.69,758,773,769,758,817,34.48275862068966,-0.392,-0.527,0.76
61814,1755586224464,21.72,-34.87,-12.68,766,772,772,749,819,50.0,-0.39,-0.528,0.761
61844,1755586224494,21.66,-34.87,-12.68,769,766,762,754,822,33.333333333333336,-0.385,-0.526,0.765
61874,1755586224524,21.68,-34.85,-12.7,760,767,769,753,820,33.333333333333336,-0.386,-0.526,0.766
61904,1755586224553,21.69,-34.85,-12.72,776,768,773,752,818,33.333333333333336,-0.387,-0.526,0.763
61933,1755586224583,21.73,-34.87,-12.71,766,768,767,753,812,34.48275862068966,-0.387,-0.528,0.761
61963,1755586224613,21.74,-34.94,-12.72,768,774,772,749,820,33.333333333333336,-0.385,-0.527,0.761
61992,1755586224642,21.75,-34.94,-12.73,765,773,772,757,815,34.48275862068966,-0.385,-0.527,0.763
62022,1755586224672,21.73,-34.89,-12.74,769,767,768,756,815,33.333333333333336,-0.386,-0.528,0.763
62052,1755586224701,21.78,-34.91,-12.73,768,767,777,748,816,33.333333333333336,-0.383,-0.526,0.759
62081,1755586224731,21.76,-34.94,-12.75,765,761,764,754,822,34.48275862068966,-0.386,-0.526,0.758
62111,1755586224760,21.7,-34.96,-12.79,766,763,770,757,823,33.333333333333336,-0.388,-0.527,0.761
62140,1755586224790,21.78,-34.96,-12.76,767,780,772,753,818,34.48275862068966,-0.389,-0.532,0.762
62170,1755586224820,21.79,-34.93,-12.71,770,765,770,751,818,33.333333333333336,-0.385,-0.529,0.758
62200,1755586224849,21.77,-34.96,-12.74,766,769,775,747,813,33.333333333333336,-0.385,-0.526,0.759
62229,1755586224879,21.68,-34.97,-12.8,761,777,768,753,816,34.48275862068966,-0.388,-0.533,0.761
62259,1755586224908,21.79,-34.99,-12.74,768,773,777,754,814,33.333333333333336,-0.385,-0.534,0.761
62288,1755586224938,21.78,-34.97,-12.73,767,761,769,754,818,34.48275862068966,-0.381,-0.529,0.76
62318,1755586224967,21.71,-34.93,-12.78,768,772,765,751,815,33.333333333333336,-0.384,-0.528,0.76
62347,1755586224997,21.72,-35.01,-12.79,771,771,776,755,819,34.48275862068966,-0.387,-0.53,0.759
62377,1755586225027,21.77,-35.02,-12.76,762,766,769,754,807,33.333333333333336,-0.386,-0.531,0.761
62407,1755586225056,21.76,-34.97,-12.77,773,775,767,754,816,33.333333333333336,-0.383,-0.53,0.763
62436,1755586225086,21.77,-34.95,-12.8,765,799,770,756,811,34.48275862068966,-0.383,-0.53,0.761
62466,1755586225115,21.76,-34.94,-12.8,767,774,776,757,819,33.333333333333336,-0.386,-0.53,0.758
62495,1755586225145,21.8,-35.0,-12.82,771,775,769,753,818,34.48275862068966,-0.388,-0.529,0.76
62525,1755586225174,21.77,-34.96,-12.82,762,775,775,754,821,33.333333333333336,-0.388,-0.532,0.762
62555,1755586225204,21.81,-34.94,-12.81,764,770,771,756,811,33.333333333333336,-0.386,-0.53,0.759
62584,1755586225234,21.78,-34.95,-12.83,766,775,776,756,817,34.48275862068966,-0.386,-0.529,0.757
62614,1755586225263,21.8,-34.98,-12.84,769,769,767,764,820,33.333333333333336,-0.386,-0.53,0.762
62643,1755586225293,21.78,-34.92,-12.84,768,774,776,752,824,34.48275862068966,-0.386,-0.53,0.761
62673,1755586225322,22.23,-34.95,-12.84,768,770,770,751,819,33.333333333333336,-0.388,-0.531,0.759
62702,1755586225352,22.19,-34.97,-12.84,766,773,772,754,813,34.48275862068966,-0.387,-0.531,0.758
62732,1755586225382,22.19,-34.99,-12.84,761,771,773,751,819,33.333333333333336,-0.385,-0.529,0.761
62762,1755586225411,22.15,-34.96,-12.86,761,775,763,754,820,33.333333333333336,-0.385,-0.529,0.762
62791,1755586225441,22.14,-34.94,-12.83,761,771,776,754,820,34.48275862068966,-0.387,-0.531,0.759
62821,1755586225471,22.16,-34.96,-12.81,770,761,783,761,815,33.333333333333336,-0.387,-0.531,0.759
62851,1755586225500,22.16,-34.94,-12.79,767,770,763,748,818,33.333333333333336,-0.385,-0.529,0.76
62880,1755586225530,22.14,-34.94,-12.81,768,777,770,754,817,34.48275862068966,-0.384,-0.528,0.761
62910,1755586225559,22.1,-34.97,-12.84,763,771,769,756,816,33.333333333333336,-0.385,-0.529,0.761
62939,1755586225589,22.11,-34.93,-12.82,760,767,765,759,820,34.48275862068966,-0.386,-0.53,0.761
62969,1755586225619,22.08,-34.89,-12.81,767,764,767,753,816,33.333333333333336,-0.387,-0.531,0.76
62989,1755586225639,22.06,-34.9,-12.81,770,767,767,756,815,50.0,-0.386,-0.532,0.759
63019,1755586225668,22.06,-34.91,-12.8,763,777,774,755,800,33.333333333333336,-0.386,-0.531,0.761
63048,1755586225698,22.03,-34.87,-12.81,771,768,768,754,813,34.48275862068966,-0.386,-0.528,0.762
63078,1755586225727,22.02,-34.86,-12.82,771,771,768,757,819,33.333333333333336,-0.387,-0.529,0.759
63107,1755586225757,22.03,-34.87,-12.78,768,774,773,754,817,34.48275862068966,-0.387,-0.53,0.759
63137,1755586225786,22.02,-34.89,-12.77,767,770,778,753,821,33.333333333333336,-0.383,-0.527,0.761
63166,1755586225816,22.02,-34.87,-12.8,767,767,770,746,822,34.48275862068966,-0.383,-0.527,0.764
63196,1755586225846,21.99,-34.83,-12.8,768,773,778,746,816,33.333333333333336,-0.387,-0.53,0.761
63216,1755586225865,22.01,-34.82,-12.78,766,772,773,754,806,50.0,-0.39,-0.531,0.758
63245,1755586225895,22.02,-34.87,-12.76,769,771,776,756,811,34.48275862068966,-0.39,-0.528,0.758
63275,1755586225924,21.89,-34.84,-12.76,765,765,774,753,819,33.333333333333336,-0.386,-0.527,0.761
63304,1755586225954,21.89,-34.82,-12.77,769,771,772,755,814,34.48275862068966,-0.383,-0.526,0.764
63334,1755586225984,21.89,-34.79,-12.78,762,768,777,758,816,33.333333333333336,-0.385,-0.527,0.765
63364,1755586226014,21.89,-34.77,-12.74,763,779,780,757,816,33.333333333333336,-0.387,-0.529,0.762
63394,1755586226043,21.93,-34.78,-12.69,768,763,768,754,805,33.333333333333336,-0.388,-0.526,0.761
63423,1755586226073,21.87,-34.82,-12.72,774,774,771,757,817,34.48275862068966,-0.391,-0.525,0.76
63453,1755586226102,21.86,-34.87,-12.69,766,759,770,756,813,33.333333333333336,-0.392,-0.531,0.759
63482,1755586226132,21.86,-34.94,-12.63,763,774,768,750,820,34.48275862068966,-0.385,-0.53,0.761
63512,1755586226161,21.82,-34.92,-12.66,758,767,772,758,815,33.333333333333336,-0.376,-0.527,0.763
63541,1755586226191,21.8,-34.93,-12.71,766,771,772,754,825,34.48275862068966,-0.378,-0.529,0.764
63571,1755586226220,21.77,-34.91,-12.7,768,780,774,758,819,33.333333333333336,-0.385,-0.529,0.762
63600,1755586226250,21.81,-34.93,-12.68,768,768,771,761,819,34.48275862068966,-0.386,-0.526,0.762
63630,1755586226279,21.66,-35.02,-12.77,766,770,776,756,820,33.333333333333336,-0.381,-0.523,0.757
63659,1755586226309,21.62,-35.16,-12.85,768,769,768,752,820,34.48275862068966,-0.378,-0.524,0.757
63689,1755586226339,21.63,-35.21,-12.87,768,772,768,753,821,33.333333333333336,-0.385,-0.53,0.766
63719,1755586226368,21.62,-35.07,-12.8,771,768,773,754,821,33.333333333333336,-0.388,-0.534,0.768
63748,1755586226398,21.68,-35.04,-12.76,771,776,774,754,827,34.48275862068966,-0.379,-0.531,0.761
63778,1755586226428,21.67,-35.0,-12.79,763,777,768,755,819,33.333333333333336,-0.377,-0.53,0.762
63808,1755586226457,21.56,-34.97,-12.84,769,769,766,756,815,33.333333333333336,-0.379,-0.53,0.761
63837,1755586226487,21.66,-34.98,-12.82,779,776,773,751,814,34.48275862068966,-0.384,-0.534,0.763
63857,1755586226507,21.67,-34.94,-12.79,765,774,770,755,814,50.0,-0.379,-0.531,0.764
63887,1755586226537,21.7,-34.84,-12.82,764,770,768,754,813,33.333333333333336,-0.379,-0.527,0.764
63917,1755586226566,21.65,-34.82,-12.85,766,770,770,749,814,33.333333333333336,-0.382,-0.529,0.761
63946,1755586226596,21.7,-34.82,-12.82,770,769,770,755,807,34.48275862068966,-0.383,-0.529,0.76
63976,1755586226625,21.72,-34.8,-12.8,769,770,771,752,818,33.333333333333336,-0.381,-0.528,0.763
64005,1755586226654,21.71,-34.77,-12.82,763,775,766,756,818,34.48275862068966,-0.38,-0.528,0.763
64034,1755586226684,21.67,-34.78,-12.84,767,777,766,752,817,34.48275862068966,-0.382,-0.529,0.759
64064,1755586226713,21.66,-34.79,-12.83,767,767,771,757,818,33.333333333333336,-0.381,-0.529,0.761
64094,1755586226743,21.68,-34.73,-12.81,769,772,775,750,819,33.333333333333336,-0.38,-0.527,0.765
64123,1755586226773,21.65,-34.72,-12.81,771,769,768,752,820,34.48275862068966,-0.381,-0.527,0.762
64153,1755586226802,21.69,-34.73,-12.8,769,763,770,748,821,33.333333333333336,-0.382,-0.525,0.76
64182,1755586226832,21.67,-34.74,-12.8,761,772,777,756,818,34.48275862068966,-0.384,-0.526,0.761
64212,1755586226862,21.68,-34.78,-12.78,775,775,766,753,816,33.333333333333336,-0.383,-0.528,0.762
64242,1755586226892,21.69,-34.77,-12.76,765,775,773,754,818,33.333333333333336,-0.381,-0.528,0.763
64262,1755586226912,21.68,-34.75,-12.76,762,776,782,753,816,50.0,-0.381,-0.526,0.763
64292,1755586226942,21.65,-34.75,-12.79,770,764,769,760,819,33.333333333333336,-0.385,-0.526,0.762
64312,1755586226961,21.63,-34.73,-12.78,770,769,768,753,827,50.0,-0.386,-0.529,0.762
64341,1755586226991,21.67,-34.75,-12.74,764,772,773,750,814,34.48275862068966,-0.384,-0.528,0.763
64371,1755586227020,21.68,-34.78,-12.75,762,772,771,756,821,33.333333333333336,-0.379,-0.524,0.763
64400,1755586227050,21.63,-34.75,-12.78,770,773,781,757,815,34.48275862068966,-0.383,-0.526,0.763
64430,1755586227079,21.67,-34.79,-12.77,767,773,771,756,821,33.333333333333336,-0.385,-0.528,0.762
64459,1755586227109,21.7,-34.81,-12.75,763,761,771,753,817,34.48275862068966,-0.385,-0.526,0.761
64489,1755586227139,21.67,-34.83,-12.76,765,774,781,748,816,33.333333333333336,-0.384,-0.526,0.761
64518,1755586227168,21.66,-34.84,-12.77,771,769,778,761,820,34.48275862068966,-0.385,-0.529,0.764
64548,1755586227197,21.65,-34.79,-12.75,769,771,768,750,819,33.333333333333336,-0.384,-0.529,0.763
64577,1755586227227,21.7,-34.78,-12.74,765,767,778,762,819,34.48275862068966,-0.38,-0.527,0.762
64607,1755586227256,21.64,-34.79,-12.78,766,777,781,756,819,33.333333333333336,-0.379,-0.525,0.761
64636,1755586227286,21.65,-34.83,-12.79,771,780,766,757,821,34.48275862068966,-0.387,-0.529,0.762
64666,1755586227316,21.67,-34.8,-12.74,768,776,765,757,824,33.333333333333336,-0.386,-0.529,0.762
64696,1755586227346,21.68,-34.79,-12.74,773,771,764,751,815,33.333333333333336,-0.379,-0.525,0.762
64726,1755586227375,21.59,-34.76,-12.8,769,776,769,745,821,33.333333333333336,-0.381,-0.527,0.761
64755,1755586227405,21.61,-34.82,-12.78,770,768,769,755,830,34.48275862068966,-0.387,-0.529,0.759
64785,1755586227434,21.68,-34.8,-12.73,773,775,776,752,815,33.333333333333336,-0.387,-0.531,0.763
64814,1755586227464,21.64,-34.74,-12.71,768,779,775,761,813,34.48275862068966,-0.378,-0.526,0.763
64844,1755586227494,21.64,-34.77,-12.76,768,777,772,749,818,33.333333333333336,-0.377,-0.525,0.761
64874,1755586227524,21.6,-34.84,-12.79,766,771,770,752,820,33.333333333333336,-0.38,-0.527,0.76
