timestamp_ms,recv_timestamp_ms,pitch,roll,yaw,flex1,flex2,flex3,flex4,flex5,sampling_hz,accel_x,accel_y,accel_z
103503,1755585039966,35.37,-60.54,-39.57,835,779,769,748,826,34.48275862068966,-0.57,-0.717,0.397
103533,1755585039996,35.39,-60.57,-39.57,820,774,779,746,814,33.333333333333336,-0.572,-0.719,0.398
103562,1755585040025,35.43,-60.57,-39.54,830,781,774,749,812,34.48275862068966,-0.573,-0.718,0.399
103592,1755585040055,35.41,-60.56,-39.54,828,772,768,749,811,33.333333333333336,-0.571,-0.716,0.4
103621,1755585040084,35.4,-60.54,-39.55,825,762,771,747,804,34.48275862068966,-0.571,-0.716,0.397
103651,1755585040114,35.37,-60.55,-39.54,833,764,762,743,814,33.333333333333336,-0.572,-0.717,0.394
103680,1755585040144,35.42,-60.61,-39.54,831,774,766,745,804,34.48275862068966,-0.572,-0.718,0.398
103710,1755585040173,35.3,-60.73,-39.46,839,767,773,749,814,33.333333333333336,-0.566,-0.716,0.397
103740,1755585040203,35.32,-60.79,-39.44,833,772,768,752,810,33.333333333333336,-0.566,-0.715,0.398
103770,1755585040232,35.32,-60.78,-39.45,827,774,779,744,810,33.333333333333336,-0.568,-0.714,0.399
103799,1755585040262,35.28,-60.75,-39.45,828,759,768,749,820,34.48275862068966,-0.568,-0.715,0.398
103829,1755585040291,35.34,-60.78,-39.45,829,770,763,743,814,33.333333333333336,-0.566,-0.716,0.397
103858,1755585040321,35.36,-60.78,-39.46,827,772,771,750,810,34.48275862068966,-0.567,-0.715,0.399
103888,1755585040351,35.34,-60.71,-39.47,822,783,770,746,832,33.333333333333336,-0.569,-0.716,0.399
103918,1755585040380,35.36,-60.73,-39.48,818,776,773,750,810,33.333333333333336,-0.57,-0.716,0.395
103947,1755585040410,35.38,-60.77,-39.49,823,774,770,747,846,34.48275862068966,-0.57,-0.716,0.396
103976,1755585040440,35.36,-60.74,-39.51,833,768,776,752,810,34.48275862068966,-0.57,-0.716,0.398
104006,1755585040469,35.35,-60.72,-39.56,828,777,771,750,815,33.333333333333336,-0.568,-0.716,0.401
104036,1755585040498,35.35,-60.68,-39.58,827,769,768,751,810,33.333333333333336,-0.569,-0.717,0.398
104065,1755585040528,35.34,-60.73,-39.6,831,770,783,765,801,34.48275862068966,-0.569,-0.716,0.395
104095,1755585040558,35.44,-60.73,-39.61,826,773,777,742,814,33.333333333333336,-0.571,-0.719,0.398
104124,1755585040587,35.42,-60.72,-39.6,828,776,765,749,809,34.48275862068966,-0.571,-0.719,0.396
104154,1755585040617,35.41,-60.75,-39.6,825,773,771,749,810,33.333333333333336,-0.571,-0.718,0.394
104183,1755585040646,35.42,-60.74,-39.61,833,776,768,746,804,34.48275862068966,-0.573,-0.719,0.396
104213,1755585040676,35.42,-60.72,-39.59,828,777,777,750,812,33.333333333333336,-0.572,-0.72,0.396
104242,1755585040705,35.46,-60.75,-39.58,821,776,766,744,812,34.48275862068966,-0.57,-0.719,0.395
104272,1755585040735,35.43,-60.76,-39.58,828,774,776,743,809,33.333333333333336,-0.57,-0.719,0.395
104301,1755585040764,35.43,-60.79,-39.58,831,770,773,748,816,34.48275862068966,-0.572,-0.72,0.394
104331,1755585040794,35.47,-60.79,-39.57,822,774,773,746,804,33.333333333333336,-0.572,-0.719,0.396
104360,1755585040823,35.46,-60.76,-39.56,823,781,766,744,813,34.48275862068966,-0.57,-0.718,0.396
104390,1755585040853,35.48,-60.78,-39.56,820,771,785,746,809,33.333333333333336,-0.57,-0.718,0.396
104419,1755585040882,35.51,-60.76,-39.55,826,769,778,756,815,34.48275862068966,-0.572,-0.719,0.395
104449,1755585040912,35.5,-60.78,-39.54,829,781,771,766,807,33.333333333333336,-0.571,-0.717,0.395
104479,1755585040942,35.48,-60.79,-39.54,825,769,762,747,815,33.333333333333336,-0.57,-0.718,0.396
104508,1755585040971,35.48,-60.8,-39.54,829,772,773,751,814,34.48275862068966,-0.571,-0.719,0.393
104538,1755585041001,35.48,-60.84,-39.53,822,763,773,752,808,33.333333333333336,-0.571,-0.719,0.393
104567,1755585041030,35.47,-60.82,-39.52,831,767,770,747,820,34.48275862068966,-0.571,-0.718,0.395
104597,1755585041060,35.46,-60.82,-39.52,834,774,774,744,814,33.333333333333336,-0.57,-0.719,0.395
104626,1755585041089,35.47,-60.85,-39.52,828,774,777,745,808,34.48275862068966,-0.57,-0.718,0.393
104656,1755585041119,35.47,-60.89,-39.52,825,767,773,745,812,33.333333333333336,-0.571,-0.718,0.395
104685,1755585041148,35.47,-60.87,-39.51,818,767,764,748,814,34.48275862068966,-0.571,-0.72,0.397
104715,1755585041178,35.44,-60.87,-39.51,825,765,769,747,816,33.333333333333336,-0.57,-0.718,0.395
104744,1755585041207,35.45,-60.9,-39.52,827,767,766,745,811,34.48275862068966,-0.57,-0.718,0.395
104774,1755585041237,35.45,-60.87,-39.51,828,776,773,746,811,33.333333333333336,-0.573,-0.719,0.395
104803,1755585041266,35.44,-60.87,-39.49,817,767,776,752,813,34.48275862068966,-0.571,-0.719,0.394
104833,1755585041296,35.46,-60.88,-39.5,830,764,777,769,808,33.333333333333336,-0.57,-0.718,0.395
104862,1755585041325,35.4,-60.88,-39.53,828,769,770,749,816,34.48275862068966,-0.57,-0.719,0.394
104892,1755585041355,35.39,-60.89,-39.53,818,763,766,746,802,33.333333333333336,-0.571,-0.72,0.394
104921,1755585041384,35.44,-60.91,-39.52,824,770,770,742,820,34.48275862068966,-0.571,-0.719,0.394
104951,1755585041414,35.35,-60.91,-39.55,824,768,763,748,813,33.333333333333336,-0.569,-0.718,0.393
104981,1755585041443,35.33,-60.9,-39.56,826,773,769,742,808,33.333333333333336,-0.57,-0.719,0.394
105010,1755585041473,35.34,-60.92,-39.59,825,772,776,749,806,34.48275862068966,-0.569,-0.719,0.397
105039,1755585041503,35.25,-60.89,-39.62,820,777,777,749,806,34.48275862068966,-0.569,-0.72,0.395
105060,1755585041522,35.25,-60.91,-39.63,823,773,767,741,809,47.61904761904762,-0.57,-0.722,0.394
105089,1755585041552,35.24,-60.95,-39.64,831,773,771,750,807,34.48275862068966,-0.568,-0.72,0.397
105119,1755585041582,35.19,-60.92,-39.66,831,766,778,748,809,33.333333333333336,-0.568,-0.72,0.401
105149,1755585041612,35.17,-60.84,-39.66,832,776,770,745,809,33.333333333333336,-0.569,-0.721,0.4
105169,1755585041632,35.13,-60.82,-39.66,834,768,774,749,814,50.0,-0.568,-0.72,0.399
105199,1755585041661,35.18,-60.85,-39.67,825,780,771,748,811,33.333333333333336,-0.568,-0.719,0.399
105228,1755585041691,35.16,-60.79,-39.67,822,765,772,758,818,34.48275862068966,-0.57,-0.72,0.398
105258,1755585041721,35.06,-60.7,-39.67,830,776,770,744,823,33.333333333333336,-0.57,-0.721,0.396
105287,1755585041750,35.1,-60.72,-39.66,827,769,770,749,811,34.48275862068966,-0.569,-0.719,0.395
105317,1755585041780,35.14,-60.75,-39.67,823,765,768,749,814,33.333333333333336,-0.569,-0.72,0.398
105346,1755585041809,35.07,-60.7,-39.67,826,774,770,754,808,34.48275862068966,-0.568,-0.721,0.398
105376,1755585041839,35.1,-60.63,-39.66,832,769,772,746,808,33.333333333333336,-0.569,-0.721,0.399
105405,1755585041868,35.12,-60.62,-39.64,826,776,778,752,812,34.48275862068966,-0.569,-0.719,0.398
105435,1755585041898,35.1,-60.61,-39.64,828,768,778,748,815,33.333333333333336,-0.567,-0.718,0.397
105464,1755585041927,35.11,-60.64,-39.65,826,768,768,749,803,34.48275862068966,-0.566,-0.718,0.4
105494,1755585041957,35.12,-60.65,-39.65,822,763,767,741,806,33.333333333333336,-0.568,-0.718,0.401
105523,1755585041987,35.14,-60.64,-39.64,828,769,762,743,809,34.48275862068966,-0.567,-0.717,0.4
105553,1755585042016,35.13,-60.67,-39.66,835,776,776,745,815,33.333333333333336,-0.566,-0.717,0.399
105583,1755585042046,35.1,-60.72,-39.67,823,766,769,751,811,33.333333333333336,-0.566,-0.717,0.398
105612,1755585042075,35.1,-60.77,-39.66,821,776,771,746,810,34.48275862068966,-0.565,-0.719,0.399
105642,1755585042105,35.12,-60.79,-39.66,825,776,776,749,816,33.333333333333336,-0.565,-0.719,0.402
105671,1755585042134,35.11,-60.76,-39.66,833,770,771,749,810,34.48275862068966,-0.566,-0.72,0.401
105701,1755585042164,35.11,-60.76,-39.66,828,759,775,751,805,33.333333333333336,-0.566,-0.72,0.399
105731,1755585042194,35.1,-60.77,-39.65,827,769,773,755,824,33.333333333333336,-0.566,-0.72,0.398
105760,1755585042224,35.11,-60.8,-39.66,821,765,772,749,804,34.48275862068966,-0.566,-0.72,0.398
105790,1755585042254,35.12,-60.81,-39.66,828,773,773,754,813,33.333333333333336,-0.565,-0.72,0.4
105820,1755585042283,35.12,-60.76,-39.66,823,764,766,749,811,33.333333333333336,-0.567,-0.722,0.399
105850,1755585042313,35.1,-60.76,-39.66,825,771,763,740,808,33.333333333333336,-0.566,-0.721,0.396
105879,1755585042342,35.1,-60.8,-39.67,824,775,768,749,808,34.48275862068966,-0.565,-0.719,0.398
105909,1755585042372,35.09,-60.79,-39.7,825,752,771,748,813,33.333333333333336,-0.567,-0.719,0.4
105938,1755585042401,35.05,-60.78,-39.75,823,776,773,744,818,34.48275862068966,-0.567,-0.72,0.396
105968,1755585042431,35.02,-60.9,-39.83,826,766,775,754,815,33.333333333333336,-0.566,-0.719,0.394
105997,1755585042461,34.96,-60.98,-39.94,827,771,776,753,808,34.48275862068966,-0.564,-0.72,0.395
106017,1755585042480,34.87,-61.05,-40.03,823,775,771,747,814,50.0,-0.56,-0.719,0.397
106047,1755585042510,34.79,-61.12,-40.2,828,774,769,749,814,33.333333333333336,-0.562,-0.719,0.4
106076,1755585042539,34.75,-61.13,-40.26,829,768,769,743,805,34.48275862068966,-0.565,-0.725,0.401
106106,1755585042569,34.78,-61.12,-40.24,827,771,769,751,812,33.333333333333336,-0.564,-0.726,0.398
106135,1755585042598,34.85,-61.08,-40.22,827,762,777,744,816,34.48275862068966,-0.563,-0.726,0.398
106165,1755585042628,34.84,-60.97,-40.23,825,767,773,751,818,33.333333333333336,-0.56,-0.726,0.399
106194,1755585042657,34.84,-60.91,-40.25,825,774,779,742,813,34.48275862068966,-0.559,-0.727,0.397
106224,1755585042687,34.9,-60.93,-40.26,832,771,782,754,818,33.333333333333336,-0.56,-0.727,0.396
106253,1755585042716,34.88,-60.91,-40.27,822,774,769,750,818,34.48275862068966,-0.558,-0.726,0.396
106283,1755585042746,34.86,-60.91,-40.28,827,766,767,748,811,33.333333333333336,-0.557,-0.727,0.397
106312,1755585042775,34.85,-60.97,-40.3,833,773,767,750,811,34.48275862068966,-0.556,-0.727,0.397
106342,1755585042805,34.85,-61.0,-40.31,831,764,775,748,814,33.333333333333336,-0.555,-0.727,0.398
106371,1755585042834,34.88,-60.98,-40.29,832,770,768,752,811,34.48275862068966,-0.555,-0.727,0.4
106401,1755585042864,34.83,-60.89,-40.31,825,787,778,749,815,33.333333333333336,-0.554,-0.727,0.399
106430,1755585042893,34.83,-60.91,-40.3,830,771,770,751,814,34.48275862068966,-0.556,-0.728,0.397
106460,1755585042923,34.8,-60.96,-40.28,827,765,767,744,815,33.333333333333336,-0.555,-0.727,0.396
106489,1755585042952,34.78,-60.92,-40.27,827,768,766,741,813,34.48275862068966,-0.556,-0.728,0.401
106519,1755585042982,34.8,-60.86,-40.25,829,780,773,749,813,33.333333333333336,-0.556,-0.728,0.402
106549,1755585043012,34.76,-60.87,-40.25,827,768,770,754,811,33.333333333333336,-0.555,-0.728,0.399
106578,1755585043041,34.77,-60.84,-40.24,826,770,772,750,808,34.48275862068966,-0.554,-0.727,0.398
106608,1755585043071,34.74,-60.86,-40.27,824,783,774,737,817,33.333333333333336,-0.553,-0.728,0.397
106637,1755585043100,34.76,-60.88,-40.27,832,767,772,753,810,34.48275862068966,-0.555,-0.728,0.398
106667,1755585043130,34.79,-60.88,-40.27,825,773,774,743,817,33.333333333333336,-0.555,-0.728,0.4
106696,1755585043160,34.7,-60.83,-40.26,828,776,766,748,814,34.48275862068966,-0.554,-0.728,0.398
106726,1755585043189,34.7,-60.87,-40.26,830,761,764,747,805,33.333333333333336,-0.555,-0.727,0.395
106756,1755585043219,34.68,-60.93,-40.29,828,774,772,744,807,33.333333333333336,-0.555,-0.727,0.398
106785,1755585043248,34.57,-60.95,-40.3,822,769,776,749,812,34.48275862068966,-0.555,-0.729,0.4
106815,1755585043278,34.58,-60.94,-40.29,834,766,774,750,815,33.333333333333336,-0.554,-0.729,0.401
106844,1755585043307,34.57,-60.89,-40.28,833,771,774,746,811,34.48275862068966,-0.553,-0.728,0.4
106874,1755585043337,34.51,-60.9,-40.29,826,772,766,748,822,33.333333333333336,-0.553,-0.728,0.398
106904,1755585043367,34.52,-60.94,-40.31,830,777,773,749,807,33.333333333333336,-0.554,-0.729,0.398
106934,1755585043396,34.51,-60.88,-40.29,829,780,773,744,815,33.333333333333336,-0.555,-0.73,0.401
106963,1755585043426,34.5,-60.82,-40.28,828,768,775,753,813,34.48275862068966,-0.553,-0.729,0.4
106992,1755585043455,34.47,-60.83,-40.28,831,773,761,750,814,34.48275862068966,-0.552,-0.728,0.396
107022,1755585043485,34.44,-60.92,-40.31,827,777,767,748,812,33.333333333333336,-0.555,-0.729,0.394
107052,1755585043514,34.44,-60.93,-40.3,829,772,772,738,814,33.333333333333336,-0.557,-0.731,0.4
107081,1755585043544,34.4,-60.86,-40.27,823,778,770,742,803,34.48275862068966,-0.554,-0.727,0.403
107111,1755585043574,34.42,-60.86,-40.26,831,770,772,753,818,33.333333333333336,-0.552,-0.727,0.4
107140,1755585043604,34.37,-60.86,-40.27,824,764,764,746,812,34.48275862068966,-0.554,-0.726,0.396
107170,1755585043633,34.33,-60.9,-40.26,828,780,774,744,815,33.333333333333336,-0.557,-0.728,0.399
107200,1755585043663,34.28,-60.96,-40.24,830,775,770,749,814,33.333333333333336,-0.554,-0.728,0.399
107229,1755585043692,34.29,-60.94,-40.22,831,770,765,747,813,34.48275862068966,-0.552,-0.728,0.399
107259,1755585043722,34.29,-60.95,-40.23,834,762,771,747,812,33.333333333333336,-0.551,-0.728,0.398
107288,1755585043751,34.28,-60.92,-40.22,832,769,778,751,820,34.48275862068966,-0.554,-0.728,0.4
107318,1755585043781,34.27,-60.96,-40.22,824,774,777,746,811,33.333333333333336,-0.553,-0.728,0.4
107347,1755585043810,34.26,-60.93,-40.21,827,775,781,748,809,34.48275862068966,-0.554,-0.727,0.398
107377,1755585043840,34.22,-60.95,-40.2,823,774,781,753,815,33.333333333333336,-0.553,-0.726,0.398
107406,1755585043869,34.21,-60.97,-40.21,826,772,773,753,806,34.48275862068966,-0.553,-0.727,0.401
107436,1755585043899,34.2,-60.94,-40.21,828,781,774,751,813,33.333333333333336,-0.554,-0.728,0.402
107465,1755585043928,34.18,-60.95,-40.2,830,771,775,746,846,34.48275862068966,-0.553,-0.727,0.4
107495,1755585043958,34.2,-60.91,-40.2,832,773,768,748,806,33.333333333333336,-0.553,-0.727,0.402
107525,1755585043988,34.19,-60.88,-40.21,831,775,772,748,811,33.333333333333336,-0.554,-0.728,0.403
107554,1755585044017,34.2,-60.87,-40.2,826,773,771,743,807,34.48275862068966,-0.553,-0.727,0.402
107584,1755585044047,34.22,-60.9,-40.21,831,771,771,745,819,33.333333333333336,-0.552,-0.727,0.401
107613,1755585044076,34.21,-60.87,-40.22,831,778,768,741,813,34.48275862068966,-0.554,-0.727,0.401
107643,1755585044106,34.17,-60.85,-40.21,827,769,774,747,816,33.333333333333336,-0.555,-0.728,0.403
107672,1755585044135,34.17,-60.87,-40.22,821,780,781,748,818,34.48275862068966,-0.552,-0.727,0.405
107702,1755585044165,34.19,-60.82,-40.22,827,765,776,747,813,33.333333333333336,-0.553,-0.727,0.406
107722,1755585044185,34.17,-60.8,-40.21,831,766,773,744,803,50.0,-0.551,-0.727,0.403
107751,1755585044214,34.14,-60.81,-40.23,819,776,772,746,815,34.48275862068966,-0.551,-0.726,0.402
107781,1755585044244,34.16,-60.82,-40.24,831,767,768,741,804,33.333333333333336,-0.553,-0.727,0.402
107811,1755585044274,34.13,-60.85,-40.23,830,762,776,750,807,33.333333333333336,-0.554,-0.729,0.402
107840,1755585044303,34.17,-60.88,-40.21,830,771,764,744,809,34.48275862068966,-0.551,-0.727,0.405
107870,1755585044333,34.16,-60.84,-40.22,828,777,773,747,813,33.333333333333336,-0.552,-0.728,0.407
107899,1755585044362,34.12,-60.82,-40.21,831,782,762,748,809,34.48275862068966,-0.553,-0.728,0.404
107929,1755585044392,34.18,-60.86,-40.2,824,771,772,752,817,33.333333333333336,-0.552,-0.726,0.403
107958,1755585044421,34.18,-60.88,-40.2,829,777,793,740,812,34.48275862068966,-0.555,-0.726,0.404
107988,1755585044451,34.14,-60.86,-40.2,827,771,768,744,813,33.333333333333336,-0.554,-0.728,0.404
108017,1755585044481,34.15,-60.86,-40.18,831,775,776,745,811,34.48275862068966,-0.553,-0.728,0.403
108047,1755585044510,34.17,-60.87,-40.19,828,772,781,745,808,33.333333333333336,-0.553,-0.726,0.409
108077,1755585044540,34.15,-60.84,-40.2,830,768,779,750,807,33.333333333333336,-0.555,-0.726,0.407
108107,1755585044570,34.18,-60.84,-40.18,828,761,771,752,809,33.333333333333336,-0.555,-0.727,0.407
108136,1755585044599,34.2,-60.81,-40.17,823,777,770,751,817,34.48275862068966,-0.554,-0.727,0.407
108166,1755585044629,34.16,-60.81,-40.18,828,762,766,750,819,33.333333333333336,-0.553,-0.726,0.405
108195,1755585044659,34.16,-60.78,-40.17,831,774,768,744,837,34.48275862068966,-0.556,-0.727,0.406
108225,1755585044688,34.16,-60.77,-40.15,826,770,761,750,817,33.333333333333336,-0.555,-0.727,0.404
108255,1755585044718,34.15,-60.78,-40.14,828,771,772,755,815,33.333333333333336,-0.553,-0.728,0.403
108284,1755585044747,34.17,-60.79,-40.15,827,769,776,752,814,34.48275862068966,-0.552,-0.726,0.407
108314,1755585044777,34.15,-60.76,-40.15,833,775,773,744,814,33.333333333333336,-0.553,-0.725,0.41
108343,1755585044806,34.17,-60.68,-40.14,832,773,778,748,810,34.48275862068966,-0.553,-0.726,0.408
108373,1755585044836,34.21,-60.71,-40.15,830,766,780,747,817,33.333333333333336,-0.55,-0.724,0.405
108403,1755585044865,34.24,-60.7,-40.18,830,769,775,752,813,33.333333333333336,-0.552,-0.722,0.404
108432,1755585044895,34.22,-60.68,-40.21,818,766,777,745,810,34.48275862068966,-0.555,-0.724,0.403
108462,1755585044925,34.28,-60.72,-40.22,824,773,775,744,825,33.333333333333336,-0.555,-0.726,0.404
108491,1755585044954,34.33,-60.7,-40.23,831,766,772,749,819,34.48275862068966,-0.556,-0.726,0.405
108521,1755585044984,34.24,-60.65,-40.23,824,773,774,745,809,33.333333333333336,-0.556,-0.729,0.401
108550,1755585045013,34.27,-60.7,-40.23,828,770,774,751,810,34.48275862068966,-0.552,-0.729,0.397
108580,1755585045043,34.28,-60.77,-40.27,826,779,773,746,815,33.333333333333336,-0.552,-0.727,0.404
108609,1755585045072,34.2,-60.67,-40.27,830,768,763,747,814,34.48275862068966,-0.555,-0.728,0.405
108639,1755585045102,34.23,-60.68,-40.26,831,769,780,748,810,33.333333333333336,-0.555,-0.729,0.401
108669,1755585045132,34.24,-60.73,-40.25,823,773,777,747,812,33.333333333333336,-0.556,-0.727,0.4
108698,1755585045161,34.17,-60.76,-40.24,829,771,784,752,820,34.48275862068966,-0.555,-0.729,0.404
108728,1755585045191,34.18,-60.73,-40.19,827,764,764,744,815,33.333333333333336,-0.556,-0.734,0.403
108748,1755585045211,34.15,-60.73,-40.16,828,777,777,748,815,50.0,-0.552,-0.738,0.4
108777,1755585045240,34.16,-60.72,-40.1,822,772,763,747,814,34.48275862068966,-0.55,-0.733,0.402
108807,1755585045270,34.23,-60.7,-40.07,829,769,779,751,818,33.333333333333336,-0.552,-0.727,0.409
108836,1755585045299,34.18,-60.57,-40.04,827,770,775,756,806,34.48275862068966,-0.553,-0.727,0.409
108866,1755585045329,34.25,-60.53,-40.0,830,758,774,745,813,33.333333333333336,-0.553,-0.728,0.406
108895,1755585045358,34.32,-60.49,-39.96,828,778,772,747,810,34.48275862068966,-0.554,-0.725,0.406
108925,1755585045388,34.28,-60.43,-39.92,824,770,773,747,813,33.333333333333336,-0.555,-0.725,0.404
108954,1755585045417,34.32,-60.4,-39.88,828,765,779,749,807,34.48275862068966,-0.554,-0.724,0.403
108984,1755585045447,34.32,-60.42,-39.86,818,775,799,747,808,33.333333333333336,-0.552,-0.722,0.408
109014,1755585045477,34.31,-60.38,-39.85,827,768,770,751,825,33.333333333333336,-0.553,-0.721,0.41
109043,1755585045507,34.34,-60.36,-39.84,828,770,765,749,802,34.48275862068966,-0.556,-0.722,0.407
109073,1755585045536,34.36,-60.38,-39.82,826,777,768,738,812,33.333333333333336,-0.559,-0.722,0.404
109103,1755585045566,34.36,-60.37,-39.81,827,770,770,748,816,33.333333333333336,-0.559,-0.721,0.405
109132,1755585045595,34.35,-60.35,-39.83,827,773,770,747,828,34.48275862068966,-0.559,-0.718,0.407
109162,1755585045624,34.37,-60.32,-39.83,825,770,772,750,812,33.333333333333336,-0.561,-0.721,0.41
109191,1755585045654,34.4,-60.23,-39.78,823,766,774,755,815,34.48275862068966,-0.56,-0.72,0.407
109221,1755585045684,34.43,-60.21,-39.79,828,768,766,754,810,33.333333333333336,-0.558,-0.718,0.406
109250,1755585045713,34.44,-60.2,-39.82,823,774,765,749,818,34.48275862068966,-0.559,-0.719,0.407
109280,1755585045743,34.44,-60.18,-39.84,830,771,772,746,813,33.333333333333336,-0.56,-0.72,0.405
109310,1755585045773,34.53,-60.21,-39.85,827,781,768,749,814,33.333333333333336,-0.559,-0.718,0.407
109339,1755585045802,34.54,-60.17,-39.87,832,774,771,752,811,34.48275862068966,-0.559,-0.719,0.406
109369,1755585045832,34.49,-60.15,-39.88,822,772,775,747,810,33.333333333333336,-0.559,-0.718,0.403
109398,1755585045861,34.57,-60.22,-39.89,820,771,778,747,809,34.48275862068966,-0.56,-0.718,0.408
109428,1755585045891,34.53,-60.17,-39.9,826,773,772,755,800,33.333333333333336,-0.559,-0.719,0.408
109457,1755585045920,34.55,-60.17,-39.91,842,768,772,747,809,34.48275862068966,-0.559,-0.72,0.405
109487,1755585045950,34.61,-60.2,-39.91,828,761,773,750,807,33.333333333333336,-0.562,-0.72,0.405
109517,1755585045980,34.56,-60.2,-39.91,829,774,770,749,803,33.333333333333336,-0.562,-0.72,0.404
109546,1755585046009,34.57,-60.22,-39.9,822,775,768,748,807,34.48275862068966,-0.562,-0.72,0.402
109576,1755585046039,34.56,-60.26,-39.9,828,778,775,750,814,33.333333333333336,-0.562,-0.72,0.403
109605,1755585046068,34.55,-60.24,-39.9,830,773,767,751,813,34.48275862068966,-0.56,-0.721,0.407
109635,1755585046098,34.55,-60.28,-39.9,824,777,770,743,813,33.333333333333336,-0.559,-0.722,0.407
109664,1755585046128,34.56,-60.31,-39.9,825,773,766,751,814,34.48275862068966,-0.559,-0.721,0.407
109694,1755585046157,34.6,-60.31,-39.89,827,771,766,750,816,33.333333333333336,-0.56,-0.72,0.404
109724,1755585046187,34.57,-60.37,-39.9,829,768,773,745,802,33.333333333333336,-0.561,-0.719,0.403
109753,1755585046216,34.58,-60.4,-39.9,832,780,765,752,805,34.48275862068966,-0.562,-0.722,0.408
109783,1755585046246,34.59,-60.35,-39.88,828,766,774,745,821,33.333333333333336,-0.559,-0.723,0.409
109812,1755585046276,34.57,-60.29,-39.87,826,777,773,734,815,34.48275862068966,-0.559,-0.721,0.405
109842,1755585046305,34.59,-60.31,-39.88,828,771,766,738,811,33.333333333333336,-0.564,-0.72,0.401
109872,1755585046335,34.59,-60.31,-39.85,831,766,765,751,817,33.333333333333336,-0.564,-0.722,0.403
109902,1755585046365,34.67,-60.33,-39.84,832,779,775,751,834,33.333333333333336,-0.56,-0.721,0.407
109931,1755585046394,34.66,-60.31,-39.85,831,769,775,745,828,34.48275862068966,-0.559,-0.719,0.41
109961,1755585046424,34.6,-60.27,-39.86,827,776,765,737,813,33.333333333333336,-0.562,-0.72,0.408
109990,1755585046453,34.65,-60.26,-39.84,822,773,766,748,805,34.48275862068966,-0.562,-0.721,0.405
110020,1755585046483,34.68,-60.28,-39.82,831,770,774,752,815,33.333333333333336,-0.56,-0.721,0.405
110049,1755585046512,34.68,-60.27,-39.82,831,771,773,749,814,34.48275862068966,-0.56,-0.721,0.407
110079,1755585046542,34.7,-60.24,-39.81,830,767,772,747,821,33.333333333333336,-0.563,-0.72,0.406
110108,1755585046571,34.7,-60.24,-39.8,831,772,773,749,809,34.48275862068966,-0.565,-0.72,0.401
110138,1755585046601,34.68,-60.3,-39.78,830,769,771,750,813,33.333333333333336,-0.562,-0.72,0.401
110167,1755585046630,34.7,-60.33,-39.77,826,775,776,751,810,34.48275862068966,-0.556,-0.721,0.408
110197,1755585046660,34.73,-60.28,-39.79,827,769,765,755,817,33.333333333333336,-0.559,-0.717,0.41
110226,1755585046689,34.74,-60.23,-39.82,824,770,765,754,810,34.48275862068966,-0.568,-0.718,0.403
110256,1755585046719,34.72,-60.28,-39.79,824,768,766,753,810,33.333333333333336,-0.566,-0.722,0.398
110285,1755585046748,34.76,-60.35,-39.78,829,770,779,751,818,34.48275862068966,-0.557,-0.722,0.405
110315,1755585046778,34.77,-60.27,-39.81,827,767,779,755,805,33.333333333333336,-0.556,-0.721,0.415
110344,1755585046807,34.71,-60.13,-39.81,827,770,774,747,814,34.48275862068966,-0.563,-0.72,0.408
110374,1755585046837,34.8,-60.19,-39.8,829,779,781,754,816,33.333333333333336,-0.564,-0.717,0.396
110404,1755585046867,34.84,-60.29,-39.84,830,766,767,743,813,33.333333333333336,-0.562,-0.718,0.396
110433,1755585046896,34.7,-60.27,-39.87,830,769,778,750,807,34.48275862068966,-0.562,-0.719,0.397
110463,1755585046926,34.75,-60.36,-39.9,829,769,780,745,813,33.333333333333336,-0.56,-0.716,0.4
110492,1755585046955,34.75,-60.42,-39.96,823,764,772,747,810,34.48275862068966,-0.565,-0.714,0.404
110522,1755585046985,34.58,-60.35,-39.96,824,768,774,747,807,33.333333333333336,-0.569,-0.72,0.404
110551,1755585047014,34.58,-60.4,-39.93,827,794,768,749,810,34.48275862068966,-0.56,-0.724,0.401
110581,1755585047044,34.62,-60.53,-39.94,834,765,777,749,815,33.333333333333336,-0.554,-0.724,0.411
110610,1755585047074,34.58,-60.41,-39.96,825,776,778,746,810,34.48275862068966,-0.559,-0.723,0.42
110640,1755585047103,34.56,-60.26,-39.92,824,773,773,754,824,33.333333333333336,-0.559,-0.724,0.409
110670,1755585047133,34.57,-60.27,-39.9,823,775,781,744,805,33.333333333333336,-0.555,-0.721,0.404
110700,1755585047163,34.54,-60.34,-39.93,833,776,774,746,813,33.333333333333336,-0.556,-0.721,0.407
110729,1755585047193,34.54,-60.29,-39.91,831,767,772,749,813,34.48275862068966,-0.559,-0.722,0.409
110759,1755585047222,34.53,-60.21,-39.89,822,772,770,746,809,33.333333333333336,-0.559,-0.722,0.407
110789,1755585047252,34.5,-60.25,-39.9,825,776,773,748,809,33.333333333333336,-0.557,-0.72,0.402
110818,1755585047281,34.48,-60.31,-39.92,824,780,771,747,811,34.48275862068966,-0.557,-0.72,0.407
110848,1755585047311,34.44,-60.17,-39.88,828,773,758,741,815,33.333333333333336,-0.56,-0.724,0.413
110877,1755585047341,34.48,-60.14,-39.84,823,763,776,749,812,34.48275862068966,-0.557,-0.721,0.407
110907,1755585047370,34.5,-60.2,-39.86,826,777,773,749,812,33.333333333333336,-0.556,-0.719,0.402
110937,1755585047401,34.41,-60.2,-39.88,832,763,768,752,819,33.333333333333336,-0.56,-0.72,0.403
110957,1755585047420,34.38,-60.22,-39.87,831,775,770,765,824,50.0,-0.561,-0.722,0.406
110986,1755585047449,34.45,-60.23,-39.82,824,764,769,748,812,34.48275862068966,-0.559,-0.724,0.41
111016,1755585047479,34.46,-60.16,-39.79,828,763,764,745,810,33.333333333333336,-0.557,-0.721,0.411
111045,1755585047508,34.46,-60.13,-39.79,819,775,768,745,814,34.48275862068966,-0.558,-0.721,0.407
111075,1755585047538,34.5,-60.19,-39.8,830,775,771,746,819,33.333333333333336,-0.559,-0.72,0.404
111105,1755585047568,34.49,-60.24,-39.81,830,770,783,740,811,33.333333333333336,-0.559,-0.72,0.407
111134,1755585047597,34.51,-60.21,-39.8,835,767,775,742,808,34.48275862068966,-0.559,-0.722,0.412
111164,1755585047627,34.53,-60.17,-39.78,825,765,772,751,808,33.333333333333336,-0.56,-0.719,0.41
111193,1755585047656,34.52,-60.17,-39.8,832,771,771,762,813,34.48275862068966,-0.561,-0.718,0.404
111223,1755585047686,34.5,-60.23,-39.79,826,766,781,750,810,33.333333333333336,-0.562,-0.723,0.401
111252,1755585047715,34.57,-60.3,-39.76,823,761,776,751,816,34.48275862068966,-0.559,-0.723,0.406
111282,1755585047745,34.59,-60.25,-39.75,826,791,787,744,825,33.333333333333336,-0.559,-0.72,0.411
111311,1755585047774,34.53,-60.17,-39.74,830,777,772,752,802,34.48275862068966,-0.561,-0.721,0.407
111341,1755585047804,34.54,-60.24,-39.72,836,771,771,748,816,33.333333333333336,-0.559,-0.72,0.401
111371,1755585047834,34.58,-60.34,-39.74,833,767,769,758,813,33.333333333333336,-0.559,-0.718,0.404
111400,1755585047864,34.55,-60.28,-39.73,830,774,778,749,817,34.48275862068966,-0.561,-0.72,0.409
111420,1755585047883,34.56,-60.25,-39.71,830,770,779,745,818,50.0,-0.56,-0.719,0.41
111450,1755585047913,34.63,-60.25,-39.71,822,774,777,752,810,33.333333333333336,-0.559,-0.718,0.408
111479,1755585047942,34.56,-60.24,-39.74,828,771,773,750,813,34.48275862068966,-0.561,-0.72,0.406
111509,1755585047972,34.61,-60.26,-39.72,818,781,767,745,806,33.333333333333336,-0.563,-0.722,0.404
111538,1755585048002,34.58,-60.27,-39.71,823,770,773,750,808,34.48275862068966,-0.562,-0.72,0.405
111568,1755585048031,34.57,-60.26,-39.72,822,767,775,752,812,33.333333333333336,-0.56,-0.72,0.406
111597,1755585048060,34.6,-60.26,-39.73,820,786,768,746,816,34.48275862068966,-0.559,-0.719,0.406
111627,1755585048090,34.58,-60.27,-39.74,810,780,773,753,806,33.333333333333336,-0.562,-0.718,0.405
111656,1755585048119,34.53,-60.27,-39.74,831,768,767,744,819,34.48275862068966,-0.562,-0.72,0.404
111686,1755585048149,34.58,-60.26,-39.71,837,765,774,743,820,33.333333333333336,-0.561,-0.722,0.404
111715,1755585048178,34.61,-60.27,-39.73,831,778,774,752,811,34.48275862068966,-0.558,-0.72,0.406
111745,1755585048208,34.57,-60.2,-39.74,830,770,772,752,801,33.333333333333336,-0.561,-0.72,0.406
111774,1755585048237,34.59,-60.22,-39.74,833,775,771,747,815,34.48275862068966,-0.562,-0.721,0.403
111804,1755585048267,34.65,-60.21,-39.74,826,769,767,741,810,33.333333333333336,-0.562,-0.72,0.401
111833,1755585048296,34.61,-60.19,-39.74,827,769,769,743,813,34.48275862068966,-0.562,-0.72,0.404
111863,1755585048326,34.64,-60.17,-39.74,824,761,778,750,810,33.333333333333336,-0.562,-0.721,0.406
111892,1755585048355,34.67,-60.17,-39.74,822,766,780,751,811,34.48275862068966,-0.561,-0.719,0.403
111922,1755585048385,34.63,-60.19,-39.76,830,757,772,747,818,33.333333333333336,-0.564,-0.719,0.404
111952,1755585048415,34.65,-60.2,-39.76,830,776,770,748,825,33.333333333333336,-0.564,-0.72,0.404
111981,1755585048444,34.68,-60.21,-39.75,828,769,775,751,812,34.48275862068966,-0.565,-0.721,0.406
112011,1755585048474,34.69,-60.2,-39.73,827,762,768,752,815,33.333333333333336,-0.562,-0.721,0.405
112040,1755585048503,34.7,-60.16,-39.71,826,771,786,752,804,34.48275862068966,-0.559,-0.722,0.406
112069,1755585048532,34.7,-60.18,-39.71,832,763,767,753,827,34.48275862068966,-0.56,-0.721,0.406
112099,1755585048562,34.72,-60.18,-39.68,829,770,769,752,815,33.333333333333336,-0.562,-0.72,0.408
112128,1755585048591,34.77,-60.19,-39.66,825,765,768,746,814,34.48275862068966,-0.56,-0.719,0.406
112158,1755585048621,34.8,-60.22,-39.66,820,767,778,744,817,33.333333333333336,-0.559,-0.719,0.405
112187,1755585048650,34.77,-60.26,-39.67,829,773,769,749,807,34.48275862068966,-0.559,-0.718,0.406
112217,1755585048680,34.76,-60.23,-39.68,832,767,767,749,808,33.333333333333336,-0.562,-0.719,0.407
112246,1755585048709,34.77,-60.2,-39.65,825,766,771,750,810,34.48275862068966,-0.563,-0.722,0.405
112276,1755585048740,34.76,-60.24,-39.62,820,769,773,743,805,33.333333333333336,-0.561,-0.72,0.402
