timestamp_ms,recv_timestamp_ms,pitch,roll,yaw,flex1,flex2,flex3,flex4,flex5,sampling_hz,accel_x,accel_y,accel_z
27612,1755586956131,20.8,-56.5,-13.06,777,880,779,815,840,34.48275862068966,-0.377,-0.777,0.503
27642,1755586956161,20.83,-56.46,-13.04,776,878,785,808,840,33.333333333333336,-0.379,-0.776,0.505
27671,1755586956190,20.81,-56.44,-13.01,770,886,779,799,839,34.48275862068966,-0.378,-0.773,0.501
27701,1755586956220,20.83,-56.55,-13.0,776,884,777,802,835,33.333333333333336,-0.377,-0.776,0.502
27730,1755586956249,20.81,-56.59,-12.96,778,874,783,808,835,34.48275862068966,-0.375,-0.776,0.504
27760,1755586956279,20.83,-56.57,-12.93,771,882,771,807,822,33.333333333333336,-0.373,-0.776,0.505
27790,1755586956309,20.83,-56.52,-12.91,781,881,772,808,835,33.333333333333336,-0.373,-0.775,0.504
27820,1755586956339,20.79,-56.64,-12.91,775,881,778,802,836,33.333333333333336,-0.371,-0.774,0.498
27849,1755586956369,20.75,-56.73,-12.93,778,887,773,808,829,34.48275862068966,-0.374,-0.777,0.499
27879,1755586956398,20.71,-56.69,-12.91,777,880,781,807,838,33.333333333333336,-0.374,-0.777,0.496
27909,1755586956428,20.7,-56.76,-12.91,772,880,779,809,837,33.333333333333336,-0.376,-0.78,0.501
27938,1755586956457,20.72,-56.77,-12.86,767,881,773,807,828,34.48275862068966,-0.377,-0.783,0.506
27967,1755586956487,20.86,-56.72,-12.77,770,884,777,807,837,34.48275862068966,-0.379,-0.785,0.51
27997,1755586956516,20.97,-56.54,-12.67,766,889,764,806,839,33.333333333333336,-0.376,-0.782,0.508
28027,1755586956546,21.04,-56.47,-12.61,775,872,776,794,828,33.333333333333336,-0.373,-0.776,0.504
28056,1755586956575,21.13,-56.45,-12.61,784,866,776,807,830,34.48275862068966,-0.374,-0.773,0.5
28086,1755586956605,21.07,-56.46,-12.66,775,873,777,811,832,33.333333333333336,-0.376,-0.771,0.497
28115,1755586956634,21.11,-56.48,-12.7,783,874,780,801,836,34.48275862068966,-0.379,-0.774,0.499
28145,1755586956664,21.12,-56.45,-12.7,776,864,772,813,832,33.333333333333336,-0.383,-0.777,0.502
28174,1755586956694,21.17,-56.43,-12.67,779,885,773,808,832,34.48275862068966,-0.383,-0.777,0.503
28204,1755586956723,21.23,-56.39,-12.64,782,895,778,807,833,33.333333333333336,-0.38,-0.777,0.504
28234,1755586956753,21.23,-56.3,-12.61,780,873,776,799,836,33.333333333333336,-0.377,-0.773,0.507
28263,1755586956782,21.21,-56.28,-12.64,774,883,770,802,837,34.48275862068966,-0.376,-0.769,0.507
28293,1755586956812,21.2,-56.26,-12.64,775,879,769,801,826,33.333333333333336,-0.376,-0.77,0.505
28323,1755586956842,21.24,-56.24,-12.63,780,881,778,810,834,33.333333333333336,-0.378,-0.774,0.504
28352,1755586956871,21.29,-56.18,-12.58,779,873,774,810,842,34.48275862068966,-0.379,-0.776,0.503
28382,1755586956901,21.35,-56.07,-12.53,780,878,771,803,842,33.333333333333336,-0.38,-0.775,0.504
28412,1755586956931,21.42,-55.96,-12.46,779,872,776,802,834,33.333333333333336,-0.381,-0.772,0.503
28441,1755586956960,21.42,-56.01,-12.49,777,885,774,802,835,34.48275862068966,-0.382,-0.77,0.502
28471,1755586956990,21.38,-56.08,-12.52,774,870,776,810,838,33.333333333333336,-0.384,-0.772,0.505
28501,1755586957019,21.36,-56.13,-12.52,773,871,767,816,850,33.333333333333336,-0.384,-0.772,0.506
28530,1755586957049,21.34,-56.15,-12.57,777,874,775,803,829,34.48275862068966,-0.383,-0.771,0.51
28559,1755586957079,21.22,-56.02,-12.64,775,884,771,810,825,34.48275862068966,-0.388,-0.762,0.512
28589,1755586957108,21.23,-55.95,-12.71,778,882,780,811,826,33.333333333333336,-0.387,-0.762,0.515
28619,1755586957138,21.2,-55.89,-12.77,768,878,778,801,831,33.333333333333336,-0.383,-0.774,0.517
28648,1755586957167,21.31,-55.75,-12.73,776,886,775,811,839,34.48275862068966,-0.378,-0.784,0.517
28678,1755586957197,21.42,-55.56,-12.63,773,877,779,805,838,33.333333333333336,-0.375,-0.78,0.516
28707,1755586957227,21.58,-55.6,-12.57,774,888,788,807,832,34.48275862068966,-0.375,-0.769,0.511
28737,1755586957257,21.73,-55.6,-12.52,777,871,780,794,831,33.333333333333336,-0.376,-0.764,0.512
28757,1755586957276,21.8,-55.57,-12.5,767,878,768,810,832,50.0,-0.374,-0.763,0.512
28787,1755586957306,21.81,-55.56,-12.53,773,886,769,801,833,33.333333333333336,-0.376,-0.765,0.51
28816,1755586957335,21.65,-55.67,-12.57,776,882,777,806,833,34.48275862068966,-0.381,-0.763,0.508
28846,1755586957364,21.47,-55.78,-12.62,780,882,767,814,842,33.333333333333336,-0.384,-0.768,0.51
28875,1755586957394,21.44,-55.75,-12.59,776,877,779,809,817,34.48275862068966,-0.388,-0.773,0.514
28904,1755586957424,21.26,-55.68,-12.57,772,870,778,799,838,34.48275862068966,-0.388,-0.775,0.515
28934,1755586957453,21.23,-55.61,-12.49,776,886,775,810,837,33.333333333333336,-0.384,-0.775,0.517
28964,1755586957483,21.19,-55.5,-12.43,781,879,775,804,828,33.333333333333336,-0.382,-0.773,0.52
28994,1755586957512,21.17,-55.38,-12.37,773,877,774,810,839,33.333333333333336,-0.376,-0.767,0.515
29023,1755586957542,21.12,-55.37,-12.34,776,881,778,809,832,34.48275862068966,-0.374,-0.766,0.516
29053,1755586957572,21.09,-55.27,-12.3,780,878,774,808,832,33.333333333333336,-0.375,-0.765,0.518
29082,1755586957601,21.02,-55.07,-12.3,777,873,777,805,836,34.48275862068966,-0.375,-0.762,0.52
29112,1755586957631,20.93,-54.83,-12.31,773,864,781,807,831,33.333333333333336,-0.376,-0.759,0.525
29142,1755586957661,20.91,-54.79,-12.31,777,884,776,805,828,33.333333333333336,-0.376,-0.753,0.524
29171,1755586957690,21.06,-54.79,-12.24,775,876,781,811,838,34.48275862068966,-0.378,-0.753,0.531
29201,1755586957720,21.15,-54.68,-12.21,777,865,766,800,833,33.333333333333336,-0.378,-0.755,0.534
29230,1755586957750,21.21,-54.57,-12.2,780,868,771,804,837,34.48275862068966,-0.377,-0.753,0.534
29260,1755586957779,21.18,-54.59,-12.24,771,878,781,805,834,33.333333333333336,-0.379,-0.753,0.534
29290,1755586957809,21.3,-54.62,-12.19,783,871,775,805,835,33.333333333333336,-0.386,-0.749,0.535
29320,1755586957839,21.27,-54.53,-12.2,773,868,779,809,838,33.333333333333336,-0.389,-0.746,0.536
29349,1755586957869,21.2,-54.42,-12.24,773,878,774,818,840,34.48275862068966,-0.39,-0.749,0.532
29379,1755586957898,21.16,-54.41,-12.2,780,873,779,813,840,33.333333333333336,-0.39,-0.756,0.529
29409,1755586957928,21.2,-54.36,-12.09,775,866,775,801,829,33.333333333333336,-0.383,-0.764,0.53
29438,1755586957957,21.21,-54.34,-11.98,779,880,778,810,829,34.48275862068966,-0.372,-0.763,0.533
29468,1755586957987,21.15,-54.39,-11.96,781,868,777,807,843,33.333333333333336,-0.36,-0.752,0.534
29497,1755586958016,21.13,-54.43,-12.02,777,890,780,810,835,34.48275862068966,-0.356,-0.746,0.542
29527,1755586958046,21.17,-54.42,-12.11,774,881,777,810,835,33.333333333333336,-0.359,-0.74,0.542
29556,1755586958075,21.07,-54.59,-12.29,775,868,777,808,839,34.48275862068966,-0.368,-0.74,0.544
29586,1755586958105,20.9,-54.74,-12.46,778,872,773,804,832,33.333333333333336,-0.373,-0.75,0.544
29615,1755586958134,20.92,-54.69,-12.51,779,876,782,806,835,34.48275862068966,-0.375,-0.764,0.545
29645,1755586958164,20.98,-54.55,-12.44,776,873,782,806,841,33.333333333333336,-0.373,-0.77,0.541
29674,1755586958193,21.1,-54.46,-12.31,777,868,775,814,838,34.48275862068966,-0.37,-0.766,0.544
29704,1755586958223,21.19,-54.32,-12.25,781,863,772,812,834,33.333333333333336,-0.37,-0.761,0.547
29733,1755586958252,21.63,-54.15,-12.24,781,872,774,804,825,34.48275862068966,-0.371,-0.758,0.546
29763,1755586958282,21.69,-54.01,-12.2,776,874,779,807,841,33.333333333333336,-0.373,-0.756,0.541
29793,1755586958312,21.79,-53.91,-12.1,778,868,769,811,832,33.333333333333336,-0.373,-0.756,0.535
29823,1755586958342,21.79,-53.89,-12.03,774,876,767,808,835,33.333333333333336,-0.377,-0.758,0.534
29852,1755586958371,21.76,-53.87,-11.93,777,872,778,822,840,34.48275862068966,-0.379,-0.754,0.533
29882,1755586958401,21.76,-53.94,-11.78,777,873,778,810,828,33.333333333333336,-0.379,-0.745,0.533
29912,1755586958431,21.71,-53.97,-11.76,784,860,776,810,837,33.333333333333336,-0.376,-0.735,0.537
29941,1755586958460,21.62,-53.97,-11.87,775,870,772,808,843,34.48275862068966,-0.373,-0.728,0.54
29971,1755586958490,21.7,-53.93,-11.96,776,879,780,816,829,33.333333333333336,-0.374,-0.732,0.545
30000,1755586958519,21.74,-53.9,-12.05,778,881,777,812,826,34.48275862068966,-0.374,-0.744,0.545
30030,1755586958549,21.75,-53.92,-12.1,780,880,778,806,826,33.333333333333336,-0.372,-0.752,0.544
30059,1755586958578,21.88,-53.86,-12.13,777,880,782,824,830,34.48275862068966,-0.372,-0.756,0.544
30089,1755586958608,22.0,-53.91,-12.19,777,872,775,812,829,33.333333333333336,-0.379,-0.754,0.543
30118,1755586958637,22.05,-53.91,-12.29,769,878,774,802,836,34.48275862068966,-0.379,-0.749,0.542
30148,1755586958667,22.2,-53.8,-12.3,769,868,778,816,830,33.333333333333336,-0.379,-0.748,0.54
30177,1755586958697,22.33,-53.77,-12.32,771,880,783,798,827,34.48275862068966,-0.383,-0.748,0.54
30207,1755586958727,22.53,-53.65,-12.33,786,876,773,808,828,33.333333333333336,-0.383,-0.749,0.541
30237,1755586958756,22.62,-53.61,-12.35,778,891,767,806,825,33.333333333333336,-0.385,-0.751,0.543
30267,1755586958787,22.75,-53.61,-12.34,771,873,767,806,833,33.333333333333336,-0.386,-0.748,0.544
30287,1755586958806,22.86,-53.65,-12.33,778,876,768,795,832,50.0,-0.386,-0.747,0.543
30317,1755586958836,23.02,-53.59,-12.29,770,876,779,803,839,33.333333333333336,-0.387,-0.75,0.544
30346,1755586958865,23.09,-53.46,-12.3,779,877,774,804,834,34.48275862068966,-0.386,-0.749,0.54
30376,1755586958895,23.07,-53.44,-12.32,770,876,772,809,836,33.333333333333336,-0.385,-0.747,0.535
30405,1755586958924,23.14,-53.49,-12.32,790,873,774,806,838,34.48275862068966,-0.385,-0.747,0.536
30434,1755586958953,23.13,-53.48,-12.34,774,875,773,803,824,34.48275862068966,-0.386,-0.747,0.535
30464,1755586958983,23.1,-53.53,-12.35,776,888,781,807,830,33.333333333333336,-0.387,-0.748,0.532
30493,1755586959012,23.18,-53.52,-12.28,779,882,777,808,838,34.48275862068966,-0.388,-0.752,0.538
30523,1755586959042,23.2,-53.43,-12.25,771,883,771,804,830,33.333333333333336,-0.389,-0.75,0.541
30552,1755586959071,23.19,-53.4,-12.24,777,865,771,813,837,34.48275862068966,-0.388,-0.75,0.541
30582,1755586959101,23.3,-53.4,-12.18,779,862,772,806,828,33.333333333333336,-0.388,-0.751,0.536
30611,1755586959131,23.41,-53.49,-12.11,776,872,775,803,830,34.48275862068966,-0.391,-0.751,0.532
30641,1755586959160,23.38,-53.51,-12.08,787,878,773,807,838,33.333333333333336,-0.393,-0.747,0.528
30671,1755586959190,23.29,-53.59,-12.09,773,878,775,807,832,33.333333333333336,-0.389,-0.735,0.522
30700,1755586959220,23.24,-53.76,-12.18,776,872,777,803,836,34.48275862068966,-0.386,-0.732,0.524
30730,1755586959249,23.03,-53.9,-12.35,776,863,776,806,833,33.333333333333336,-0.386,-0.738,0.525
30760,1755586959279,22.9,-54.13,-12.46,777,882,772,789,833,33.333333333333336,-0.391,-0.748,0.533
30789,1755586959309,22.9,-54.08,-12.45,775,873,772,806,832,34.48275862068966,-0.392,-0.755,0.537
30819,1755586959338,22.79,-54.09,-12.49,779,879,778,806,837,33.333333333333336,-0.389,-0.758,0.536
30848,1755586959368,22.7,-54.1,-12.51,781,871,778,807,836,34.48275862068966,-0.387,-0.76,0.534
30878,1755586959397,22.76,-54.05,-12.46,778,879,763,806,834,33.333333333333336,-0.385,-0.759,0.531
30908,1755586959427,22.73,-53.93,-12.46,774,898,777,799,834,33.333333333333336,-0.387,-0.756,0.529
30937,1755586959456,22.56,-53.94,-12.51,775,873,784,806,840,34.48275862068966,-0.383,-0.75,0.521
30966,1755586959485,22.49,-54.28,-12.65,776,870,783,816,825,34.48275862068966,-0.385,-0.755,0.524
30996,1755586959515,22.37,-54.35,-12.64,773,869,785,804,842,33.333333333333336,-0.391,-0.758,0.533
31025,1755586959544,22.36,-54.35,-12.59,776,864,774,805,840,34.48275862068966,-0.386,-0.757,0.535
31055,1755586959574,22.36,-54.34,-12.55,770,871,772,802,828,33.333333333333336,-0.382,-0.758,0.538
31085,1755586959604,22.21,-54.42,-12.57,777,868,782,806,839,33.333333333333336,-0.373,-0.754,0.534
31114,1755586959634,22.13,-54.49,-12.59,781,870,774,816,840,34.48275862068966,-0.37,-0.751,0.534
31144,1755586959663,22.09,-54.46,-12.65,781,872,780,808,832,33.333333333333336,-0.371,-0.756,0.535
31174,1755586959692,21.99,-54.53,-12.69,781,864,769,809,830,33.333333333333336,-0.375,-0.761,0.536
31203,1755586959723,22.05,-54.5,-12.59,780,882,772,802,835,34.48275862068966,-0.377,-0.764,0.541
31223,1755586959743,22.14,-54.44,-12.49,777,873,781,810,832,50.0,-0.376,-0.763,0.544
31243,1755586959763,22.13,-54.41,-12.44,773,880,778,799,834,50.0,-0.371,-0.761,0.543
31273,1755586959792,22.14,-54.41,-12.45,773,883,775,809,834,33.333333333333336,-0.366,-0.754,0.54
31302,1755586959822,22.21,-54.4,-12.43,774,870,768,812,831,34.48275862068966,-0.368,-0.751,0.535
31332,1755586959851,22.24,-54.38,-12.44,780,872,775,807,835,33.333333333333336,-0.371,-0.755,0.532
31361,1755586959880,22.15,-54.37,-12.48,781,870,789,804,829,34.48275862068966,-0.373,-0.754,0.524
31391,1755586959910,22.14,-54.4,-12.49,774,873,770,814,840,33.333333333333336,-0.377,-0.754,0.521
31420,1755586959940,22.08,-54.5,-12.52,776,880,774,808,831,34.48275862068966,-0.375,-0.755,0.52
31450,1755586959969,22.01,-54.55,-12.55,774,874,778,806,830,33.333333333333336,-0.375,-0.759,0.523
31480,1755586959999,21.94,-54.6,-12.58,779,879,766,805,832,33.333333333333336,-0.371,-0.765,0.527
31509,1755586960028,21.98,-54.58,-12.55,779,872,781,806,830,34.48275862068966,-0.373,-0.77,0.532
31539,1755586960058,21.91,-54.53,-12.53,779,872,782,805,834,33.333333333333336,-0.373,-0.768,0.533
31568,1755586960087,21.86,-54.61,-12.55,779,876,767,804,837,34.48275862068966,-0.372,-0.766,0.528
31598,1755586960118,21.8,-54.58,-12.55,775,871,777,807,832,33.333333333333336,-0.371,-0.762,0.527
31618,1755586960137,21.76,-54.55,-12.53,780,880,767,817,838,50.0,-0.369,-0.758,0.525
31648,1755586960167,21.73,-54.57,-12.56,783,863,770,808,838,33.333333333333336,-0.369,-0.757,0.525
31677,1755586960196,21.62,-54.59,-12.62,769,870,769,809,826,34.48275862068966,-0.368,-0.758,0.527
31707,1755586960226,21.61,-54.62,-12.65,782,880,776,809,856,33.333333333333336,-0.367,-0.759,0.528
31736,1755586960255,21.52,-54.72,-12.72,771,870,770,812,833,34.48275862068966,-0.366,-0.758,0.528
31766,1755586960285,21.42,-54.95,-12.85,773,873,773,806,833,33.333333333333336,-0.367,-0.759,0.528
31796,1755586960315,21.86,-55.0,-12.84,776,875,779,799,830,33.333333333333336,-0.369,-0.763,0.528
31826,1755586960345,21.79,-54.98,-12.86,778,865,777,821,812,33.333333333333336,-0.369,-0.768,0.528
31855,1755586960374,21.74,-54.92,-12.85,778,869,769,803,831,34.48275862068966,-0.368,-0.771,0.532
31884,1755586960403,21.79,-54.87,-12.77,779,866,773,803,834,34.48275862068966,-0.364,-0.77,0.533
31914,1755586960433,21.82,-54.89,-12.72,777,874,779,808,842,33.333333333333336,-0.358,-0.769,0.534
31943,1755586960462,21.79,-54.96,-12.76,771,875,774,812,831,34.48275862068966,-0.354,-0.763,0.531
31973,1755586960492,21.84,-55.06,-12.82,775,868,778,810,879,33.333333333333336,-0.353,-0.758,0.529
32002,1755586960522,21.8,-55.18,-12.94,767,870,773,813,835,34.48275862068966,-0.356,-0.759,0.524
32032,1755586960551,21.68,-55.48,-13.08,771,874,772,806,838,33.333333333333336,-0.36,-0.768,0.517
32062,1755586960581,21.75,-55.47,-13.0,779,865,776,807,830,33.333333333333336,-0.369,-0.78,0.524
32091,1755586960610,21.89,-55.32,-12.87,775,874,775,805,870,34.48275862068966,-0.368,-0.78,0.526
32121,1755586960640,21.81,-55.34,-12.89,775,874,772,808,832,33.333333333333336,-0.367,-0.776,0.523
32150,1755586960669,21.89,-55.31,-12.79,777,873,773,809,814,34.48275862068966,-0.367,-0.771,0.523
32180,1755586960699,22.02,-55.06,-12.61,772,886,771,807,841,33.333333333333336,-0.361,-0.77,0.518
32209,1755586960729,21.83,-55.18,-12.71,778,874,778,811,833,34.48275862068966,-0.359,-0.77,0.512
32229,1755586960749,21.76,-55.28,-12.74,782,874,770,814,840,50.0,-0.362,-0.774,0.512
32259,1755586960778,21.83,-55.21,-12.62,775,882,774,805,836,33.333333333333336,-0.364,-0.78,0.517
32289,1755586960808,21.68,-55.31,-12.59,778,877,772,812,840,33.333333333333336,-0.361,-0.778,0.52
32319,1755586960838,21.78,-55.25,-12.53,777,873,782,811,838,33.333333333333336,-0.358,-0.769,0.525
32348,1755586960868,21.77,-55.07,-12.53,775,885,771,809,825,34.48275862068966,-0.355,-0.764,0.524
32378,1755586960897,21.68,-55.08,-12.63,780,880,779,812,835,33.333333333333336,-0.354,-0.766,0.516
32408,1755586960927,21.62,-55.19,-12.68,782,875,772,806,832,33.333333333333336,-0.362,-0.768,0.517
32437,1755586960956,21.71,-55.15,-12.67,778,871,771,808,830,34.48275862068966,-0.368,-0.766,0.522
32467,1755586960986,21.68,-55.14,-12.72,776,873,780,806,836,33.333333333333336,-0.37,-0.768,0.52
32497,1755586961016,21.75,-55.1,-12.66,778,877,775,803,835,33.333333333333336,-0.369,-0.772,0.518
32526,1755586961045,21.81,-55.05,-12.59,773,880,778,819,835,34.48275862068966,-0.366,-0.775,0.519
32555,1755586961075,21.76,-55.06,-12.59,780,866,772,812,838,34.48275862068966,-0.365,-0.773,0.52
32585,1755586961104,21.75,-55.08,-12.56,770,863,769,819,869,33.333333333333336,-0.361,-0.768,0.52
32615,1755586961134,21.75,-55.08,-12.55,779,871,775,805,836,33.333333333333336,-0.364,-0.768,0.523
32644,1755586961164,21.86,-54.9,-12.51,777,881,763,800,838,34.48275862068966,-0.37,-0.766,0.526
32674,1755586961194,21.99,-54.77,-12.42,773,874,774,805,830,33.333333333333336,-0.376,-0.764,0.527
32704,1755586961223,22.14,-54.62,-12.3,780,881,772,824,836,33.333333333333336,-0.38,-0.763,0.528
32734,1755586961252,22.12,-54.59,-12.28,778,877,751,812,834,33.333333333333336,-0.379,-0.766,0.525
32763,1755586961282,22.12,-54.52,-12.22,777,888,777,809,831,34.48275862068966,-0.375,-0.77,0.526
32792,1755586961312,22.32,-54.34,-12.13,778,876,774,803,833,34.48275862068966,-0.373,-0.769,0.528
32822,1755586961341,22.28,-54.29,-12.12,770,875,768,803,837,33.333333333333336,-0.373,-0.766,0.528
32852,1755586961371,22.32,-54.37,-12.09,769,887,773,809,835,33.333333333333336,-0.373,-0.763,0.52
32881,1755586961400,22.37,-54.41,-12.05,775,877,779,809,837,34.48275862068966,-0.372,-0.765,0.519
32911,1755586961430,22.4,-54.34,-12.03,773,881,768,809,836,33.333333333333336,-0.371,-0.767,0.519
32941,1755586961460,22.3,-54.34,-12.05,775,874,773,809,840,33.333333333333336,-0.373,-0.765,0.519
32970,1755586961489,22.32,-54.38,-12.0,781,881,780,808,837,34.48275862068966,-0.375,-0.762,0.521
33000,1755586961519,22.4,-54.39,-11.87,771,873,775,814,838,33.333333333333336,-0.374,-0.762,0.526
33029,1755586961548,22.26,-54.39,-11.99,777,874,776,804,830,34.48275862068966,-0.374,-0.76,0.529
33059,1755586961578,22.28,-54.37,-12.0,770,872,776,814,836,33.333333333333336,-0.376,-0.754,0.53
33088,1755586961608,22.45,-54.41,-11.96,771,881,770,808,837,34.48275862068966,-0.382,-0.755,0.533
33118,1755586961637,22.47,-54.37,-11.94,781,883,773,805,834,33.333333333333336,-0.382,-0.757,0.532
33147,1755586961667,22.48,-54.41,-11.95,780,885,775,807,828,34.48275862068966,-0.378,-0.756,0.526
33177,1755586961696,22.45,-54.56,-12.01,779,882,765,811,835,33.333333333333336,-0.378,-0.757,0.524
33207,1755586961726,22.45,-54.48,-11.99,781,877,768,809,829,33.333333333333336,-0.379,-0.757,0.525
33236,1755586961755,22.43,-54.49,-12.01,779,886,768,814,830,34.48275862068966,-0.377,-0.758,0.524
33266,1755586961785,22.46,-54.53,-12.0,782,885,772,815,831,33.333333333333336,-0.378,-0.76,0.525
33295,1755586961814,22.51,-54.54,-11.98,774,890,771,813,835,34.48275862068966,-0.378,-0.761,0.526
33325,1755586961844,22.52,-54.56,-11.99,779,863,772,811,837,33.333333333333336,-0.379,-0.76,0.526
33354,1755586961873,22.48,-54.56,-12.01,773,882,769,806,826,34.48275862068966,-0.382,-0.755,0.522
33384,1755586961903,22.48,-54.61,-12.01,779,884,771,804,835,33.333333333333336,-0.385,-0.754,0.522
33413,1755586961932,22.41,-54.71,-12.06,775,872,777,817,859,34.48275862068966,-0.388,-0.76,0.524
33443,1755586961962,22.32,-54.73,-12.04,779,873,779,814,835,33.333333333333336,-0.388,-0.763,0.526
33472,1755586961991,22.41,-54.71,-11.93,778,875,766,805,842,34.48275862068966,-0.385,-0.763,0.529
33502,1755586962021,22.35,-54.74,-11.9,775,876,767,817,842,33.333333333333336,-0.38,-0.76,0.531
33531,1755586962051,22.46,-54.6,-11.82,776,879,777,820,820,34.48275862068966,-0.379,-0.757,0.532
33561,1755586962080,22.51,-54.45,-11.8,777,878,772,811,841,33.333333333333336,-0.379,-0.756,0.529
33591,1755586962110,22.57,-54.54,-11.79,772,884,776,812,866,33.333333333333336,-0.382,-0.754,0.524
33620,1755586962140,22.64,-54.69,-11.75,784,882,771,809,836,34.48275862068966,-0.387,-0.754,0.522
33650,1755586962169,22.71,-54.68,-11.72,779,869,778,808,838,33.333333333333336,-0.389,-0.756,0.522
33679,1755586962199,22.6,-54.69,-11.75,785,875,782,812,834,34.48275862068966,-0.388,-0.756,0.519
33709,1755586962228,22.6,-54.79,-11.73,773,888,772,808,833,33.333333333333336,-0.387,-0.756,0.519
33739,1755586962258,22.57,-54.89,-11.74,778,883,771,814,832,33.333333333333336,-0.385,-0.758,0.52
33768,1755586962287,22.43,-54.97,-11.81,778,878,776,798,836,34.48275862068966,-0.386,-0.758,0.519
33798,1755586962317,22.29,-55.12,-11.9,777,866,778,818,835,33.333333333333336,-0.384,-0.76,0.516
33827,1755586962346,22.3,-55.19,-11.88,776,868,774,819,849,34.48275862068966,-0.389,-0.763,0.522
33857,1755586962376,22.45,-55.14,-11.79,771,872,773,820,863,33.333333333333336,-0.389,-0.764,0.522
33886,1755586962405,22.44,-55.14,-11.73,777,874,772,813,842,34.48275862068966,-0.385,-0.76,0.521
33916,1755586962435,22.51,-55.02,-11.67,775,874,774,812,844,33.333333333333336,-0.382,-0.755,0.517
33945,1755586962465,22.49,-55.09,-11.72,781,872,772,812,832,34.48275862068966,-0.378,-0.754,0.513
33975,1755586962493,22.34,-55.18,-11.81,776,877,774,820,838,33.333333333333336,-0.382,-0.759,0.519
34004,1755586962523,22.44,-55.16,-11.78,782,875,776,821,847,34.48275862068966,-0.386,-0.763,0.522
34033,1755586962552,22.52,-55.18,-11.73,775,878,773,816,835,34.48275862068966,-0.386,-0.766,0.52
34063,1755586962582,22.56,-55.15,-11.69,784,867,776,814,841,33.333333333333336,-0.385,-0.765,0.518
34092,1755586962611,22.58,-55.12,-11.66,777,876,763,817,843,34.48275862068966,-0.384,-0.761,0.517
34122,1755586962641,22.57,-55.12,-11.62,779,877,784,825,839,33.333333333333336,-0.386,-0.759,0.517
34151,1755586962670,22.67,-55.14,-11.6,776,866,763,812,842,34.48275862068966,-0.386,-0.76,0.517
34181,1755586962700,22.64,-55.15,-11.61,776,867,776,816,839,33.333333333333336,-0.388,-0.76,0.516
34210,1755586962730,22.7,-55.14,-11.57,773,874,774,820,832,34.48275862068966,-0.392,-0.762,0.517
34240,1755586962759,22.72,-55.12,-11.53,782,875,772,816,834,33.333333333333336,-0.388,-0.762,0.515
34270,1755586962789,22.61,-55.3,-11.58,774,871,779,818,837,33.333333333333336,-0.388,-0.761,0.513
34299,1755586962818,22.65,-55.29,-11.55,774,870,778,810,831,34.48275862068966,-0.39,-0.761,0.517
34329,1755586962848,22.64,-55.22,-11.49,779,874,776,807,838,33.333333333333336,-0.387,-0.761,0.508
34358,1755586962878,22.59,-55.35,-11.57,776,879,769,819,833,34.48275862068966,-0.388,-0.764,0.509
34388,1755586962907,22.59,-55.32,-11.54,792,878,774,813,837,33.333333333333336,-0.39,-0.764,0.511
34417,1755586962936,22.67,-55.3,-11.48,768,878,781,814,837,34.48275862068966,-0.391,-0.763,0.512
34447,1755586962966,22.67,-55.26,-11.49,772,871,773,816,840,33.333333333333336,-0.392,-0.762,0.512
34476,1755586962996,22.72,-55.22,-11.47,777,870,773,810,852,34.48275862068966,-0.392,-0.759,0.507
34506,1755586963025,22.79,-55.25,-11.43,777,874,781,815,831,33.333333333333336,-0.394,-0.759,0.508
34535,1755586963055,22.69,-55.26,-11.48,779,882,777,805,837,34.48275862068966,-0.392,-0.755,0.511
34565,1755586963085,22.64,-55.24,-11.54,780,877,768,815,833,33.333333333333336,-0.392,-0.752,0.511
34595,1755586963114,22.71,-55.29,-11.62,777,856,788,814,839,33.333333333333336,-0.396,-0.759,0.51
34625,1755586963144,22.66,-55.25,-11.64,779,876,782,813,840,33.333333333333336,-0.394,-0.766,0.51
34654,1755586963173,22.69,-55.22,-11.65,780,874,778,805,834,34.48275862068966,-0.39,-0.768,0.516
34684,1755586963203,22.77,-55.19,-11.64,776,874,787,813,834,33.333333333333336,-0.388,-0.763,0.519
34713,1755586963232,22.77,-55.24,-11.68,776,867,778,819,849,34.48275862068966,-0.39,-0.755,0.516
34743,1755586963262,22.73,-55.32,-11.71,780,868,773,824,833,33.333333333333336,-0.391,-0.758,0.516
34772,1755586963291,22.67,-55.26,-11.72,779,863,771,817,839,34.48275862068966,-0.391,-0.764,0.514
34802,1755586963321,22.62,-55.13,-11.7,783,871,774,815,843,33.333333333333336,-0.387,-0.764,0.512
34831,1755586963350,22.58,-55.11,-11.71,779,882,772,814,832,34.48275862068966,-0.385,-0.766,0.512
34861,1755586963380,22.63,-55.04,-11.71,770,868,765,813,823,33.333333333333336,-0.384,-0.765,0.512
34890,1755586963409,22.62,-54.97,-11.74,773,871,774,812,839,34.48275862068966,-0.387,-0.765,0.512
34920,1755586963439,22.65,-55.01,-11.74,775,879,778,812,835,33.333333333333336,-0.391,-0.766,0.512
34949,1755586963468,22.68,-55.05,-11.7,768,872,775,819,838,34.48275862068966,-0.392,-0.764,0.515
34979,1755586963498,22.68,-55.01,-11.7,777,873,777,809,841,33.333333333333336,-0.393,-0.76,0.519
35008,1755586963527,22.68,-55.03,-11.72,773,871,776,822,833,34.48275862068966,-0.392,-0.756,0.518
35038,1755586963557,22.68,-55.07,-11.75,782,873,778,819,830,33.333333333333336,-0.391,-0.757,0.517
35067,1755586963587,22.62,-55.13,-11.78,780,879,769,821,832,34.48275862068966,-0.388,-0.759,0.514
35097,1755586963616,22.6,-55.19,-11.81,776,868,774,812,839,33.333333333333336,-0.387,-0.761,0.515
35127,1755586963646,22.51,-55.3,-11.85,784,868,771,821,846,33.333333333333336,-0.385,-0.762,0.514
35156,1755586963675,22.45,-55.38,-11.88,775,880,774,812,834,34.48275862068966,-0.384,-0.765,0.516
35185,1755586963704,22.41,-55.42,-11.91,778,876,770,811,839,34.48275862068966,-0.382,-0.765,0.516
35215,1755586963734,22.35,-55.4,-11.94,776,877,775,820,834,33.333333333333336,-0.382,-0.765,0.518
35245,1755586963764,22.38,-55.27,-11.9,779,871,774,800,840,33.333333333333336,-0.385,-0.767,0.521
35274,1755586963793,22.44,-55.2,-11.82,783,867,779,815,841,34.48275862068966,-0.386,-0.766,0.52
35304,1755586963823,22.54,-55.18,-11.76,781,854,774,817,843,33.333333333333336,-0.384,-0.766,0.522
35334,1755586963853,22.62,-55.03,-11.67,775,870,777,815,819,33.333333333333336,-0.378,-0.762,0.521
35363,1755586963882,22.7,-54.99,-11.64,778,873,775,811,832,34.48275862068966,-0.378,-0.758,0.519
35393,1755586963912,22.74,-55.0,-11.63,778,863,762,811,841,33.333333333333336,-0.38,-0.759,0.519
35422,1755586963941,22.76,-54.98,-11.59,780,860,772,837,830,34.48275862068966,-0.385,-0.761,0.521
35451,1755586963971,22.82,-54.96,-11.59,783,869,768,817,836,34.48275862068966,-0.388,-0.762,0.518
35481,1755586964000,22.79,-54.94,-11.57,778,878,766,815,833,33.333333333333336,-0.388,-0.762,0.514
35511,1755586964030,22.77,-54.97,-11.56,776,880,775,811,831,33.333333333333336,-0.39,-0.761,0.514
35540,1755586964059,22.77,-54.94,-11.52,783,880,783,813,833,34.48275862068966,-0.389,-0.76,0.516
35570,1755586964089,22.75,-54.94,-11.53,776,868,783,817,839,33.333333333333336,-0.386,-0.759,0.517
35599,1755586964119,22.77,-54.95,-11.54,778,876,779,817,843,34.48275862068966,-0.387,-0.759,0.519
35629,1755586964148,22.75,-55.0,-11.57,784,865,766,808,824,33.333333333333336,-0.387,-0.757,0.517
35659,1755586964179,22.7,-55.17,-11.65,774,872,776,812,838,33.333333333333336,-0.387,-0.759,0.518
35679,1755586964198,22.72,-55.23,-11.69,782,863,785,820,829,50.0,-0.391,-0.761,0.521
35709,1755586964228,22.74,-55.14,-11.66,776,874,770,816,830,33.333333333333336,-0.392,-0.762,0.522
35738,1755586964257,22.8,-55.06,-11.61,767,873,779,818,832,34.48275862068966,-0.39,-0.762,0.52
35768,1755586964287,22.77,-55.09,-11.62,778,870,769,811,850,33.333333333333336,-0.391,-0.761,0.518
35797,1755586964317,22.78,-55.1,-11.61,778,871,767,816,834,34.48275862068966,-0.39,-0.758,0.516
35827,1755586964346,22.7,-55.12,-11.64,775,876,776,806,841,33.333333333333336,-0.39,-0.758,0.513
35857,1755586964376,22.55,-55.12,-11.7,779,873,770,814,851,33.333333333333336,-0.388,-0.756,0.512
35886,1755586964406,22.46,-55.12,-11.74,779,861,780,820,840,34.48275862068966,-0.39,-0.761,0.518
35916,1755586964435,22.48,-55.1,-11.7,769,866,771,806,836,33.333333333333336,-0.392,-0.765,0.522
35946,1755586964465,22.49,-55.1,-11.61,783,885,783,814,836,33.333333333333336,-0.39,-0.766,0.525
35975,1755586964495,22.55,-55.04,-11.54,779,865,774,811,837,34.48275862068966,-0.386,-0.763,0.525
36005,1755586964524,22.55,-54.97,-11.54,776,876,773,814,841,33.333333333333336,-0.385,-0.758,0.52
36035,1755586964554,22.57,-54.94,-11.55,779,868,783,811,846,33.333333333333336,-0.387,-0.757,0.518
36065,1755586964584,22.57,-54.94,-11.53,778,866,774,815,832,33.333333333333336,-0.389,-0.76,0.521
36094,1755586964614,22.52,-54.98,-11.5,774,874,773,816,832,34.48275862068966,-0.389,-0.762,0.523
36115,1755586964634,22.52,-54.97,-11.49,778,865,773,823,836,47.61904761904762,-0.389,-0.761,0.526
36144,1755586964663,22.57,-54.95,-11.46,771,868,764,806,836,34.48275862068966,-0.388,-0.758,0.523
36173,1755586964692,22.6,-54.92,-11.46,776,865,773,815,835,34.48275862068966,-0.39,-0.755,0.52
36203,1755586964722,22.61,-54.95,-11.45,781,867,774,811,856,33.333333333333336,-0.39,-0.756,0.519
36232,1755586964751,22.65,-54.96,-11.42,777,872,772,814,836,34.48275862068966,-0.391,-0.76,0.522
36262,1755586964781,22.65,-54.9,-11.4,776,872,766,810,836,33.333333333333336,-0.388,-0.759,0.522
36291,1755586964810,22.71,-54.87,-11.38,782,870,781,817,835,34.48275862068966,-0.388,-0.759,0.523
36321,1755586964840,22.73,-54.84,-11.36,774,874,778,813,840,33.333333333333336,-0.388,-0.757,0.521
36350,1755586964870,22.75,-54.83,-11.34,774,868,776,817,835,34.48275862068966,-0.389,-0.755,0.519
36380,1755586964899,22.76,-54.86,-11.31,775,864,774,817,833,33.333333333333336,-0.389,-0.756,0.519
