timestamp_ms,recv_timestamp_ms,pitch,roll,yaw,flex1,flex2,flex3,flex4,flex5,sampling_hz,accel_x,accel_y,accel_z
18588,1755585625272,21.99,-54.14,-45.85,777,785,778,816,838,34.48275862068966,-0.366,-0.796,0.481
18618,1755585625301,22.06,-54.41,-45.86,774,772,774,824,833,33.333333333333336,-0.37,-0.795,0.481
18648,1755585625331,22.06,-54.53,-45.89,769,783,769,819,831,33.333333333333336,-0.369,-0.797,0.482
18677,1755585625360,21.92,-54.56,-45.98,774,782,773,815,833,34.48275862068966,-0.37,-0.796,0.476
18707,1755585625390,21.8,-54.7,-46.08,773,780,777,822,827,33.333333333333336,-0.367,-0.798,0.469
18736,1755585625419,21.73,-54.85,-46.16,773,778,775,819,833,34.48275862068966,-0.365,-0.797,0.47
18766,1755585625449,21.69,-55.11,-46.24,775,773,770,820,821,33.333333333333336,-0.364,-0.799,0.481
18795,1755585625479,21.67,-54.99,-46.25,781,776,773,816,823,34.48275862068966,-0.365,-0.806,0.485
18825,1755585625508,21.51,-54.97,-46.27,777,780,766,816,823,33.333333333333336,-0.364,-0.801,0.475
18854,1755585625538,21.63,-55.16,-46.21,781,783,771,819,827,34.48275862068966,-0.361,-0.799,0.472
18884,1755585625567,21.47,-55.29,-46.32,780,779,771,816,822,33.333333333333336,-0.36,-0.797,0.472
18913,1755585625597,21.24,-55.41,-46.47,780,775,768,815,822,34.48275862068966,-0.359,-0.797,0.467
18943,1755585625626,21.2,-55.78,-46.52,774,781,782,817,828,33.333333333333336,-0.356,-0.798,0.464
18972,1755585625656,21.25,-56.13,-46.56,774,776,771,819,820,34.48275862068966,-0.357,-0.804,0.473
19002,1755585625685,21.28,-56.02,-46.53,774,780,779,810,831,33.333333333333336,-0.36,-0.809,0.48
19031,1755585625715,21.22,-56.05,-46.53,773,771,768,809,858,34.48275862068966,-0.357,-0.806,0.476
19061,1755585625745,21.38,-56.18,-46.49,778,778,777,818,832,33.333333333333336,-0.355,-0.806,0.472
19081,1755585625764,21.39,-56.26,-46.53,771,776,778,822,826,50.0,-0.355,-0.807,0.47
19110,1755585625794,21.23,-56.27,-46.64,775,781,770,817,829,34.48275862068966,-0.351,-0.807,0.465
19140,1755585625824,21.28,-56.45,-46.71,781,781,776,813,831,33.333333333333336,-0.352,-0.806,0.471
19170,1755585625853,21.35,-56.49,-46.7,776,765,771,815,830,33.333333333333336,-0.353,-0.811,0.474
19199,1755585625883,21.26,-56.46,-46.78,777,771,774,810,838,34.48275862068966,-0.35,-0.806,0.473
19229,1755585625912,21.32,-56.53,-46.79,774,766,773,819,828,33.333333333333336,-0.351,-0.806,0.47
19259,1755585625942,21.35,-56.47,-46.75,775,775,766,831,827,33.333333333333336,-0.352,-0.807,0.468
19288,1755585625971,21.36,-56.65,-46.83,782,780,777,822,828,34.48275862068966,-0.35,-0.807,0.472
19318,1755585626001,21.39,-56.71,-46.88,779,779,772,820,823,33.333333333333336,-0.352,-0.81,0.477
19347,1755585626031,21.28,-56.61,-46.91,775,772,767,821,828,34.48275862068966,-0.349,-0.808,0.474
19377,1755585626060,21.29,-56.71,-46.94,776,775,774,822,825,33.333333333333336,-0.345,-0.804,0.467
19406,1755585626090,21.29,-56.77,-46.95,772,784,777,814,829,34.48275862068966,-0.35,-0.807,0.467
19436,1755585626119,21.27,-56.83,-46.94,775,778,769,820,842,33.333333333333336,-0.349,-0.805,0.467
19465,1755585626149,21.36,-56.95,-46.96,776,783,770,827,835,34.48275862068966,-0.349,-0.806,0.472
19495,1755585626179,21.28,-56.95,-46.96,773,779,778,817,820,33.333333333333336,-0.35,-0.81,0.471
19525,1755585626208,21.26,-57.04,-46.99,773,786,778,820,835,33.333333333333336,-0.347,-0.807,0.47
19554,1755585626238,21.37,-57.08,-46.98,771,773,773,811,829,34.48275862068966,-0.347,-0.807,0.474
19584,1755585626268,21.37,-57.08,-47.01,771,781,775,822,830,33.333333333333336,-0.349,-0.803,0.472
19614,1755585626297,21.34,-57.12,-47.06,772,774,771,815,825,33.333333333333336,-0.352,-0.804,0.468
19643,1755585626327,21.26,-57.23,-47.13,775,775,774,820,837,34.48275862068966,-0.356,-0.806,0.467
19673,1755585626356,21.19,-57.36,-47.14,774,780,768,815,816,33.333333333333336,-0.354,-0.805,0.466
19703,1755585626386,21.17,-57.47,-47.14,773,779,778,817,830,33.333333333333336,-0.353,-0.808,0.47
19732,1755585626416,21.06,-57.52,-47.19,774,768,768,816,828,34.48275862068966,-0.349,-0.811,0.474
19762,1755585626445,21.0,-57.53,-47.2,771,771,765,818,821,33.333333333333336,-0.346,-0.809,0.471
19791,1755585626475,21.09,-57.62,-47.19,768,773,772,834,820,34.48275862068966,-0.342,-0.812,0.475
19821,1755585626504,20.99,-57.52,-47.23,771,776,773,815,827,33.333333333333336,-0.344,-0.817,0.479
19850,1755585626534,20.9,-57.42,-47.28,769,780,780,814,824,34.48275862068966,-0.34,-0.808,0.472
19880,1755585626563,21.01,-57.55,-47.31,775,789,771,814,822,33.333333333333336,-0.342,-0.807,0.472
19909,1755585626593,20.88,-57.57,-47.37,767,771,772,811,821,34.48275862068966,-0.344,-0.809,0.471
19939,1755585626623,20.86,-57.71,-47.46,773,769,775,820,818,33.333333333333336,-0.342,-0.807,0.473
19969,1755585626652,20.88,-57.86,-47.51,765,769,787,825,824,33.333333333333336,-0.342,-0.805,0.474
19998,1755585626682,20.84,-57.84,-47.52,776,777,769,814,832,34.48275862068966,-0.336,-0.806,0.476
20028,1755585626711,20.88,-57.89,-47.53,766,782,775,814,827,33.333333333333336,-0.335,-0.81,0.478
20057,1755585626741,20.77,-57.9,-47.59,769,780,786,819,821,34.48275862068966,-0.34,-0.811,0.473
20087,1755585626770,20.81,-58.01,-47.55,768,782,774,817,819,33.333333333333336,-0.342,-0.811,0.468
20116,1755585626800,20.84,-58.06,-47.59,777,771,779,815,822,34.48275862068966,-0.34,-0.81,0.472
20146,1755585626830,20.69,-58.01,-47.65,779,780,770,814,839,33.333333333333336,-0.341,-0.812,0.472
20176,1755585626859,20.73,-58.1,-47.65,776,779,769,815,816,33.333333333333336,-0.338,-0.812,0.47
20205,1755585626889,20.75,-58.15,-47.65,766,778,771,821,824,34.48275862068966,-0.338,-0.814,0.475
20225,1755585626909,20.69,-58.15,-47.67,767,772,770,822,823,50.0,-0.337,-0.815,0.476
20255,1755585626938,20.69,-58.21,-47.65,781,782,768,813,826,33.333333333333336,-0.338,-0.811,0.472
20284,1755585626968,20.77,-58.26,-47.63,774,774,774,806,830,34.48275862068966,-0.337,-0.807,0.477
20314,1755585626997,20.68,-58.24,-47.73,774,778,771,807,836,33.333333333333336,-0.336,-0.808,0.48
20344,1755585627027,20.65,-58.19,-47.75,776,773,774,823,827,33.333333333333336,-0.336,-0.81,0.478
20373,1755585627057,20.68,-58.27,-47.72,775,770,768,821,831,34.48275862068966,-0.339,-0.813,0.472
20403,1755585627086,20.72,-58.29,-47.68,775,783,768,820,836,33.333333333333336,-0.338,-0.809,0.479
20432,1755585627116,20.7,-58.18,-47.75,763,779,766,811,819,34.48275862068966,-0.334,-0.805,0.483
20462,1755585627146,20.63,-58.05,-47.84,774,769,770,821,833,33.333333333333336,-0.337,-0.805,0.476
20492,1755585627175,20.67,-58.06,-47.86,771,780,776,815,825,33.333333333333336,-0.339,-0.809,0.474
20522,1755585627205,20.72,-58.13,-47.82,777,776,767,816,831,33.333333333333336,-0.34,-0.812,0.475
20551,1755585627235,20.77,-58.23,-47.82,775,782,766,813,825,34.48275862068966,-0.335,-0.806,0.479
20581,1755585627264,20.74,-58.25,-47.91,769,772,772,811,825,33.333333333333336,-0.337,-0.808,0.48
20611,1755585627294,20.49,-58.19,-47.98,773,777,771,821,835,33.333333333333336,-0.34,-0.813,0.47
20640,1755585627324,20.5,-58.42,-47.96,769,778,777,824,827,34.48275862068966,-0.341,-0.812,0.47
20670,1755585627353,20.53,-58.54,-47.96,776,785,772,810,824,33.333333333333336,-0.341,-0.814,0.481
20699,1755585627383,20.44,-58.37,-47.95,767,776,769,812,833,34.48275862068966,-0.336,-0.814,0.485
20729,1755585627413,20.52,-58.33,-47.9,772,772,771,810,832,33.333333333333336,-0.332,-0.812,0.482
20759,1755585627443,20.54,-58.37,-47.9,763,779,771,819,830,33.333333333333336,-0.331,-0.808,0.48
20788,1755585627472,20.51,-58.39,-47.95,768,782,769,816,827,34.48275862068966,-0.331,-0.805,0.481
20818,1755585627501,20.52,-58.4,-47.98,768,774,772,819,821,33.333333333333336,-0.338,-0.809,0.479
20847,1755585627531,20.58,-58.47,-47.94,774,786,769,812,827,34.48275862068966,-0.336,-0.811,0.481
20877,1755585627561,20.62,-58.53,-48.0,768,771,772,811,828,33.333333333333336,-0.333,-0.81,0.485
20907,1755585627590,20.7,-58.5,-48.03,772,782,777,818,835,33.333333333333336,-0.329,-0.81,0.488
20936,1755585627619,20.67,-58.43,-48.09,772,778,766,808,828,34.48275862068966,-0.328,-0.805,0.484
20966,1755585627649,20.64,-58.5,-48.2,776,778,780,814,828,33.333333333333336,-0.328,-0.8,0.479
20995,1755585627679,20.61,-58.54,-48.33,772,777,772,815,834,34.48275862068966,-0.332,-0.807,0.48
21025,1755585627708,20.56,-58.54,-48.39,766,775,771,818,826,33.333333333333336,-0.336,-0.811,0.484
21054,1755585627738,20.6,-58.57,-48.37,773,772,768,822,819,34.48275862068966,-0.338,-0.813,0.481
21084,1755585627768,20.6,-58.69,-48.38,764,787,765,814,825,33.333333333333336,-0.336,-0.81,0.478
21114,1755585627797,20.56,-58.65,-48.4,772,777,770,817,826,33.333333333333336,-0.333,-0.809,0.476
21143,1755585627827,20.51,-58.72,-48.41,764,775,771,815,828,34.48275862068966,-0.33,-0.807,0.474
21173,1755585627856,20.53,-58.77,-48.42,775,779,768,813,826,33.333333333333336,-0.332,-0.81,0.48
21202,1755585627886,20.47,-58.8,-48.45,764,778,777,821,834,34.48275862068966,-0.332,-0.807,0.481
21232,1755585627915,20.5,-58.83,-48.48,766,787,771,814,824,33.333333333333336,-0.332,-0.807,0.478
21262,1755585627945,20.5,-58.93,-48.5,771,774,767,803,827,33.333333333333336,-0.334,-0.809,0.477
21291,1755585627975,20.49,-58.98,-48.51,773,781,759,808,840,34.48275862068966,-0.336,-0.811,0.477
21321,1755585628004,20.48,-59.05,-48.48,782,782,770,819,822,33.333333333333336,-0.337,-0.812,0.476
21350,1755585628034,20.51,-59.17,-48.47,774,782,774,813,825,34.48275862068966,-0.333,-0.812,0.476
21380,1755585628064,20.44,-59.14,-48.52,772,774,770,822,827,33.333333333333336,-0.334,-0.813,0.478
21410,1755585628093,20.37,-59.17,-48.53,773,778,783,816,832,33.333333333333336,-0.331,-0.811,0.477
21439,1755585628123,20.42,-59.23,-48.51,769,780,778,813,833,34.48275862068966,-0.334,-0.814,0.477
21469,1755585628152,20.39,-59.19,-48.48,773,770,766,817,825,33.333333333333336,-0.335,-0.814,0.478
21498,1755585628181,20.43,-59.12,-48.47,768,771,770,811,826,34.48275862068966,-0.334,-0.813,0.475
21528,1755585628211,20.46,-59.17,-48.41,778,779,771,815,833,33.333333333333336,-0.331,-0.812,0.473
21557,1755585628241,20.47,-59.2,-48.4,768,778,773,813,831,34.48275862068966,-0.333,-0.814,0.478
21587,1755585628271,20.36,-59.2,-48.42,776,773,774,832,825,33.333333333333336,-0.331,-0.813,0.478
21617,1755585628300,20.43,-59.21,-48.4,771,775,758,812,829,33.333333333333336,-0.332,-0.812,0.481
21646,1755585628330,20.38,-59.11,-48.4,772,776,767,818,828,34.48275862068966,-0.333,-0.811,0.477
21676,1755585628359,20.38,-59.13,-48.44,772,774,773,807,832,33.333333333333336,-0.333,-0.811,0.477
21705,1755585628389,20.39,-59.14,-48.46,768,776,779,826,833,34.48275862068966,-0.333,-0.811,0.478
21735,1755585628419,20.39,-59.04,-48.43,771,765,762,814,833,33.333333333333336,-0.336,-0.811,0.477
21765,1755585628448,20.39,-59.03,-48.38,770,786,768,816,830,33.333333333333336,-0.336,-0.813,0.477
21794,1755585628478,20.45,-59.03,-48.33,768,768,774,811,835,34.48275862068966,-0.333,-0.813,0.48
21824,1755585628508,20.43,-59.06,-48.37,771,774,764,820,821,33.333333333333336,-0.332,-0.81,0.476
21853,1755585628537,20.38,-59.09,-48.41,772,778,769,819,831,34.48275862068966,-0.332,-0.806,0.472
21883,1755585628567,20.4,-59.2,-48.49,770,778,768,805,831,33.333333333333336,-0.335,-0.807,0.474
21913,1755585628596,20.37,-59.31,-48.55,771,773,767,817,831,33.333333333333336,-0.338,-0.811,0.477
21942,1755585628626,20.38,-59.33,-48.55,773,775,775,818,828,34.48275862068966,-0.337,-0.81,0.478
21972,1755585628655,20.4,-59.28,-48.53,779,780,771,808,823,33.333333333333336,-0.337,-0.811,0.479
22001,1755585628685,20.34,-59.27,-48.55,764,781,774,824,825,34.48275862068966,-0.337,-0.811,0.477
22031,1755585628714,20.35,-59.29,-48.55,770,776,767,816,824,33.333333333333336,-0.337,-0.809,0.479
22060,1755585628744,20.42,-59.27,-48.57,759,774,770,809,836,34.48275862068966,-0.335,-0.813,0.48
22090,1755585628774,20.31,-59.24,-48.56,775,774,772,816,832,33.333333333333336,-0.335,-0.809,0.473
22120,1755585628803,20.4,-59.28,-48.53,766,781,768,811,825,33.333333333333336,-0.332,-0.808,0.479
22149,1755585628833,20.28,-59.24,-48.57,770,775,769,820,826,34.48275862068966,-0.33,-0.811,0.48
22179,1755585628862,20.3,-59.34,-48.59,774,786,765,812,831,33.333333333333336,-0.33,-0.812,0.478
22208,1755585628892,20.33,-59.3,-48.6,770,780,774,817,825,34.48275862068966,-0.332,-0.811,0.48
22238,1755585628921,20.29,-59.3,-48.65,776,783,766,816,829,33.333333333333336,-0.331,-0.81,0.478
22267,1755585628951,20.28,-59.39,-48.75,767,776,777,816,841,34.48275862068966,-0.331,-0.806,0.478
22297,1755585628980,20.29,-59.4,-48.86,769,771,779,812,828,33.333333333333336,-0.336,-0.808,0.484
22326,1755585629010,20.17,-59.22,-48.97,768,793,770,819,826,34.48275862068966,-0.344,-0.811,0.48
22356,1755585629040,20.2,-59.18,-48.92,766,779,771,817,826,33.333333333333336,-0.343,-0.811,0.47
22385,1755585629069,20.3,-59.34,-48.87,769,775,773,815,849,34.48275862068966,-0.336,-0.811,0.473
22415,1755585629098,20.18,-59.32,-48.91,774,774,769,809,823,33.333333333333336,-0.331,-0.808,0.482
22444,1755585629128,20.18,-59.26,-48.95,771,783,771,816,829,34.48275862068966,-0.328,-0.81,0.482
22474,1755585629158,20.17,-59.26,-48.94,770,780,776,821,825,33.333333333333336,-0.335,-0.816,0.48
22504,1755585629187,20.16,-59.28,-48.89,770,779,769,813,824,33.333333333333336,-0.337,-0.816,0.475
22533,1755585629217,20.23,-59.24,-48.84,777,781,770,837,828,34.48275862068966,-0.333,-0.809,0.476
22563,1755585629246,20.24,-59.27,-48.84,768,774,772,824,821,33.333333333333336,-0.331,-0.807,0.479
22592,1755585629276,20.21,-59.33,-48.89,771,782,773,812,826,34.48275862068966,-0.33,-0.809,0.479
22622,1755585629306,20.2,-59.35,-48.91,772,774,769,814,833,33.333333333333336,-0.335,-0.812,0.479
22652,1755585629335,20.23,-59.35,-48.87,772,772,774,815,833,33.333333333333336,-0.338,-0.809,0.476
22681,1755585629365,20.27,-59.4,-48.85,770,771,779,810,829,34.48275862068966,-0.333,-0.806,0.477
22711,1755585629394,20.27,-59.45,-48.88,758,775,768,818,818,33.333333333333336,-0.331,-0.81,0.477
22740,1755585629424,20.22,-59.54,-48.94,771,775,773,803,834,34.48275862068966,-0.331,-0.81,0.477
22770,1755585629453,20.3,-59.49,-48.94,769,777,777,815,816,33.333333333333336,-0.334,-0.814,0.479
22799,1755585629483,20.24,-59.5,-48.94,771,769,771,812,826,34.48275862068966,-0.334,-0.813,0.476
22829,1755585629512,20.32,-59.56,-48.93,771,781,773,811,830,33.333333333333336,-0.329,-0.81,0.475
22858,1755585629542,20.3,-59.64,-48.99,774,768,772,812,834,34.48275862068966,-0.33,-0.811,0.474
22888,1755585629572,20.35,-59.56,-48.96,768,774,772,813,817,33.333333333333336,-0.333,-0.811,0.475
22918,1755585629601,20.38,-59.53,-48.94,770,773,777,814,819,33.333333333333336,-0.336,-0.812,0.475
22947,1755585629631,20.36,-59.56,-48.94,772,775,773,809,825,34.48275862068966,-0.335,-0.81,0.475
22977,1755585629661,20.34,-59.56,-48.94,768,781,775,815,831,33.333333333333336,-0.336,-0.811,0.475
23007,1755585629690,20.35,-59.59,-48.94,773,782,771,820,814,33.333333333333336,-0.334,-0.81,0.473
23036,1755585629720,20.35,-59.59,-48.95,769,778,774,815,823,34.48275862068966,-0.334,-0.809,0.476
23066,1755585629750,20.36,-59.57,-48.95,767,774,772,825,825,33.333333333333336,-0.335,-0.812,0.477
23096,1755585629779,20.39,-59.52,-48.93,765,773,773,816,824,33.333333333333336,-0.336,-0.812,0.476
23125,1755585629809,20.45,-59.56,-48.92,769,777,774,814,831,34.48275862068966,-0.335,-0.808,0.476
23155,1755585629838,20.49,-59.54,-48.92,763,779,776,812,820,33.333333333333336,-0.339,-0.81,0.475
23184,1755585629868,20.42,-59.52,-48.94,767,773,774,820,827,34.48275862068966,-0.338,-0.809,0.47
23214,1755585629897,20.49,-59.61,-48.92,772,779,770,819,830,33.333333333333336,-0.337,-0.808,0.471
23243,1755585629927,20.41,-59.61,-48.96,765,775,766,815,822,34.48275862068966,-0.338,-0.809,0.473
23273,1755585629956,20.26,-59.73,-49.12,766,781,770,810,830,33.333333333333336,-0.335,-0.804,0.472
23302,1755585629986,20.23,-59.92,-49.3,760,779,774,818,825,34.48275862068966,-0.338,-0.806,0.47
23332,1755585630015,20.13,-60.0,-49.34,770,783,769,817,834,33.333333333333336,-0.342,-0.812,0.468
23361,1755585630045,20.04,-60.01,-49.38,768,773,779,809,833,34.48275862068966,-0.339,-0.814,0.472
23391,1755585630074,19.92,-60.1,-49.44,764,780,776,815,836,33.333333333333336,-0.331,-0.815,0.477
23420,1755585630104,19.98,-60.06,-49.48,769,785,767,811,851,34.48275862068966,-0.329,-0.819,0.484
23450,1755585630134,19.94,-59.85,-49.5,759,771,771,815,828,33.333333333333336,-0.331,-0.82,0.478
23480,1755585630163,20.01,-59.89,-49.49,761,778,767,813,829,33.333333333333336,-0.335,-0.815,0.469
23509,1755585630193,20.04,-59.95,-49.48,769,781,773,811,836,34.48275862068966,-0.342,-0.814,0.467
23539,1755585630223,19.99,-59.89,-49.41,773,773,772,814,824,33.333333333333336,-0.338,-0.811,0.467
23569,1755585630253,20.09,-59.94,-49.36,758,784,782,806,838,33.333333333333336,-0.33,-0.811,0.473
23599,1755585630282,20.13,-60.04,-49.36,768,778,773,813,829,33.333333333333336,-0.326,-0.812,0.478
23628,1755585630311,20.18,-59.97,-49.35,766,777,776,820,836,34.48275862068966,-0.328,-0.817,0.476
23657,1755585630341,20.18,-59.97,-49.32,769,776,771,812,826,34.48275862068966,-0.33,-0.812,0.473
23687,1755585630371,20.2,-59.94,-49.33,765,777,771,809,824,33.333333333333336,-0.331,-0.81,0.472
23717,1755585630400,20.1,-60.0,-49.34,766,789,769,817,834,33.333333333333336,-0.337,-0.811,0.467
23746,1755585630430,20.22,-60.13,-49.25,768,776,774,820,823,34.48275862068966,-0.336,-0.812,0.468
23776,1755585630459,20.27,-60.06,-49.19,763,782,767,817,832,33.333333333333336,-0.335,-0.816,0.474
23805,1755585630489,20.2,-59.99,-49.19,771,775,767,812,820,34.48275862068966,-0.335,-0.814,0.468
23835,1755585630519,20.27,-60.06,-49.15,768,782,761,816,835,33.333333333333336,-0.335,-0.813,0.467
23865,1755585630548,20.2,-60.03,-49.15,767,778,775,823,819,33.333333333333336,-0.334,-0.81,0.469
23894,1755585630578,20.22,-60.11,-49.18,765,767,767,816,831,34.48275862068966,-0.335,-0.811,0.467
23924,1755585630608,20.24,-60.11,-49.15,763,777,776,819,814,33.333333333333336,-0.342,-0.817,0.469
23953,1755585630637,20.28,-60.15,-49.08,768,775,780,811,831,34.48275862068966,-0.34,-0.812,0.467
23983,1755585630667,20.41,-60.2,-49.04,770,777,768,808,822,33.333333333333336,-0.339,-0.81,0.472
24012,1755585630696,20.36,-60.09,-49.03,765,770,773,818,826,34.48275862068966,-0.339,-0.813,0.473
24042,1755585630725,20.42,-60.06,-49.02,764,779,779,811,825,33.333333333333336,-0.34,-0.811,0.471
24071,1755585630755,20.51,-60.09,-49.01,771,780,770,817,828,34.48275862068966,-0.343,-0.809,0.47
24101,1755585630785,20.51,-60.16,-49.05,766,775,766,811,841,33.333333333333336,-0.342,-0.81,0.47
24131,1755585630814,20.56,-60.16,-49.04,766,779,777,811,830,33.333333333333336,-0.342,-0.811,0.469
24160,1755585630844,20.58,-60.14,-49.02,769,774,774,806,822,34.48275862068966,-0.345,-0.814,0.47
24190,1755585630873,20.59,-60.16,-49.0,767,778,772,832,836,33.333333333333336,-0.345,-0.814,0.47
24219,1755585630903,20.64,-60.15,-48.98,772,785,771,807,829,34.48275862068966,-0.342,-0.809,0.468
24249,1755585630933,20.64,-60.17,-49.01,766,782,770,816,836,33.333333333333336,-0.344,-0.81,0.467
24278,1755585630962,20.66,-60.21,-49.01,763,763,771,821,836,34.48275862068966,-0.348,-0.811,0.468
24308,1755585630992,20.65,-60.21,-49.0,768,776,774,815,831,33.333333333333336,-0.349,-0.812,0.468
24338,1755585631021,20.67,-60.21,-48.99,774,781,768,812,823,33.333333333333336,-0.347,-0.811,0.468
24367,1755585631051,20.66,-60.29,-49.05,769,785,776,811,834,34.48275862068966,-0.344,-0.808,0.466
24397,1755585631081,20.58,-60.33,-49.09,771,776,775,812,820,33.333333333333336,-0.347,-0.81,0.464
24426,1755585631110,20.62,-60.34,-49.04,767,773,769,819,829,34.48275862068966,-0.351,-0.814,0.463
24456,1755585631140,20.63,-60.38,-49.03,775,780,768,814,832,33.333333333333336,-0.348,-0.812,0.468
24486,1755585631169,20.65,-60.3,-49.03,763,782,775,816,833,33.333333333333336,-0.346,-0.811,0.469
24515,1755585631199,20.62,-60.26,-49.05,766,773,773,814,827,34.48275862068966,-0.346,-0.81,0.46
24545,1755585631228,20.66,-60.35,-49.03,767,770,779,824,831,33.333333333333336,-0.346,-0.809,0.459
24574,1755585631258,20.68,-60.45,-49.04,765,772,768,816,828,34.48275862068966,-0.348,-0.811,0.464
24604,1755585631288,20.63,-60.39,-49.04,767,784,778,811,829,33.333333333333336,-0.35,-0.812,0.466
24633,1755585631317,20.67,-60.39,-48.99,770,768,768,819,817,34.48275862068966,-0.35,-0.813,0.464
24663,1755585631347,20.7,-60.36,-48.94,766,779,769,817,832,33.333333333333336,-0.35,-0.81,0.462
24693,1755585631376,20.66,-60.41,-48.94,770,779,775,810,827,33.333333333333336,-0.347,-0.806,0.461
24722,1755585631406,20.68,-60.47,-48.95,775,776,769,819,824,34.48275862068966,-0.345,-0.807,0.466
24752,1755585631435,20.6,-60.43,-49.04,769,773,775,808,826,33.333333333333336,-0.343,-0.811,0.466
24781,1755585631465,20.6,-60.47,-49.09,768,769,774,809,823,34.48275862068966,-0.343,-0.808,0.466
24811,1755585631494,20.7,-60.44,-49.07,763,776,768,818,830,33.333333333333336,-0.349,-0.81,0.467
24840,1755585631524,20.74,-60.33,-49.05,768,777,767,813,819,34.48275862068966,-0.35,-0.813,0.465
24870,1755585631554,20.73,-60.37,-49.05,777,775,771,817,831,33.333333333333336,-0.349,-0.812,0.46
24900,1755585631583,20.78,-60.42,-49.0,759,777,774,822,825,33.333333333333336,-0.35,-0.812,0.458
24929,1755585631613,20.79,-60.41,-48.99,769,778,774,817,833,34.48275862068966,-0.346,-0.809,0.463
24959,1755585631642,20.8,-60.3,-49.02,770,778,773,806,831,33.333333333333336,-0.347,-0.81,0.47
24988,1755585631672,20.8,-60.27,-49.05,771,781,771,817,826,34.48275862068966,-0.349,-0.813,0.466
25018,1755585631701,20.89,-60.33,-48.99,772,774,775,809,818,33.333333333333336,-0.35,-0.81,0.463
25047,1755585631731,21.0,-60.31,-48.96,768,771,769,814,825,34.48275862068966,-0.353,-0.81,0.466
25077,1755585631760,21.03,-60.17,-48.95,774,775,777,801,820,33.333333333333336,-0.354,-0.808,0.463
25106,1755585631790,21.09,-60.27,-48.95,772,780,771,815,834,34.48275862068966,-0.355,-0.807,0.46
25136,1755585631820,21.17,-60.43,-48.93,766,777,773,804,840,33.333333333333336,-0.359,-0.81,0.462
25166,1755585631849,21.13,-60.35,-48.93,765,783,766,810,834,33.333333333333336,-0.357,-0.808,0.46
25195,1755585631879,21.12,-60.36,-48.97,765,777,756,815,829,34.48275862068966,-0.355,-0.806,0.461
25225,1755585631909,21.15,-60.37,-49.0,768,778,776,818,815,33.333333333333336,-0.358,-0.811,0.462
25255,1755585631938,21.11,-60.39,-49.0,764,774,769,816,841,33.333333333333336,-0.356,-0.811,0.461
25284,1755585631968,21.22,-60.41,-48.98,764,781,766,808,828,34.48275862068966,-0.352,-0.808,0.465
25314,1755585631997,21.23,-60.35,-49.0,767,770,767,816,827,33.333333333333336,-0.356,-0.809,0.465
25343,1755585632027,21.16,-60.32,-49.03,769,777,783,820,829,34.48275862068966,-0.36,-0.808,0.456
25373,1755585632057,21.24,-60.43,-49.02,772,776,772,807,828,33.333333333333336,-0.364,-0.808,0.453
25403,1755585632086,21.23,-60.48,-49.0,771,783,772,812,822,33.333333333333336,-0.365,-0.812,0.456
25432,1755585632116,21.21,-60.49,-48.97,775,769,775,816,834,34.48275862068966,-0.361,-0.81,0.458
25462,1755585632145,21.23,-60.51,-48.94,764,789,775,806,833,33.333333333333336,-0.359,-0.812,0.461
25491,1755585632175,21.21,-60.45,-48.9,767,778,766,806,816,34.48275862068966,-0.356,-0.815,0.464
25521,1755585632204,21.21,-60.37,-48.89,763,783,776,818,825,33.333333333333336,-0.356,-0.81,0.462
25550,1755585632234,21.24,-60.4,-48.89,771,775,775,822,831,34.48275862068966,-0.358,-0.807,0.462
25580,1755585632263,21.22,-60.39,-48.9,772,775,768,820,831,33.333333333333336,-0.36,-0.806,0.462
25609,1755585632293,21.26,-60.38,-48.92,763,776,766,815,840,34.48275862068966,-0.363,-0.807,0.463
25639,1755585632323,21.24,-60.43,-48.95,766,775,768,806,819,33.333333333333336,-0.363,-0.808,0.463
25669,1755585632352,21.24,-60.48,-48.94,767,770,776,811,834,33.333333333333336,-0.36,-0.809,0.461
25698,1755585632382,21.31,-60.51,-48.9,768,771,775,810,831,34.48275862068966,-0.357,-0.808,0.462
25728,1755585632411,21.39,-60.54,-48.89,769,776,766,814,825,33.333333333333336,-0.357,-0.807,0.464
25757,1755585632441,21.4,-60.54,-48.94,769,767,771,802,839,34.48275862068966,-0.361,-0.809,0.463
25787,1755585632470,21.36,-60.54,-48.96,767,781,769,809,822,33.333333333333336,-0.364,-0.808,0.459
25816,1755585632500,21.43,-60.53,-48.91,767,775,770,823,832,34.48275862068966,-0.363,-0.808,0.459
25846,1755585632529,21.48,-60.52,-48.88,756,776,774,809,826,33.333333333333336,-0.36,-0.805,0.462
25875,1755585632559,21.46,-60.56,-48.92,763,777,766,825,826,34.48275862068966,-0.36,-0.806,0.461
25905,1755585632589,21.45,-60.53,-48.96,763,775,769,810,825,33.333333333333336,-0.364,-0.81,0.46
25935,1755585632618,21.52,-60.51,-48.93,761,771,772,807,826,33.333333333333336,-0.365,-0.81,0.459
25964,1755585632648,21.59,-60.52,-48.91,766,775,769,812,830,34.48275862068966,-0.362,-0.808,0.462
25994,1755585632678,21.56,-60.43,-48.96,764,774,767,811,828,33.333333333333336,-0.358,-0.805,0.463
26014,1755585632698,21.54,-60.39,-49.0,764,784,770,812,830,50.0,-0.357,-0.805,0.462
26044,1755585632728,21.51,-60.35,-49.06,769,780,781,817,825,33.333333333333336,-0.364,-0.809,0.459
26073,1755585632757,21.34,-60.37,-49.1,770,775,781,816,826,34.48275862068966,-0.366,-0.806,0.452
26103,1755585632787,21.32,-60.49,-49.16,776,766,775,811,850,33.333333333333336,-0.365,-0.804,0.455
26133,1755585632817,21.3,-60.42,-49.18,766,780,764,811,824,33.333333333333336,-0.365,-0.807,0.46
26163,1755585632846,21.4,-60.41,-49.14,767,775,772,814,833,33.333333333333336,-0.361,-0.81,0.461
26192,1755585632876,21.55,-60.42,-49.1,770,775,770,804,823,34.48275862068966,-0.361,-0.812,0.467
26222,1755585632906,21.52,-60.29,-49.11,766,770,774,810,831,33.333333333333336,-0.36,-0.808,0.468
26252,1755585632935,21.62,-60.15,-49.09,764,771,768,818,824,33.333333333333336,-0.359,-0.807,0.463
26281,1755585632965,21.68,-60.02,-49.07,764,776,772,806,819,34.48275862068966,-0.361,-0.804,0.46
26311,1755585632994,21.65,-60.05,-49.14,764,779,778,806,829,33.333333333333336,-0.362,-0.803,0.462
26340,1755585633024,21.59,-60.09,-49.22,767,780,776,815,824,34.48275862068966,-0.362,-0.805,0.463
26370,1755585633054,21.65,-60.1,-49.26,756,784,766,807,829,33.333333333333336,-0.363,-0.805,0.465
26400,1755585633083,21.57,-60.16,-49.32,770,781,764,815,830,33.333333333333336,-0.361,-0.803,0.459
26429,1755585633113,21.63,-60.34,-49.42,762,781,771,806,831,34.48275862068966,-0.358,-0.803,0.463
26459,1755585633142,21.54,-60.32,-49.56,762,777,770,809,834,33.333333333333336,-0.361,-0.802,0.466
26488,1755585633172,21.47,-60.34,-49.63,771,770,774,805,819,34.48275862068966,-0.362,-0.803,0.462
26518,1755585633201,21.54,-60.46,-49.65,768,784,776,810,828,33.333333333333336,-0.36,-0.806,0.466
26547,1755585633231,21.53,-60.46,-49.69,769,778,766,812,831,34.48275862068966,-0.362,-0.81,0.472
26577,1755585633260,21.41,-60.31,-49.76,774,781,772,811,820,33.333333333333336,-0.361,-0.813,0.472
26606,1755585633290,21.37,-60.29,-49.79,768,771,766,812,822,34.48275862068966,-0.357,-0.811,0.462
26636,1755585633320,21.39,-60.34,-49.8,765,781,779,808,826,33.333333333333336,-0.358,-0.811,0.459
26666,1755585633350,21.28,-60.31,-49.83,768,771,776,820,830,33.333333333333336,-0.355,-0.809,0.462
26696,1755585633379,21.3,-60.32,-49.85,770,774,775,809,822,33.333333333333336,-0.352,-0.808,0.464
26725,1755585633409,21.42,-60.37,-49.82,765,774,773,823,821,34.48275862068966,-0.355,-0.811,0.466
26755,1755585633438,21.38,-60.37,-49.82,766,776,772,812,830,33.333333333333336,-0.357,-0.811,0.459
26784,1755585633468,21.4,-60.43,-49.79,770,774,773,809,821,34.48275862068966,-0.354,-0.805,0.457
26814,1755585633498,21.42,-60.45,-49.81,767,773,767,815,824,33.333333333333336,-0.356,-0.808,0.466
26843,1755585633527,21.3,-60.38,-49.87,768,773,772,819,819,34.48275862068966,-0.356,-0.812,0.467
26873,1755585633556,21.41,-60.44,-49.82,764,777,777,815,827,33.333333333333336,-0.353,-0.812,0.466
26902,1755585633586,21.5,-60.44,-49.8,770,782,775,812,820,34.48275862068966,-0.35,-0.808,0.471
26932,1755585633616,21.5,-60.3,-49.87,765,776,776,809,820,33.333333333333336,-0.347,-0.806,0.471
26962,1755585633645,21.53,-60.27,-49.95,771,773,789,811,824,33.333333333333336,-0.351,-0.806,0.465
26991,1755585633675,21.57,-60.25,-49.95,768,773,774,807,836,34.48275862068966,-0.362,-0.812,0.46
27021,1755585633704,21.54,-60.29,-49.9,766,783,775,809,821,33.333333333333336,-0.363,-0.815,0.456
27050,1755585633734,21.59,-60.35,-49.85,773,777,771,804,822,34.48275862068966,-0.357,-0.813,0.461
27080,1755585633763,21.64,-60.23,-49.79,768,779,769,811,829,33.333333333333336,-0.353,-0.813,0.467
27109,1755585633793,21.62,-60.19,-49.77,767,773,772,809,824,34.48275862068966,-0.351,-0.811,0.465
27139,1755585633822,21.59,-60.2,-49.79,759,781,772,807,824,33.333333333333336,-0.355,-0.809,0.462
27168,1755585633852,21.6,-60.21,-49.76,770,780,775,816,827,34.48275862068966,-0.355,-0.805,0.465
27198,1755585633882,21.64,-60.15,-49.75,762,777,774,813,824,33.333333333333336,-0.355,-0.805,0.466
27228,1755585633911,21.56,-60.17,-49.77,772,782,770,816,833,33.333333333333336,-0.358,-0.805,0.464
27257,1755585633941,21.57,-60.16,-49.75,768,782,771,811,830,34.48275862068966,-0.355,-0.804,0.465
27287,1755585633971,21.56,-60.22,-49.78,767,771,773,816,822,33.333333333333336,-0.35,-0.802,0.468
27317,1755585634001,21.48,-60.22,-49.85,768,776,766,827,829,33.333333333333336,-0.355,-0.804,0.468
27346,1755585634030,21.52,-60.19,-49.82,759,770,777,811,826,34.48275862068966,-0.359,-0.807,0.466
27376,1755585634060,21.6,-60.22,-49.79,767,777,769,808,823,33.333333333333336,-0.36,-0.808,0.465
27406,1755585634090,21.58,-60.23,-49.8,765,780,768,807,820,33.333333333333336,-0.359,-0.805,0.465
