timestamp_ms,recv_timestamp_ms,pitch,roll,yaw,flex1,flex2,flex3,flex4,flex5,sampling_hz,accel_x,accel_y,accel_z
158541,1755601157306,57.49,-68.74,-58.48,784,769,781,375,873,33.333333333333336,-0.839,-0.507,0.198
158570,1755601157308,57.49,-68.73,-58.48,785,776,777,360,871,34.48275862068966,-0.84,-0.508,0.198
158600,1755601157310,57.49,-68.71,-58.48,789,766,775,359,881,33.333333333333336,-0.84,-0.508,0.198
158630,1755601157312,57.51,-68.72,-58.48,788,794,781,404,874,33.333333333333336,-0.839,-0.508,0.198
158660,1755601157314,57.52,-68.72,-58.48,786,772,777,397,878,33.333333333333336,-0.84,-0.507,0.199
158690,1755601157316,57.5,-68.7,-58.48,775,769,779,385,871,33.333333333333336,-0.84,-0.506,0.199
158720,1755601157318,57.5,-68.7,-58.49,782,769,782,358,875,33.333333333333336,-0.839,-0.507,0.199
158750,1755601157320,57.48,-68.69,-58.49,786,775,778,382,873,33.333333333333336,-0.84,-0.507,0.199
158770,1755601157322,57.47,-68.68,-58.5,783,771,785,393,872,50.0,-0.839,-0.507,0.199
158800,1755601157324,57.48,-68.67,-58.5,783,777,777,358,886,33.333333333333336,-0.839,-0.507,0.2
158830,1755601157326,57.51,-68.68,-58.51,785,773,777,401,881,33.333333333333336,-0.839,-0.507,0.2
158860,1755601157329,57.52,-68.69,-58.52,784,764,782,402,873,33.333333333333336,-0.839,-0.506,0.199
158889,1755601157332,57.51,-68.69,-58.53,788,771,774,381,878,34.48275862068966,-0.839,-0.507,0.199
158919,1755601157334,57.51,-68.69,-58.54,785,773,784,348,877,33.333333333333336,-0.838,-0.507,0.2
158939,1755601157337,57.53,-68.7,-58.55,786,771,776,394,878,50.0,-0.838,-0.507,0.2
158959,1755601157340,57.53,-68.7,-58.55,790,773,778,399,883,50.0,-0.839,-0.507,0.198
158979,1755601157342,57.52,-68.69,-58.55,782,776,775,389,895,50.0,-0.839,-0.507,0.197
159000,1755601157344,57.52,-68.7,-58.55,787,772,779,342,876,47.61904761904762,-0.84,-0.508,0.197
159020,1755601157347,57.52,-68.71,-58.56,782,772,777,338,875,50.0,-0.839,-0.508,0.197
159049,1755601157349,57.53,-68.72,-58.57,777,775,774,365,864,34.48275862068966,-0.839,-0.508,0.198
159079,1755601157351,57.51,-68.7,-58.57,782,776,779,402,865,33.333333333333336,-0.839,-0.507,0.199
159109,1755601157353,57.53,-68.71,-58.59,780,775,781,384,881,33.333333333333336,-0.839,-0.507,0.198
159139,1755601157356,57.53,-68.73,-58.59,782,772,782,360,879,33.333333333333336,-0.839,-0.508,0.197
159159,1755601157359,57.52,-68.73,-58.59,782,775,777,395,883,50.0,-0.839,-0.508,0.198
159189,1755601157361,57.52,-68.71,-58.6,789,767,768,358,873,33.333333333333336,-0.839,-0.507,0.199
159219,1755601157362,57.5,-68.71,-58.6,785,767,781,342,877,33.333333333333336,-0.839,-0.508,0.198
159239,1755601157364,57.49,-68.7,-58.6,786,771,778,381,875,50.0,-0.839,-0.506,0.199
159259,1755601157367,57.49,-68.7,-58.6,786,768,776,399,874,50.0,-0.839,-0.506,0.199
159289,1755601157369,57.48,-68.7,-58.61,787,775,778,359,903,33.333333333333336,-0.839,-0.507,0.199
159310,1755601157372,57.49,-68.7,-58.61,789,770,780,389,872,47.61904761904762,-0.84,-0.508,0.199
159339,1755601157373,57.5,-68.71,-58.62,787,783,779,373,873,34.48275862068966,-0.839,-0.507,0.198
159360,1755601157376,57.49,-68.72,-58.62,786,773,774,407,875,47.61904761904762,-0.838,-0.507,0.199
159390,1755601157378,57.48,-68.72,-58.63,785,777,778,370,876,33.333333333333336,-0.838,-0.508,0.199
159420,1755601157380,57.49,-68.7,-58.63,787,774,778,347,882,33.333333333333336,-0.839,-0.509,0.2
159449,1755601157382,57.52,-68.72,-58.63,781,773,789,363,876,34.48275862068966,-0.838,-0.508,0.198
159469,1755601157384,57.49,-68.72,-58.63,787,769,778,361,872,50.0,-0.839,-0.507,0.197
159499,1755601157385,57.46,-68.71,-58.63,787,776,780,393,874,33.333333333333336,-0.839,-0.505,0.196
159529,1755601157387,57.46,-68.71,-58.65,789,768,779,403,875,33.333333333333336,-0.838,-0.505,0.198
159559,1755601157390,57.49,-68.71,-58.66,785,772,774,386,872,33.333333333333336,-0.839,-0.507,0.197
159589,1755601157392,57.47,-68.7,-58.65,792,772,777,340,876,33.333333333333336,-0.839,-0.508,0.197
159619,1755601157394,57.48,-68.69,-58.66,786,763,779,335,867,33.333333333333336,-0.838,-0.507,0.198
159648,1755601157396,57.52,-68.71,-58.68,788,772,775,367,884,34.48275862068966,-0.839,-0.507,0.198
159678,1755601157398,57.52,-68.7,-58.68,783,768,773,382,877,33.333333333333336,-0.84,-0.508,0.197
159708,1755601157400,57.51,-68.68,-58.68,785,773,774,388,875,33.333333333333336,-0.839,-0.508,0.198
159738,1755601157402,57.54,-68.7,-58.7,785,770,776,365,878,33.333333333333336,-0.838,-0.507,0.198
159768,1755601157404,57.54,-68.69,-58.72,790,780,782,353,874,33.333333333333336,-0.839,-0.507,0.198
159798,1755601157406,57.55,-68.69,-58.73,784,776,777,398,879,33.333333333333336,-0.84,-0.507,0.197
159827,1755601157409,57.55,-68.69,-58.73,783,769,778,405,874,34.48275862068966,-0.84,-0.508,0.196
159847,1755601157410,57.53,-68.68,-58.73,788,774,777,377,866,50.0,-0.84,-0.508,0.197
159877,1755601157413,57.55,-68.69,-58.73,787,777,779,396,880,33.333333333333336,-0.84,-0.508,0.198
159897,1755601157414,57.58,-68.7,-58.74,785,769,778,354,880,50.0,-0.84,-0.508,0.197
159927,1755601157416,57.56,-68.7,-58.74,785,776,773,380,878,33.333333333333336,-0.84,-0.508,0.196
159957,1755601157418,57.52,-68.7,-58.73,784,772,774,363,913,33.333333333333336,-0.841,-0.508,0.197
159977,1755601157421,57.5,-68.69,-58.72,785,779,778,374,880,50.0,-0.84,-0.508,0.199
160007,1755601157423,57.53,-68.7,-58.73,781,768,774,376,880,33.333333333333336,-0.84,-0.508,0.199
160037,1755601157424,57.51,-68.69,-58.73,785,771,777,335,874,33.333333333333336,-0.84,-0.508,0.197
160067,1755601157426,57.51,-68.69,-58.73,784,768,774,340,878,33.333333333333336,-0.84,-0.507,0.199
160097,1755601157428,57.52,-68.67,-58.74,786,762,778,404,879,33.333333333333336,-0.839,-0.507,0.197
160127,1755601157430,57.52,-68.69,-58.75,781,778,779,410,881,33.333333333333336,-0.841,-0.508,0.197
160147,1755601157433,57.5,-68.69,-58.74,787,772,777,379,872,50.0,-0.841,-0.509,0.197
160177,1755601157435,57.49,-68.68,-58.73,788,778,778,406,874,33.333333333333336,-0.839,-0.507,0.199
160198,1755601157437,57.5,-68.67,-58.74,784,778,786,386,877,47.61904761904762,-0.839,-0.506,0.199
160228,1755601157439,57.51,-68.68,-58.74,783,773,775,417,882,33.333333333333336,-0.84,-0.506,0.197
160257,1755601157441,57.51,-68.69,-58.75,788,773,780,386,899,34.48275862068966,-0.84,-0.506,0.198
160287,1755601157443,57.52,-68.68,-58.76,786,773,770,362,871,33.333333333333336,-0.839,-0.506,0.198
160317,1755601157445,57.52,-68.69,-58.77,782,774,781,361,871,33.333333333333336,-0.84,-0.506,0.198
160347,1755601157447,57.55,-68.71,-58.79,788,772,778,405,872,33.333333333333336,-0.84,-0.506,0.198
160367,1755601157449,57.54,-68.71,-58.8,782,769,778,366,883,50.0,-0.84,-0.507,0.197
160397,1755601157451,57.53,-68.7,-58.8,789,775,779,406,878,33.333333333333336,-0.84,-0.508,0.198
160427,1755601157453,57.54,-68.7,-58.81,783,773,777,405,873,33.333333333333336,-0.839,-0.507,0.199
160457,1755601157455,57.56,-68.7,-58.83,785,773,775,381,881,33.333333333333336,-0.84,-0.506,0.197
160487,1755601157457,57.55,-68.72,-58.84,785,776,777,356,879,33.333333333333336,-0.841,-0.508,0.196
160507,1755601157459,57.54,-68.73,-58.84,784,773,771,406,869,50.0,-0.84,-0.509,0.195
160527,1755601157461,57.53,-68.73,-58.84,785,779,775,406,876,50.0,-0.839,-0.509,0.197
160557,1755601157463,57.53,-68.73,-58.85,779,772,778,370,874,33.333333333333336,-0.839,-0.508,0.198
160587,1755601157465,57.53,-68.73,-58.87,790,768,780,309,879,33.333333333333336,-0.839,-0.508,0.196
160617,1755601157467,57.53,-68.75,-58.87,789,768,773,330,883,33.333333333333336,-0.839,-0.509,0.196
160647,1755601157469,57.54,-68.75,-58.88,785,775,779,369,879,33.333333333333336,-0.839,-0.508,0.196
160667,1755601157471,57.54,-68.76,-58.89,785,777,778,344,878,50.0,-0.84,-0.507,0.197
160697,1755601157473,57.55,-68.76,-58.89,788,769,777,384,878,33.333333333333336,-0.839,-0.508,0.196
160727,1755601157475,57.55,-68.77,-58.91,780,771,779,394,874,33.333333333333336,-0.839,-0.508,0.196
160747,1755601157478,57.53,-68.76,-58.91,783,773,767,371,875,50.0,-0.84,-0.508,0.196
160767,1755601157480,57.53,-68.76,-58.9,787,777,773,345,871,50.0,-0.84,-0.509,0.197
160797,1755601157482,57.57,-68.79,-58.92,785,771,776,382,885,33.333333333333336,-0.839,-0.509,0.198
160827,1755601157484,57.63,-68.82,-58.93,786,771,771,406,876,33.333333333333336,-0.839,-0.508,0.197
160857,1755601157486,57.71,-68.86,-58.95,784,771,776,382,885,33.333333333333336,-0.841,-0.508,0.194
160877,1755601157488,57.72,-68.88,-58.95,788,774,790,389,887,50.0,-0.841,-0.508,0.194
160907,1755601157490,57.81,-68.96,-58.98,788,767,778,382,876,33.333333333333336,-0.838,-0.507,0.193
160937,1755601157492,57.96,-69.06,-59.01,785,776,775,338,875,33.333333333333336,-0.841,-0.509,0.193
160967,1755601157494,58.08,-69.18,-59.02,783,768,781,347,887,33.333333333333336,-0.839,-0.509,0.189
160987,1755601157497,58.16,-69.15,-59.0,784,773,778,381,871,50.0,-0.846,-0.512,0.19
161017,1755601157499,58.1,-69.04,-58.89,784,768,791,354,870,33.333333333333336,-0.843,-0.508,0.192
161047,1755601157501,58.3,-69.25,-58.9,787,765,778,405,875,33.333333333333336,-0.835,-0.506,0.185
161077,1755601157503,58.28,-69.49,-58.97,788,771,781,405,872,33.333333333333336,-0.836,-0.507,0.187
161107,1755601157505,58.29,-69.48,-58.99,789,778,777,381,865,33.333333333333336,-0.844,-0.51,0.186
161136,1755601157507,58.26,-69.36,-58.98,787,772,774,358,878,34.48275862068966,-0.842,-0.511,0.185
161157,1755601157509,58.35,-69.41,-59.02,782,772,777,399,870,47.61904761904762,-0.838,-0.51,0.182
161177,1755601157511,58.39,-69.59,-59.02,784,760,777,367,869,50.0,-0.849,-0.511,0.193
161207,1755601157513,58.27,-69.55,-58.95,784,768,774,361,881,33.333333333333336,-0.848,-0.512,0.182
161236,1755601157515,58.67,-69.57,-58.91,786,775,774,356,872,34.48275862068966,-0.853,-0.516,0.168
161266,1755601157517,59.09,-69.85,-58.91,785,775,778,370,876,33.333333333333336,-0.853,-0.513,0.168
161296,1755601157519,59.14,-69.8,-58.88,786,773,781,360,875,33.333333333333336,-0.842,-0.511,0.169
161326,1755601157521,58.98,-69.81,-58.88,783,772,780,385,873,33.333333333333336,-0.838,-0.509,0.166
161356,1755601157523,59.03,-69.96,-58.91,787,765,781,345,872,33.333333333333336,-0.85,-0.509,0.166
161376,1755601157525,59.0,-70.11,-58.95,792,776,777,380,875,50.0,-0.842,-0.51,0.159
161406,1755601157527,59.09,-70.67,-59.11,786,774,792,321,872,33.333333333333336,-0.843,-0.512,0.151
161435,1755601157529,58.88,-70.75,-59.19,785,774,775,319,873,34.48275862068966,-0.846,-0.515,0.158
161465,1755601157532,58.76,-70.59,-59.09,780,776,774,368,877,33.333333333333336,-0.846,-0.516,0.165
161486,1755601157534,58.91,-70.55,-59.05,788,778,777,318,883,47.61904761904762,-0.843,-0.513,0.164
161515,1755601157535,59.15,-70.71,-59.0,785,775,780,364,887,34.48275862068966,-0.843,-0.513,0.155
161545,1755601157537,59.12,-70.86,-58.97,787,769,778,380,881,33.333333333333336,-0.842,-0.511,0.149
161575,1755601157539,59.02,-70.9,-58.93,782,773,771,397,871,33.333333333333336,-0.843,-0.513,0.152
161605,1755601157541,58.99,-70.97,-58.86,785,774,777,362,890,33.333333333333336,-0.848,-0.513,0.163
161635,1755601157543,59.06,-70.95,-58.73,787,766,779,360,881,33.333333333333336,-0.851,-0.512,0.172
161665,1755601157545,58.88,-70.57,-58.53,787,775,780,393,889,33.333333333333336,-0.845,-0.508,0.172
161695,1755601157547,58.37,-70.11,-58.3,783,773,777,421,893,33.333333333333336,-0.844,-0.504,0.173
161715,1755601157549,57.93,-69.87,-58.14,789,775,775,365,892,50.0,-0.846,-0.505,0.164
161735,1755601157551,57.65,-69.76,-58.01,785,774,774,365,890,50.0,-0.845,-0.506,0.153
161765,1755601157552,57.65,-69.74,-57.89,795,777,775,381,879,33.333333333333336,-0.855,-0.504,0.154
161795,1755601157555,57.68,-69.79,-57.74,787,773,777,411,887,33.333333333333336,-0.855,-0.502,0.158
161815,1755601157557,57.78,-69.88,-57.74,788,774,777,376,889,50.0,-0.855,-0.496,0.164
161835,1755601157559,57.96,-70.05,-57.74,787,778,778,369,889,50.0,-0.845,-0.491,0.17
161865,1755601157561,58.21,-70.22,-57.76,784,778,773,368,891,33.333333333333336,-0.848,-0.491,0.172
161895,1755601157563,58.42,-70.35,-57.76,789,767,776,401,893,33.333333333333336,-0.851,-0.489,0.173
161915,1755601157565,58.57,-70.4,-57.75,782,770,776,356,891,50.0,-0.856,-0.489,0.174
161935,1755601157567,58.63,-70.41,-57.75,783,774,782,337,891,50.0,-0.855,-0.488,0.174
161955,1755601157569,58.67,-70.45,-57.76,783,775,778,390,884,50.0,-0.853,-0.486,0.174
161976,1755601157572,58.77,-70.51,-57.83,785,779,781,396,887,47.61904761904762,-0.851,-0.486,0.172
161996,1755601157574,58.85,-70.61,-57.92,784,772,779,381,894,50.0,-0.851,-0.488,0.166
162026,1755601157576,58.92,-70.7,-57.96,792,774,774,377,885,33.333333333333336,-0.859,-0.491,0.16
162046,1755601157578,58.95,-70.67,-57.96,788,773,781,363,887,50.0,-0.86,-0.492,0.157
162076,1755601157580,58.96,-70.66,-57.97,786,775,778,382,881,33.333333333333336,-0.86,-0.492,0.155
162096,1755601157582,58.94,-70.7,-57.96,786,775,777,375,892,50.0,-0.861,-0.491,0.157
162126,1755601157584,59.0,-70.85,-57.97,796,772,774,405,887,33.333333333333336,-0.861,-0.492,0.159
162156,1755601157586,58.97,-70.85,-57.96,788,764,780,358,884,33.333333333333336,-0.858,-0.495,0.167
162176,1755601157588,58.96,-70.82,-57.99,789,773,780,408,883,50.0,-0.851,-0.491,0.162
162206,1755601157590,59.06,-70.89,-58.05,787,764,771,375,879,33.333333333333336,-0.852,-0.49,0.152
162235,1755601157592,59.05,-71.05,-58.05,782,779,776,336,878,34.48275862068966,-0.861,-0.491,0.157
162265,1755601157594,58.82,-71.02,-58.0,785,772,776,324,888,33.333333333333336,-0.852,-0.488,0.166
162295,1755601157596,58.7,-71.32,-58.17,786,768,776,382,887,33.333333333333336,-0.851,-0.49,0.166
162325,1755601157599,58.67,-71.78,-58.29,789,779,780,381,891,33.333333333333336,-0.857,-0.495,0.161
162355,1755601157601,58.78,-72.03,-58.42,790,769,766,341,896,33.333333333333336,-0.859,-0.5,0.16
162385,1755601157603,59.0,-72.07,-58.55,789,776,782,342,894,33.333333333333336,-0.851,-0.496,0.16
162405,1755601157605,59.19,-72.17,-58.65,785,773,771,373,899,50.0,-0.85,-0.496,0.159
162435,1755601157607,59.47,-72.36,-58.74,784,781,781,346,896,33.333333333333336,-0.858,-0.502,0.154
162465,1755601157609,59.79,-72.38,-58.66,787,770,776,365,910,33.333333333333336,-0.865,-0.502,0.148
162485,1755601157611,59.83,-72.41,-58.56,784,772,771,347,899,50.0,-0.86,-0.506,0.14
162515,1755601157613,59.56,-72.38,-58.64,788,774,777,366,908,33.333333333333336,-0.842,-0.502,0.128
162545,1755601157616,59.37,-72.78,-58.96,790,773,778,412,911,33.333333333333336,-0.837,-0.501,0.13
162574,1755601157618,59.24,-72.93,-59.14,785,776,776,389,911,34.48275862068966,-0.853,-0.508,0.141
162595,1755601157620,59.3,-72.94,-59.15,785,779,776,398,919,47.61904761904762,-0.868,-0.515,0.148
162624,1755601157622,59.14,-72.8,-59.01,782,779,779,387,915,34.48275862068966,-0.86,-0.514,0.151
162654,1755601157624,59.21,-72.68,-59.04,786,771,781,361,911,33.333333333333336,-0.848,-0.512,0.145
162684,1755601157626,59.09,-72.73,-59.1,791,773,775,352,911,33.333333333333336,-0.842,-0.513,0.135
162704,1755601157628,59.0,-72.87,-59.16,790,773,775,339,912,50.0,-0.846,-0.514,0.129
162724,1755601157630,58.97,-73.06,-59.24,790,767,780,408,918,50.0,-0.847,-0.517,0.127
162754,1755601157631,58.8,-73.06,-59.31,795,766,781,349,922,33.333333333333336,-0.848,-0.517,0.134
162784,1755601157633,58.7,-73.17,-59.3,797,772,776,340,918,33.333333333333336,-0.852,-0.516,0.141
162814,1755601157635,58.46,-73.31,-59.36,804,772,777,389,919,33.333333333333336,-0.838,-0.517,0.141
162844,1755601157637,58.21,-73.75,-59.73,794,773,781,426,916,33.333333333333336,-0.836,-0.52,0.141
162864,1755601157640,58.05,-73.98,-59.92,800,777,776,374,914,50.0,-0.844,-0.524,0.143
162894,1755601157642,57.91,-74.32,-59.96,796,775,778,410,913,33.333333333333336,-0.85,-0.531,0.146
162923,1755601157644,57.99,-74.57,-60.01,794,769,777,369,905,34.48275862068966,-0.845,-0.524,0.147
162953,1755601157646,58.04,-74.55,-60.01,796,775,778,342,907,33.333333333333336,-0.844,-0.525,0.147
162983,1755601157648,57.99,-74.36,-59.97,799,769,781,349,928,33.333333333333336,-0.844,-0.531,0.151
163013,1755601157650,58.05,-74.27,-60.03,797,773,777,401,902,33.333333333333336,-0.833,-0.53,0.148
163043,1755601157652,58.28,-74.21,-60.13,801,765,777,395,924,33.333333333333336,-0.828,-0.529,0.141
163073,1755601157654,58.61,-74.52,-60.18,803,776,771,375,925,33.333333333333336,-0.836,-0.536,0.126
163103,1755601157656,58.94,-74.97,-60.1,808,774,780,343,912,33.333333333333336,-0.844,-0.538,0.134
163123,1755601157659,59.09,-75.02,-60.06,805,768,766,415,901,50.0,-0.834,-0.531,0.138
163153,1755601157660,59.38,-75.23,-60.13,809,772,774,357,912,33.333333333333336,-0.817,-0.527,0.138
163183,1755601157663,59.81,-75.54,-60.22,811,773,784,369,911,33.333333333333336,-0.824,-0.525,0.14
163203,1755601157665,60.04,-75.67,-60.24,808,773,772,342,903,50.0,-0.835,-0.533,0.133
163233,1755601157667,59.92,-75.82,-60.3,808,763,781,347,903,33.333333333333336,-0.843,-0.533,0.115
163263,1755601157669,59.44,-75.92,-60.35,810,774,775,390,899,33.333333333333336,-0.839,-0.539,0.107
163283,1755601157671,59.26,-76.01,-60.35,809,775,782,349,904,50.0,-0.835,-0.539,0.1
163313,1755601157673,59.37,-76.1,-60.31,809,772,778,386,902,33.333333333333336,-0.839,-0.537,0.095
163343,1755601157675,59.09,-76.24,-60.28,806,773,775,393,910,33.333333333333336,-0.838,-0.543,0.094
163373,1755601157677,58.51,-76.11,-60.15,804,776,777,375,910,33.333333333333336,-0.826,-0.535,0.104
163403,1755601157679,58.36,-76.01,-60.17,800,773,773,343,901,33.333333333333336,-0.824,-0.528,0.113
164892,1755601157682,55.94,-72.05,-60.37,797,783,773,405,889,0.6715916722632639,-0.833,-0.529,0.186
164922,1755601157684,55.89,-72.02,-60.3,800,770,771,383,903,33.333333333333336,-0.832,-0.529,0.188
164952,1755601157685,55.94,-71.95,-60.31,807,772,781,356,878,33.333333333333336,-0.826,-0.522,0.19
164981,1755601157688,55.98,-71.9,-60.36,800,766,777,363,887,34.48275862068966,-0.828,-0.521,0.191
165002,1755601157689,56.0,-71.87,-60.37,801,772,778,377,895,47.61904761904762,-0.831,-0.525,0.19
165032,1755601157692,56.04,-71.87,-60.37,802,770,783,376,884,33.333333333333336,-0.83,-0.526,0.188
165062,1755601157694,56.06,-71.87,-60.38,799,776,778,396,896,33.333333333333336,-0.831,-0.528,0.186
165091,1755601157695,56.05,-71.86,-60.35,800,766,780,394,888,34.48275862068966,-0.832,-0.527,0.189
165121,1755601157698,56.1,-71.79,-60.3,798,778,776,375,885,33.333333333333336,-0.829,-0.527,0.191
165151,1755601157700,56.21,-71.72,-60.26,799,765,777,344,899,33.333333333333336,-0.829,-0.527,0.19
165181,1755601157701,56.21,-71.68,-60.26,800,781,770,397,907,33.333333333333336,-0.828,-0.525,0.189
165201,1755601157704,56.21,-71.65,-60.28,797,774,786,365,877,50.0,-0.827,-0.531,0.18
165230,1755601157706,56.06,-71.61,-60.21,797,771,778,398,899,34.48275862068966,-0.836,-0.528,0.185
165251,1755601157708,56.04,-71.61,-60.22,801,776,769,363,892,47.61904761904762,-0.837,-0.526,0.185
165281,1755601157733,56.09,-71.6,-60.23,797,781,779,381,890,33.333333333333336,-0.837,-0.525,0.189
165311,1755601157763,56.07,-71.7,-60.25,804,774,775,403,890,33.333333333333336,-0.834,-0.527,0.187
165341,1755601157793,56.13,-71.83,-60.29,795,774,778,362,890,33.333333333333336,-0.836,-0.526,0.186
165371,1755601157823,56.25,-71.82,-60.31,803,773,770,351,891,33.333333333333336,-0.836,-0.526,0.187
165400,1755601157852,56.34,-71.78,-60.29,805,772,772,359,892,34.48275862068966,-0.835,-0.528,0.187
165430,1755601157882,56.35,-71.83,-60.29,801,767,777,375,894,33.333333333333336,-0.831,-0.528,0.185
165460,1755601157912,56.43,-71.92,-60.34,801,766,777,402,895,33.333333333333336,-0.83,-0.523,0.186
165490,1755601157942,56.67,-72.0,-60.39,795,775,780,381,903,33.333333333333336,-0.835,-0.523,0.186
165510,1755601157962,56.82,-72.02,-60.41,804,772,773,386,898,50.0,-0.835,-0.526,0.183
165540,1755601157993,56.86,-71.97,-60.42,796,770,769,375,901,33.333333333333336,-0.832,-0.527,0.177
165561,1755601158013,56.81,-71.94,-60.43,795,767,776,389,892,47.61904761904762,-0.831,-0.527,0.175
165590,1755601158042,56.74,-71.96,-59.98,799,769,788,397,901,34.48275862068966,-0.833,-0.527,0.176
165620,1755601158072,56.77,-71.95,-59.99,797,775,790,350,901,33.333333333333336,-0.833,-0.527,0.177
165650,1755601158103,56.77,-71.9,-59.98,795,773,773,345,897,33.333333333333336,-0.832,-0.528,0.176
165671,1755601158122,56.74,-71.87,-59.99,800,772,773,385,892,47.61904761904762,-0.831,-0.528,0.176
165700,1755601158153,56.69,-71.88,-60.0,796,771,769,373,897,34.48275862068966,-0.832,-0.527,0.173
165721,1755601158172,56.69,-71.91,-60.02,798,771,780,388,888,47.61904761904762,-0.834,-0.527,0.174
165750,1755601158203,56.71,-71.9,-60.03,801,764,779,358,893,34.48275862068966,-0.83,-0.527,0.175
165770,1755601158222,56.71,-71.88,-60.04,799,776,779,382,891,50.0,-0.829,-0.526,0.175
165800,1755601158252,56.7,-71.85,-60.06,799,762,777,367,894,33.333333333333336,-0.832,-0.527,0.176
165830,1755601158282,56.69,-71.82,-60.07,798,776,776,394,889,33.333333333333336,-0.832,-0.528,0.176
165860,1755601158312,56.66,-71.77,-60.08,806,771,777,400,888,33.333333333333336,-0.83,-0.529,0.174
165890,1755601158342,56.66,-71.78,-60.09,799,772,766,384,896,33.333333333333336,-0.832,-0.529,0.175
165920,1755601158372,56.66,-71.76,-60.09,801,771,779,357,891,33.333333333333336,-0.83,-0.529,0.175
165949,1755601158401,56.67,-71.74,-60.11,797,773,776,340,892,34.48275862068966,-0.829,-0.528,0.175
165979,1755601158431,56.63,-71.65,-60.12,801,767,774,376,893,33.333333333333336,-0.828,-0.529,0.178
166009,1755601158461,56.68,-71.65,-60.15,799,769,771,396,900,33.333333333333336,-0.829,-0.528,0.177
166039,1755601158491,56.67,-71.64,-60.17,796,772,775,381,915,33.333333333333336,-0.83,-0.529,0.175
166069,1755601158521,56.64,-71.65,-60.18,798,768,780,349,893,33.333333333333336,-0.83,-0.532,0.172
166099,1755601158551,56.6,-71.69,-60.19,800,773,776,357,890,33.333333333333336,-0.828,-0.531,0.172
166119,1755601158571,56.6,-71.74,-60.21,794,777,772,371,895,50.0,-0.828,-0.529,0.172
166149,1755601158601,56.57,-71.78,-60.23,802,767,779,369,893,33.333333333333336,-0.83,-0.531,0.174
166178,1755601158630,56.49,-71.72,-60.2,796,775,783,404,887,34.48275862068966,-0.829,-0.53,0.179
166208,1755601158661,56.48,-71.59,-60.2,797,761,778,398,889,33.333333333333336,-0.83,-0.529,0.18
166229,1755601158681,56.46,-71.5,-60.19,802,775,778,363,885,47.61904761904762,-0.831,-0.531,0.18
166249,1755601158701,56.37,-71.36,-60.13,798,777,771,334,892,50.0,-0.834,-0.534,0.183
166279,1755601158731,56.31,-71.07,-60.01,802,772,777,389,893,33.333333333333336,-0.83,-0.533,0.183
166299,1755601158751,56.38,-70.98,-59.97,794,771,779,310,888,50.0,-0.83,-0.531,0.184
166329,1755601158781,56.43,-70.76,-59.87,805,772,779,336,892,33.333333333333336,-0.827,-0.527,0.19
166359,1755601158811,56.53,-70.54,-59.85,798,775,777,389,890,33.333333333333336,-0.828,-0.524,0.192
166388,1755601158841,56.54,-70.27,-59.79,801,760,776,355,899,34.48275862068966,-0.827,-0.521,0.192
166409,1755601158861,56.55,-70.14,-59.77,808,779,770,388,890,47.61904761904762,-0.828,-0.519,0.188
166438,1755601158890,56.54,-70.05,-59.78,797,773,777,370,886,34.48275862068966,-0.829,-0.52,0.183
166468,1755601158921,56.53,-70.09,-59.81,797,775,781,305,888,33.333333333333336,-0.832,-0.519,0.18
166488,1755601158940,56.47,-70.14,-59.82,806,770,783,366,883,50.0,-0.836,-0.518,0.182
166518,1755601158970,56.42,-70.21,-59.85,798,773,774,353,894,33.333333333333336,-0.833,-0.517,0.186
166548,1755601159000,56.47,-70.29,-59.9,796,766,778,365,886,33.333333333333336,-0.832,-0.516,0.189
166578,1755601159030,56.48,-70.29,-59.94,803,779,776,384,882,33.333333333333336,-0.83,-0.519,0.189
166608,1755601159060,56.51,-70.31,-59.96,794,778,777,390,894,33.333333333333336,-0.834,-0.522,0.191
166637,1755601159089,56.58,-70.39,-59.97,798,773,776,368,893,34.48275862068966,-0.835,-0.523,0.19
166667,1755601159120,56.61,-70.48,-59.97,798,773,775,352,891,33.333333333333336,-0.832,-0.523,0.187
166687,1755601159140,56.65,-70.55,-59.98,797,769,781,394,887,50.0,-0.832,-0.523,0.186
166717,1755601159170,56.73,-70.64,-59.97,803,777,776,365,892,33.333333333333336,-0.834,-0.522,0.19
166738,1755601159190,56.72,-70.63,-59.96,802,772,781,391,887,47.61904761904762,-0.833,-0.519,0.191
166767,1755601159219,56.73,-70.64,-59.96,801,772,772,347,892,34.48275862068966,-0.833,-0.519,0.192
166797,1755601159249,56.76,-70.6,-59.94,798,777,769,382,885,33.333333333333336,-0.833,-0.521,0.193
166817,1755601159269,56.79,-70.6,-59.93,804,774,779,370,896,50.0,-0.833,-0.52,0.192
166847,1755601159300,56.86,-70.64,-59.96,800,767,777,398,894,33.333333333333336,-0.829,-0.518,0.189
166868,1755601159320,56.88,-70.63,-59.99,803,768,777,362,888,47.61904761904762,-0.832,-0.519,0.185
166897,1755601159349,56.78,-70.57,-59.97,794,773,780,391,887,34.48275862068966,-0.836,-0.52,0.185
166927,1755601159379,56.74,-70.53,-59.97,802,763,778,400,901,33.333333333333336,-0.835,-0.518,0.188
166957,1755601159410,56.78,-70.58,-60.01,800,777,776,404,895,33.333333333333336,-0.834,-0.516,0.187
166977,1755601159430,56.82,-70.62,-60.04,800,768,779,375,886,50.0,-0.838,-0.516,0.185
167007,1755601159459,56.78,-70.72,-60.08,795,774,780,402,895,33.333333333333336,-0.838,-0.514,0.184
167037,1755601159489,56.82,-70.73,-60.1,800,775,778,343,897,33.333333333333336,-0.842,-0.515,0.184
167067,1755601159519,56.89,-70.83,-60.05,805,769,777,349,887,33.333333333333336,-0.84,-0.524,0.187
167097,1755601159550,56.94,-70.68,-59.9,796,778,778,366,892,33.333333333333336,-0.834,-0.526,0.189
167117,1755601159569,56.95,-70.56,-59.81,802,767,776,319,891,50.0,-0.83,-0.52,0.19
167147,1755601159599,56.91,-70.49,-59.83,800,774,778,364,887,33.333333333333336,-0.825,-0.512,0.188
167177,1755601159629,56.89,-70.41,-59.9,807,773,774,421,888,33.333333333333336,-0.824,-0.511,0.183
167207,1755601159659,56.78,-70.42,-59.98,799,781,774,372,891,33.333333333333336,-0.831,-0.513,0.178
167227,1755601159679,56.64,-70.45,-60.02,800,768,773,376,893,50.0,-0.835,-0.514,0.177
167257,1755601159709,56.49,-70.42,-60.06,799,766,780,383,897,33.333333333333336,-0.839,-0.517,0.18
167287,1755601159739,56.35,-70.37,-60.06,797,773,778,352,894,33.333333333333336,-0.837,-0.522,0.184
167317,1755601159769,56.23,-70.32,-60.02,797,773,776,343,888,33.333333333333336,-0.836,-0.524,0.191
167346,1755601159798,56.16,-70.19,-59.91,796,770,777,377,879,34.48275862068966,-0.839,-0.524,0.199
167376,1755601159828,56.12,-70.05,-59.84,799,778,778,409,891,33.333333333333336,-0.836,-0.517,0.201
167396,1755601159848,56.06,-70.0,-59.84,796,773,777,375,887,50.0,-0.828,-0.511,0.198
167426,1755601159879,56.07,-70.02,-59.91,798,773,775,404,884,33.333333333333336,-0.826,-0.513,0.193
167446,1755601159898,56.11,-70.05,-59.96,800,779,776,372,876,50.0,-0.831,-0.519,0.188
167476,1755601159929,56.04,-70.12,-59.95,798,774,779,384,883,33.333333333333336,-0.837,-0.528,0.185
167497,1755601159948,55.95,-70.16,-59.9,799,779,777,339,883,47.61904761904762,-0.84,-0.533,0.187
167526,1755601159979,55.86,-70.1,-59.79,803,777,780,387,892,34.48275862068966,-0.837,-0.528,0.201
167546,1755601159998,55.85,-69.95,-59.72,802,769,775,352,893,50.0,-0.83,-0.52,0.21
167576,1755601160028,55.94,-69.84,-59.73,796,773,774,386,893,33.333333333333336,-0.829,-0.513,0.211
167606,1755601160058,55.99,-69.74,-59.74,799,773,778,388,888,33.333333333333336,-0.832,-0.515,0.21
167636,1755601160088,55.99,-69.55,-59.68,798,776,778,342,883,33.333333333333336,-0.838,-0.515,0.206
167666,1755601160118,55.99,-69.46,-59.63,798,774,776,344,896,33.333333333333336,-0.837,-0.51,0.203
167696,1755601160148,56.01,-69.48,-59.63,802,771,778,383,875,33.333333333333336,-0.833,-0.511,0.205
167725,1755601160178,56.02,-69.41,-59.59,800,767,777,409,890,34.48275862068966,-0.834,-0.514,0.207
167755,1755601160208,56.01,-69.35,-59.54,799,768,776,363,890,33.333333333333336,-0.836,-0.51,0.205
167775,1755601160227,56.0,-69.3,-59.51,792,768,773,397,888,50.0,-0.835,-0.508,0.204
167805,1755601160257,55.96,-69.22,-59.47,797,763,772,376,893,33.333333333333336,-0.837,-0.505,0.21
167835,1755601160287,55.93,-69.2,-59.49,796,771,771,338,896,33.333333333333336,-0.833,-0.507,0.21
167865,1755601160317,56.0,-69.23,-59.51,796,777,772,363,902,33.333333333333336,-0.839,-0.511,0.21
167895,1755601160347,55.98,-69.19,-59.45,797,770,772,387,889,33.333333333333336,-0.841,-0.511,0.21
167925,1755601160377,55.96,-69.13,-59.42,795,771,776,414,887,33.333333333333336,-0.837,-0.506,0.211
167945,1755601160397,55.97,-69.11,-59.41,801,769,776,368,871,50.0,-0.836,-0.501,0.212
167975,1755601160427,56.0,-69.13,-59.43,798,778,772,402,891,33.333333333333336,-0.833,-0.503,0.214
168005,1755601160457,56.02,-69.08,-59.43,804,769,775,369,884,33.333333333333336,-0.833,-0.504,0.216
168025,1755601160477,56.02,-69.04,-59.44,797,773,776,381,878,50.0,-0.837,-0.505,0.215
168055,1755601160507,55.95,-68.96,-59.43,797,775,773,365,892,33.333333333333336,-0.837,-0.505,0.215
168085,1755601160537,55.94,-68.86,-59.42,800,772,778,355,903,33.333333333333336,-0.835,-0.501,0.218
168115,1755601160567,55.98,-68.8,-59.44,796,773,772,351,886,33.333333333333336,-0.835,-0.502,0.218
168144,1755601160597,56.04,-68.76,-59.44,802,771,770,414,886,34.48275862068966,-0.839,-0.506,0.218
168174,1755601160626,56.03,-68.67,-59.41,796,776,782,396,897,33.333333333333336,-0.836,-0.506,0.219
