timestamp_ms,recv_timestamp_ms,pitch,roll,yaw,flex1,flex2,flex3,flex4,flex5,sampling_hz,accel_x,accel_y,accel_z
206679,1755606543379,15.43,47.12,-21.97,800,773,770,340,888,34.48275862068966,-0.259,0.718,0.664
206709,1755606543381,15.44,47.13,-21.98,799,779,774,406,878,33.333333333333336,-0.257,0.715,0.662
206738,1755606543383,15.48,47.03,-22.03,801,775,774,435,880,34.48275862068966,-0.256,0.713,0.661
206768,1755606543385,15.46,47.02,-22.01,802,770,766,391,882,33.333333333333336,-0.257,0.713,0.662
206797,1755606543387,15.46,47.07,-22.0,803,768,772,338,874,34.48275862068966,-0.259,0.716,0.664
206827,1755606543389,15.45,47.01,-22.01,801,779,775,357,880,33.333333333333336,-0.257,0.713,0.662
206856,1755606543391,15.43,47.03,-21.98,803,769,775,414,878,34.48275862068966,-0.254,0.711,0.665
206886,1755606543393,15.45,47.13,-21.96,797,769,774,424,881,33.333333333333336,-0.255,0.713,0.667
206916,1755606543395,15.47,47.19,-21.97,803,774,774,364,870,33.333333333333336,-0.255,0.713,0.661
206945,1755606543397,15.45,47.15,-21.98,797,774,775,352,876,34.48275862068966,-0.254,0.71,0.661
206975,1755606543399,15.46,47.17,-21.98,800,774,777,404,875,33.333333333333336,-0.256,0.711,0.664
207005,1755606543401,15.47,47.19,-21.99,802,779,774,432,877,33.333333333333336,-0.256,0.714,0.663
207034,1755606543403,15.48,47.21,-22.04,800,775,776,397,880,34.48275862068966,-0.256,0.715,0.663
207064,1755606543404,15.5,47.3,-22.04,799,773,786,344,874,33.333333333333336,-0.259,0.714,0.666
207093,1755606543407,15.52,47.29,-22.07,801,779,770,360,874,34.48275862068966,-0.261,0.713,0.661
207122,1755606543409,15.53,47.31,-22.07,801,773,772,401,877,34.48275862068966,-0.261,0.714,0.66
207152,1755606543410,15.54,47.4,-22.02,798,779,774,393,875,33.333333333333336,-0.259,0.715,0.664
207182,1755606543412,15.58,47.4,-22.06,794,773,774,334,873,33.333333333333336,-0.257,0.716,0.659
207211,1755606543414,15.58,47.3,-22.09,800,773,776,345,872,34.48275862068966,-0.257,0.713,0.657
207241,1755606543416,15.59,47.3,-22.06,801,777,773,415,878,33.333333333333336,-0.26,0.713,0.662
207270,1755606543419,15.58,47.36,-22.03,798,771,770,419,875,34.48275862068966,-0.258,0.715,0.662
207290,1755606543421,15.58,47.38,-22.05,797,767,770,394,878,50.0,-0.255,0.718,0.658
207320,1755606543423,15.6,47.35,-22.12,802,768,778,388,875,33.333333333333336,-0.258,0.715,0.657
207349,1755606543425,15.59,47.33,-22.12,794,778,776,343,879,34.48275862068966,-0.26,0.712,0.655
207379,1755606543427,15.58,47.28,-22.08,815,777,769,326,883,33.333333333333336,-0.263,0.713,0.656
207408,1755606543429,15.6,47.36,-22.06,802,774,767,397,878,34.48275862068966,-0.262,0.719,0.662
207438,1755606543431,15.66,47.4,-22.07,797,774,774,439,874,33.333333333333336,-0.26,0.718,0.661
207467,1755606543433,15.66,47.44,-22.1,799,773,777,371,882,34.48275862068966,-0.259,0.717,0.656
207497,1755606543435,15.61,47.37,-22.08,800,767,775,321,879,33.333333333333336,-0.258,0.713,0.656
207527,1755606543437,15.58,47.3,-22.05,798,775,773,358,877,33.333333333333336,-0.262,0.714,0.659
207556,1755606543439,15.58,47.38,-22.06,802,774,774,412,878,34.48275862068966,-0.262,0.718,0.662
207585,1755606543442,15.57,47.42,-22.04,796,775,773,405,877,34.48275862068966,-0.26,0.717,0.659
207615,1755606543443,15.57,47.39,-22.05,802,779,773,339,875,33.333333333333336,-0.259,0.716,0.655
207644,1755606543446,15.51,47.31,-22.05,799,773,776,355,877,34.48275862068966,-0.259,0.716,0.656
207674,1755606543448,15.47,47.28,-22.06,800,776,775,375,870,33.333333333333336,-0.26,0.718,0.66
207703,1755606543450,15.45,47.34,-22.05,796,773,776,356,876,34.48275862068966,-0.262,0.716,0.666
207733,1755606543452,15.46,47.37,-22.04,800,777,774,312,878,33.333333333333336,-0.262,0.714,0.662
207762,1755606543454,15.43,47.37,-22.03,803,778,776,334,892,34.48275862068966,-0.26,0.715,0.659
207792,1755606543456,15.42,47.34,-22.0,800,776,777,391,870,33.333333333333336,-0.259,0.715,0.662
207822,1755606543457,15.44,47.36,-22.01,800,777,773,415,877,33.333333333333336,-0.257,0.717,0.661
207851,1755606543460,15.41,47.36,-22.0,797,769,774,391,872,34.48275862068966,-0.257,0.714,0.659
207881,1755606543462,15.41,47.29,-21.99,797,771,773,347,871,33.333333333333336,-0.258,0.711,0.662
207910,1755606543464,15.46,47.31,-22.01,795,770,768,366,872,34.48275862068966,-0.262,0.716,0.664
207940,1755606543466,15.46,47.35,-21.97,800,766,774,432,899,33.333333333333336,-0.262,0.717,0.661
207969,1755606543468,15.49,47.39,-21.96,796,767,774,374,880,34.48275862068966,-0.258,0.714,0.662
207999,1755606543471,15.51,47.4,-21.94,795,773,774,303,876,33.333333333333336,-0.255,0.714,0.662
208019,1755606543473,15.5,47.39,-21.96,796,767,773,385,872,50.0,-0.254,0.717,0.658
208049,1755606543475,15.51,47.31,-22.04,797,771,773,329,869,33.333333333333336,-0.254,0.716,0.656
208078,1755606543476,15.51,47.13,-22.08,795,773,778,327,879,34.48275862068966,-0.257,0.714,0.657
208107,1755606543478,15.48,47.03,-22.11,800,777,774,397,875,34.48275862068966,-0.257,0.715,0.658
208137,1755606543481,15.44,46.92,-22.18,803,777,774,401,872,33.333333333333336,-0.255,0.717,0.666
208157,1755606543482,15.44,46.84,-22.29,797,787,773,369,896,50.0,-0.253,0.719,0.665
208186,1755606543485,15.53,46.89,-22.41,797,789,772,383,879,34.48275862068966,-0.254,0.713,0.674
208216,1755606543487,15.53,47.13,-22.32,801,777,775,342,879,33.333333333333336,-0.262,0.715,0.673
208245,1755606543489,15.54,47.25,-22.31,800,772,772,347,869,34.48275862068966,-0.264,0.714,0.659
208275,1755606543491,15.49,47.2,-22.24,800,775,771,400,873,33.333333333333336,-0.263,0.709,0.657
208305,1755606543493,15.46,47.45,-22.12,800,776,773,435,871,33.333333333333336,-0.265,0.716,0.663
208325,1755606543494,15.47,47.53,-22.05,797,777,773,375,875,50.0,-0.265,0.724,0.659
208355,1755606543496,15.42,47.4,-22.03,800,779,774,407,872,33.333333333333336,-0.258,0.716,0.653
208384,1755606543498,15.45,47.27,-22.01,799,779,773,375,866,34.48275862068966,-0.26,0.71,0.659
208414,1755606543501,15.38,47.32,-21.92,796,775,771,339,870,33.333333333333336,-0.262,0.715,0.661
208443,1755606543503,15.38,47.38,-21.92,800,776,773,365,875,34.48275862068966,-0.26,0.718,0.66
208473,1755606543505,15.38,47.37,-21.93,799,772,775,416,867,33.333333333333336,-0.259,0.716,0.664
208502,1755606543507,15.39,47.42,-21.94,789,778,770,403,874,34.48275862068966,-0.256,0.719,0.661
208532,1755606543509,15.37,47.46,-21.93,795,776,771,344,868,33.333333333333336,-0.255,0.716,0.659
208561,1755606543511,15.36,47.43,-21.99,799,777,776,351,873,34.48275862068966,-0.256,0.717,0.657
208582,1755606543513,15.36,47.41,-21.98,801,770,770,383,870,47.61904761904762,-0.26,0.715,0.661
208611,1755606543515,15.34,47.48,-21.93,797,773,774,389,881,34.48275862068966,-0.262,0.717,0.661
208641,1755606543517,15.32,47.57,-21.9,799,776,774,420,871,33.333333333333336,-0.258,0.72,0.659
208670,1755606543519,15.36,47.55,-21.92,796,769,774,411,868,34.48275862068966,-0.258,0.717,0.658
208700,1755606543521,15.34,47.57,-21.88,799,771,775,355,869,33.333333333333336,-0.257,0.718,0.658
208729,1755606543523,15.31,47.64,-21.79,795,779,768,340,873,34.48275862068966,-0.259,0.721,0.662
208759,1755606543524,15.34,47.65,-21.77,799,778,769,398,887,33.333333333333336,-0.256,0.717,0.66
208788,1755606543526,15.35,47.65,-21.79,799,774,780,439,896,34.48275862068966,-0.256,0.717,0.655
208818,1755606543528,15.37,47.66,-21.8,798,777,773,379,868,33.333333333333336,-0.257,0.72,0.656
208847,1755606543531,15.39,47.69,-21.82,798,767,773,340,876,34.48275862068966,-0.258,0.722,0.656
208876,1755606543532,15.36,47.6,-21.81,800,770,775,382,869,34.48275862068966,-0.258,0.72,0.653
208906,1755606543535,15.37,47.64,-21.84,800,775,770,436,871,33.333333333333336,-0.257,0.725,0.654
208935,1755606543536,15.35,47.76,-21.82,798,775,776,406,904,34.48275862068966,-0.256,0.724,0.659
208964,1755606543539,15.38,47.74,-21.82,798,777,774,357,871,34.48275862068966,-0.259,0.722,0.655
208994,1755606543541,15.4,47.74,-21.84,795,775,773,379,869,33.333333333333336,-0.256,0.725,0.651
209024,1755606543543,15.39,47.67,-21.81,799,772,773,415,871,33.333333333333336,-0.256,0.722,0.653
209053,1755606543545,15.34,47.61,-21.77,800,780,778,419,879,34.48275862068966,-0.256,0.723,0.655
209083,1755606543547,15.34,47.76,-21.78,799,774,774,344,869,33.333333333333336,-0.256,0.729,0.657
209112,1755606543549,15.36,47.78,-21.79,797,778,773,345,872,34.48275862068966,-0.256,0.725,0.655
209141,1755606543551,15.38,47.69,-21.8,796,775,772,403,871,34.48275862068966,-0.254,0.722,0.654
209171,1755606543553,15.36,47.64,-21.81,801,781,772,423,874,33.333333333333336,-0.257,0.722,0.659
209201,1755606543555,15.36,47.66,-21.8,795,775,770,391,870,33.333333333333336,-0.258,0.722,0.658
209230,1755606543557,15.38,47.67,-21.81,801,774,773,331,892,34.48275862068966,-0.257,0.721,0.654
209260,1755606543559,15.37,47.66,-21.79,801,780,773,365,868,33.333333333333336,-0.257,0.72,0.654
209290,1755606543561,15.29,47.67,-21.71,801,777,770,407,875,33.333333333333336,-0.254,0.722,0.653
209319,1755606543563,15.28,47.66,-21.74,796,773,776,409,872,34.48275862068966,-0.252,0.723,0.657
209349,1755606543565,15.31,47.68,-21.75,798,776,770,359,871,33.333333333333336,-0.255,0.722,0.659
209378,1755606543568,15.34,47.75,-21.74,800,778,775,355,870,34.48275862068966,-0.255,0.723,0.656
209408,1755606543570,15.38,47.74,-21.75,798,774,774,411,870,33.333333333333336,-0.255,0.723,0.654
209437,1755606543572,15.36,47.69,-21.73,798,778,772,433,872,34.48275862068966,-0.255,0.723,0.652
209467,1755606543574,15.35,47.69,-21.72,796,773,773,377,873,33.333333333333336,-0.253,0.724,0.653
209496,1755606543575,15.37,47.73,-21.73,800,773,772,341,868,34.48275862068966,-0.253,0.725,0.654
209526,1755606543578,15.34,47.74,-21.69,794,779,772,407,872,33.333333333333336,-0.253,0.723,0.654
209555,1755606543580,15.32,47.71,-21.71,798,772,772,433,872,34.48275862068966,-0.252,0.725,0.653
209585,1755606543581,15.29,47.81,-21.72,796,778,773,397,872,33.333333333333336,-0.249,0.728,0.654
209614,1755606543584,15.33,47.82,-21.79,800,777,774,327,871,34.48275862068966,-0.253,0.724,0.652
209643,1755606543585,15.31,47.78,-21.81,799,775,774,377,872,34.48275862068966,-0.254,0.725,0.648
209673,1755606543587,15.27,47.53,-21.78,798,771,775,420,870,33.333333333333336,-0.256,0.713,0.655
209703,1755606543590,15.29,47.52,-21.77,801,774,768,420,872,33.333333333333336,-0.257,0.722,0.657
209732,1755606543592,15.31,47.71,-21.78,794,777,772,362,872,34.48275862068966,-0.258,0.723,0.663
209762,1755606543595,15.37,47.79,-21.77,796,789,768,345,873,33.333333333333336,-0.257,0.721,0.658
209791,1755606543596,15.36,47.74,-21.77,797,772,769,400,871,34.48275862068966,-0.257,0.718,0.652
209821,1755606543598,15.32,47.67,-21.75,803,774,778,421,873,33.333333333333336,-0.255,0.718,0.655
209850,1755606543600,15.37,47.69,-21.78,798,768,773,374,872,34.48275862068966,-0.256,0.722,0.659
209880,1755606543601,15.38,47.7,-21.81,795,775,774,342,872,33.333333333333336,-0.254,0.721,0.655
209909,1755606543604,15.39,47.68,-21.84,793,775,775,385,879,34.48275862068966,-0.253,0.72,0.653
209939,1755606543606,15.39,47.63,-21.84,798,773,775,385,870,33.333333333333336,-0.256,0.719,0.655
209968,1755606543608,15.36,47.66,-21.81,798,774,773,363,867,34.48275862068966,-0.257,0.723,0.658
209998,1755606543610,15.37,47.7,-21.84,799,775,773,336,873,33.333333333333336,-0.256,0.723,0.664
210028,1755606543612,15.44,47.75,-21.85,798,779,775,371,871,33.333333333333336,-0.258,0.723,0.661
210057,1755606543614,15.44,47.73,-21.86,798,778,777,407,868,34.48275862068966,-0.257,0.72,0.655
210086,1755606543616,15.42,47.62,-21.89,796,769,774,401,880,34.48275862068966,-0.258,0.72,0.658
210116,1755606543618,15.42,47.65,-21.89,793,777,774,355,878,33.333333333333336,-0.26,0.721,0.66
210145,1755606543620,15.45,47.73,-21.9,799,769,769,343,872,34.48275862068966,-0.261,0.724,0.658
210175,1755606543622,15.45,47.72,-21.91,803,768,772,415,875,33.333333333333336,-0.261,0.723,0.654
210204,1755606543624,15.42,47.61,-21.88,796,777,768,419,869,34.48275862068966,-0.26,0.72,0.652
210233,1755606543626,15.4,47.63,-21.86,797,779,778,333,874,34.48275862068966,-0.26,0.722,0.656
210263,1755606543629,15.43,47.73,-21.85,797,768,773,325,870,33.333333333333336,-0.258,0.724,0.661
210293,1755606543630,15.49,47.77,-21.89,793,773,776,381,873,33.333333333333336,-0.258,0.723,0.656
210322,1755606543632,15.5,47.75,-21.91,799,769,769,424,871,34.48275862068966,-0.258,0.719,0.649
210352,1755606543635,15.47,47.7,-21.88,799,768,777,388,869,33.333333333333336,-0.26,0.72,0.651
210381,1755606543636,15.48,47.66,-21.89,798,769,773,333,867,34.48275862068966,-0.259,0.723,0.655
210411,1755606543638,15.62,47.7,-21.99,795,774,773,360,869,33.333333333333336,-0.258,0.723,0.659
210440,1755606543641,15.74,47.72,-21.93,802,771,770,422,880,34.48275862068966,-0.261,0.721,0.657
210469,1755606543643,15.81,47.69,-21.99,795,774,773,397,876,34.48275862068966,-0.259,0.72,0.651
210499,1755606543645,15.83,47.61,-22.06,798,773,778,349,872,33.333333333333336,-0.259,0.718,0.653
210528,1755606543647,15.81,47.66,-22.09,793,774,777,346,870,34.48275862068966,-0.261,0.719,0.657
210558,1755606543649,15.81,47.71,-22.12,799,775,777,398,874,33.333333333333336,-0.262,0.72,0.657
210587,1755606543651,15.81,47.65,-22.15,798,769,774,406,868,34.48275862068966,-0.263,0.715,0.656
210617,1755606543653,15.82,47.68,-22.12,796,774,771,353,871,33.333333333333336,-0.268,0.718,0.656
210647,1755606543655,15.82,47.74,-22.12,800,773,773,348,868,33.333333333333336,-0.269,0.722,0.653
210676,1755606543657,15.83,47.72,-22.13,800,775,775,402,867,34.48275862068966,-0.27,0.718,0.649
210705,1755606543659,15.83,47.76,-22.06,798,774,774,431,871,34.48275862068966,-0.269,0.715,0.648
210735,1755606543661,15.83,47.77,-22.01,798,775,773,384,874,33.333333333333336,-0.267,0.719,0.656
210764,1755606543663,15.83,47.89,-21.97,800,775,772,342,868,34.48275862068966,-0.262,0.724,0.658
210794,1755606543665,15.87,47.95,-22.04,798,773,775,356,874,33.333333333333336,-0.259,0.723,0.653
210823,1755606543667,15.84,47.9,-22.06,797,773,772,425,885,34.48275862068966,-0.26,0.718,0.649
210853,1755606543669,15.82,47.9,-22.05,795,772,770,400,875,33.333333333333336,-0.265,0.721,0.649
210883,1755606543671,15.8,47.89,-22.06,795,774,778,339,877,33.333333333333336,-0.267,0.722,0.648
210912,1755606543673,15.78,47.88,-22.04,795,773,770,349,873,34.48275862068966,-0.268,0.722,0.648
210941,1755606543676,15.76,47.94,-22.03,799,776,772,402,869,34.48275862068966,-0.265,0.723,0.65
210971,1755606543678,15.82,47.95,-22.06,794,777,773,397,871,33.333333333333336,-0.266,0.722,0.652
211000,1755606543679,15.81,47.89,-22.05,797,773,772,358,874,34.48275862068966,-0.266,0.721,0.648
211030,1755606543681,15.82,47.75,-22.06,794,777,773,341,875,33.333333333333336,-0.264,0.717,0.65
211059,1755606543683,15.86,47.77,-22.06,798,778,771,347,868,34.48275862068966,-0.264,0.721,0.656
211088,1755606543685,15.9,47.88,-22.11,796,778,770,418,870,34.48275862068966,-0.265,0.723,0.652
211118,1755606543687,15.93,47.8,-22.21,795,775,775,368,874,33.333333333333336,-0.268,0.717,0.65
211148,1755606543689,15.91,47.82,-22.16,797,775,787,327,867,33.333333333333336,-0.27,0.717,0.653
211177,1755606543691,15.92,47.82,-22.16,791,768,769,355,873,34.48275862068966,-0.269,0.721,0.653
211206,1755606543693,15.9,47.79,-22.16,795,773,774,424,872,34.48275862068966,-0.268,0.721,0.656
211236,1755606543695,15.92,47.88,-22.15,796,773,776,389,870,33.333333333333336,-0.267,0.72,0.659
211265,1755606543697,15.97,47.96,-22.17,798,774,776,350,869,34.48275862068966,-0.267,0.721,0.653
211295,1755606543699,15.93,47.87,-22.18,797,776,774,364,875,33.333333333333336,-0.266,0.721,0.646
211324,1755606543702,15.87,47.77,-22.17,797,771,774,435,870,34.48275862068966,-0.268,0.717,0.653
211354,1755606543704,15.92,47.81,-22.19,800,778,774,424,872,33.333333333333336,-0.272,0.721,0.657
211383,1755606543706,15.97,47.9,-22.18,794,771,773,358,870,34.48275862068966,-0.273,0.721,0.653
211413,1755606543708,15.97,47.84,-22.14,799,775,776,356,874,33.333333333333336,-0.27,0.718,0.654
211442,1755606543710,15.94,47.82,-22.12,797,774,773,396,867,34.48275862068966,-0.267,0.719,0.654
211472,1755606543712,15.94,47.83,-22.12,801,775,776,412,875,33.333333333333336,-0.266,0.722,0.656
211501,1755606543714,16.01,47.89,-22.16,797,770,774,375,869,34.48275862068966,-0.267,0.722,0.66
211531,1755606543716,16.05,47.93,-22.2,793,773,777,349,871,33.333333333333336,-0.268,0.721,0.656
211560,1755606543718,15.98,47.94,-22.17,797,780,768,369,874,34.48275862068966,-0.266,0.719,0.657
211590,1755606543720,15.63,47.99,-21.97,800,772,775,407,866,33.333333333333336,-0.27,0.721,0.662
211619,1755606543722,15.29,47.92,-21.74,798,769,768,404,864,34.48275862068966,-0.27,0.718,0.663
211649,1755606543724,14.64,48.15,-21.8,797,774,768,334,868,33.333333333333336,-0.255,0.729,0.658
211678,1755606543726,14.38,47.81,-21.93,794,779,776,356,868,34.48275862068966,-0.257,0.723,0.66
211708,1755606543728,14.09,47.54,-21.78,797,773,780,390,871,33.333333333333336,-0.26,0.72,0.659
211737,1755606543730,14.01,47.3,-21.8,790,778,771,360,875,34.48275862068966,-0.243,0.728,0.632
211767,1755606543732,14.63,46.17,-22.45,796,774,776,331,868,33.333333333333336,-0.234,0.724,0.62
211796,1755606543734,15.08,45.37,-22.58,797,774,769,333,872,34.48275862068966,-0.246,0.716,0.648
211826,1755606543736,15.05,45.13,-22.26,802,770,777,389,869,33.333333333333336,-0.259,0.716,0.667
211856,1755606543738,15.13,45.07,-22.01,798,776,774,422,873,33.333333333333336,-0.267,0.704,0.684
211876,1755606543740,15.21,45.29,-21.81,802,779,777,360,872,50.0,-0.276,0.699,0.703
211905,1755606543742,15.19,45.94,-21.59,796,774,776,407,866,34.48275862068966,-0.258,0.697,0.7
211935,1755606543744,15.77,46.37,-21.96,796,770,774,332,866,33.333333333333336,-0.245,0.697,0.7
211964,1755606543746,16.42,46.97,-22.45,800,768,775,317,870,34.48275862068966,-0.238,0.704,0.71
211994,1755606543748,16.69,47.67,-22.67,795,779,775,317,875,33.333333333333336,-0.238,0.702,0.691
212023,1755606543750,17.46,47.99,-23.23,794,774,777,389,870,34.48275862068966,-0.262,0.699,0.67
212052,1755606543752,18.62,47.92,-23.72,789,768,776,376,870,34.48275862068966,-0.304,0.699,0.655
212082,1755606543754,18.97,48.14,-23.65,790,773,773,290,876,33.333333333333336,-0.322,0.703,0.633
212111,1755606543756,19.22,47.87,-23.46,791,771,775,325,889,34.48275862068966,-0.324,0.702,0.628
212141,1755606543758,19.43,47.6,-23.14,792,780,768,387,870,33.333333333333336,-0.329,0.705,0.643
212170,1755606543760,19.14,48.14,-22.48,793,770,769,377,875,34.48275862068966,-0.323,0.717,0.669
212200,1755606543762,19.38,48.61,-22.33,793,773,774,344,869,33.333333333333336,-0.293,0.717,0.645
212229,1755606543764,19.93,48.64,-22.7,794,774,777,336,872,34.48275862068966,-0.289,0.72,0.609
212259,1755606543766,20.0,47.96,-22.87,792,774,774,420,871,33.333333333333336,-0.283,0.717,0.587
212288,1755606543768,20.14,47.36,-23.16,791,772,776,414,873,34.48275862068966,-0.286,0.721,0.634
212308,1755606543770,20.45,47.61,-23.26,794,780,773,385,873,50.0,-0.314,0.737,0.697
212338,1755606543772,20.6,48.17,-23.32,790,775,775,405,872,33.333333333333336,-0.327,0.732,0.673
212367,1755606543774,20.45,48.15,-23.38,792,773,773,319,883,34.48275862068966,-0.32,0.713,0.615
212397,1755606543776,20.17,48.03,-23.38,792,772,773,280,886,33.333333333333336,-0.333,0.712,0.603
212426,1755606543778,20.28,47.8,-23.59,787,773,782,367,895,34.48275862068966,-0.352,0.723,0.619
212456,1755606543779,20.37,47.57,-23.84,789,773,773,402,899,33.333333333333336,-0.358,0.722,0.618
212485,1755606543781,20.18,47.54,-23.95,792,767,773,375,907,34.48275862068966,-0.365,0.719,0.628
212515,1755606543783,19.84,47.65,-23.58,793,774,776,364,914,33.333333333333336,-0.37,0.706,0.624
212544,1755606543785,19.23,47.58,-23.21,791,776,773,375,910,34.48275862068966,-0.351,0.705,0.612
212574,1755606543787,18.82,47.22,-23.35,789,778,775,405,909,33.333333333333336,-0.291,0.726,0.616
212604,1755606543789,19.13,46.25,-23.96,793,786,774,395,914,33.333333333333336,-0.295,0.713,0.619
212633,1755606543791,19.47,45.46,-24.38,794,775,775,349,916,34.48275862068966,-0.324,0.704,0.63
212663,1755606543793,19.51,44.79,-24.67,796,772,774,354,914,33.333333333333336,-0.32,0.7,0.634
212692,1755606543795,20.56,43.92,-25.61,796,778,780,421,910,34.48275862068966,-0.316,0.697,0.647
212712,1755606543797,21.6,43.2,-26.35,799,779,775,342,908,50.0,-0.321,0.684,0.656
212742,1755606543799,23.03,42.3,-27.16,798,778,774,409,935,33.333333333333336,-0.349,0.656,0.666
212771,1755606543801,24.02,41.63,-27.58,797,777,774,416,917,34.48275862068966,-0.396,0.647,0.678
212801,1755606543802,24.18,41.2,-27.61,799,775,782,394,909,33.333333333333336,-0.414,0.628,0.679
212830,1755606543804,24.37,41.41,-27.44,792,768,774,359,907,34.48275862068966,-0.452,0.633,0.696
212860,1755606543806,24.15,41.64,-26.86,794,772,777,377,910,33.333333333333336,-0.449,0.648,0.735
212889,1755606543808,24.55,41.51,-26.62,788,775,774,432,904,34.48275862068966,-0.416,0.616,0.705
212919,1755606543811,24.96,41.66,-26.33,794,774,772,389,903,33.333333333333336,-0.425,0.604,0.688
212948,1755606543812,24.26,42.36,-25.68,791,768,785,339,899,34.48275862068966,-0.396,0.63,0.686
212978,1755606543814,24.32,42.78,-25.9,796,776,778,349,897,33.333333333333336,-0.392,0.631,0.66
213007,1755606543817,24.39,42.97,-25.98,797,773,775,404,900,34.48275862068966,-0.447,0.612,0.65
213036,1755606543819,24.01,43.45,-25.42,796,769,768,383,895,34.48275862068966,-0.486,0.62,0.673
213066,1755606543821,23.52,43.77,-25.02,795,779,772,334,909,33.333333333333336,-0.426,0.624,0.675
213096,1755606543823,23.79,43.98,-24.89,798,774,774,337,913,33.333333333333336,-0.4,0.623,0.669
213125,1755606543825,24.03,44.18,-24.71,797,774,776,396,921,34.48275862068966,-0.411,0.627,0.674
213154,1755606543827,23.8,44.77,-23.92,797,780,768,401,928,34.48275862068966,-0.419,0.641,0.674
213184,1755606543829,23.12,45.35,-23.12,793,778,773,371,940,33.333333333333336,-0.401,0.655,0.649
213213,1755606543831,22.8,45.43,-22.9,794,778,774,344,943,34.48275862068966,-0.397,0.664,0.639
213243,1755606543833,22.85,45.35,-23.06,795,766,776,358,951,33.333333333333336,-0.374,0.665,0.627
213272,1755606543835,23.36,45.28,-23.72,806,777,777,395,950,34.48275862068966,-0.364,0.684,0.627
213302,1755606543837,23.24,45.02,-23.97,796,773,778,387,952,33.333333333333336,-0.382,0.691,0.628
213332,1755606543839,23.16,44.59,-24.19,797,775,774,361,960,33.333333333333336,-0.378,0.686,0.628
213361,1755606543841,23.42,43.92,-24.74,795,771,777,344,955,34.48275862068966,-0.352,0.681,0.627
213391,1755606543843,23.98,42.79,-25.44,793,773,777,346,956,33.333333333333336,-0.354,0.662,0.631
213420,1755606543845,24.74,41.82,-26.44,795,777,774,381,960,34.48275862068966,-0.365,0.649,0.646
213450,1755606543847,25.68,41.11,-27.36,795,771,776,370,959,33.333333333333336,-0.397,0.647,0.673
213479,1755606543849,26.25,40.61,-27.81,793,778,777,370,959,34.48275862068966,-0.418,0.648,0.685
213509,1755606543851,26.82,40.09,-27.86,792,775,776,376,962,33.333333333333336,-0.431,0.605,0.695
213538,1755606543853,27.39,40.33,-27.61,798,776,779,382,958,34.48275862068966,-0.471,0.59,0.691
213568,1755606543855,27.53,39.6,-27.4,795,773,788,358,964,33.333333333333336,-0.476,0.583,0.672
213597,1755606543857,27.92,39.25,-27.55,793,777,776,307,955,34.48275862068966,-0.472,0.574,0.661
213627,1755606543859,28.58,39.02,-27.96,797,779,775,336,956,33.333333333333336,-0.484,0.589,0.667
213656,1755606543861,29.29,38.65,-28.5,795,774,774,377,954,34.48275862068966,-0.5,0.603,0.685
213686,1755606543863,29.31,38.64,-28.22,797,775,779,358,956,33.333333333333336,-0.486,0.595,0.693
213706,1755606543865,29.53,38.75,-28.01,793,776,776,399,951,50.0,-0.485,0.558,0.687
213736,1755606543867,30.12,38.92,-28.0,797,780,775,354,952,33.333333333333336,-0.507,0.56,0.66
213765,1755606543869,30.34,38.72,-27.88,797,768,772,311,955,34.48275862068966,-0.519,0.551,0.653
213795,1755606543871,30.31,39.02,-27.61,793,770,775,288,950,33.333333333333336,-0.519,0.554,0.658
213824,1755606543873,30.23,39.39,-27.39,794,771,771,375,947,34.48275862068966,-0.504,0.564,0.654
213854,1755606543874,30.51,39.26,-27.54,793,771,776,371,948,33.333333333333336,-0.504,0.552,0.647
213884,1755606543877,30.52,39.11,-27.49,791,777,773,287,949,33.333333333333336,-0.509,0.545,0.641
213913,1755606543878,30.43,38.97,-27.58,796,775,778,297,950,34.48275862068966,-0.501,0.553,0.637
213943,1755606543880,30.6,38.94,-27.84,791,772,772,380,949,33.333333333333336,-0.512,0.56,0.649
213972,1755606543882,30.55,39.15,-27.72,793,776,770,408,951,34.48275862068966,-0.541,0.559,0.668
214002,1755606543885,29.95,39.38,-27.18,794,777,769,355,949,33.333333333333336,-0.535,0.555,0.663
214031,1755606543886,29.75,39.59,-27.11,796,775,776,321,950,34.48275862068966,-0.506,0.552,0.638
214061,1755606543889,29.64,39.39,-27.35,794,768,774,361,945,33.333333333333336,-0.506,0.56,0.62
214090,1755606543890,29.16,39.26,-27.25,794,777,775,421,948,34.48275862068966,-0.512,0.558,0.635
214119,1755606543893,28.74,39.48,-27.11,795,778,779,381,953,34.48275862068966,-0.518,0.57,0.66
214149,1755606543895,28.67,39.72,-27.35,795,770,775,336,950,33.333333333333336,-0.51,0.574,0.678
214178,1755606543897,28.63,40.14,-27.34,798,776,773,373,951,34.48275862068966,-0.515,0.565,0.688
214208,1755606543899,28.33,40.49,-27.12,794,773,776,414,959,33.333333333333336,-0.503,0.565,0.679
214237,1755606543901,28.1,40.56,-27.01,793,778,774,400,943,34.48275862068966,-0.478,0.56,0.674
214267,1755606543904,27.79,40.72,-26.87,798,774,771,334,948,33.333333333333336,-0.46,0.559,0.686
214297,1755606543906,27.31,41.17,-26.56,795,779,776,336,947,33.333333333333336,-0.474,0.585,0.687
214326,1755606543908,27.01,41.18,-26.35,807,773,777,401,950,34.48275862068966,-0.488,0.573,0.674
214355,1755606543909,26.86,41.54,-25.79,810,769,772,420,946,34.48275862068966,-0.506,0.574,0.673
214385,1755606543911,26.28,42.0,-24.72,840,771,771,386,947,33.333333333333336,-0.496,0.59,0.655
214414,1755606543914,26.17,42.05,-24.1,854,778,776,351,944,34.48275862068966,-0.483,0.594,0.645
214435,1755606543916,26.22,42.05,-23.71,863,777,770,406,952,47.61904761904762,-0.472,0.598,0.65
214464,1755606543918,26.15,42.01,-22.93,874,777,777,341,949,34.48275862068966,-0.461,0.611,0.655
214494,1755606543919,25.51,42.9,-22.04,882,777,771,386,947,33.333333333333336,-0.462,0.619,0.677
214523,1755606543921,25.15,43.13,-21.27,885,771,774,427,946,34.48275862068966,-0.429,0.619,0.666
214553,1755606543923,24.84,43.05,-21.01,888,769,775,399,943,33.333333333333336,-0.381,0.617,0.657
214582,1755606543925,24.65,43.05,-21.04,889,773,775,329,946,34.48275862068966,-0.355,0.633,0.68
214612,1755606543927,24.05,43.2,-20.98,896,775,777,359,946,33.333333333333336,-0.363,0.644,0.671
214641,1755606543929,23.56,42.73,-21.03,892,775,773,422,943,34.48275862068966,-0.365,0.633,0.64
214671,1755606543931,22.93,42.61,-21.23,882,773,767,413,944,33.333333333333336,-0.334,0.656,0.663
214700,1755606543933,22.31,42.38,-21.2,885,773,773,340,965,34.48275862068966,-0.358,0.663,0.682
214720,1755606543935,21.81,42.28,-21.18,884,777,769,402,944,50.0,-0.361,0.653,0.689
214750,1755606543937,21.31,42.53,-21.32,886,776,774,355,945,33.333333333333336,-0.362,0.646,0.683
214779,1755606543939,20.96,42.44,-21.43,883,777,775,349,950,34.48275862068966,-0.367,0.639,0.69
214809,1755606543941,20.65,42.57,-21.32,881,778,774,414,947,33.333333333333336,-0.367,0.643,0.689
214838,1755606543943,20.77,42.61,-21.53,878,769,773,405,943,34.48275862068966,-0.349,0.647,0.685
214868,1755606543945,20.78,42.77,-21.68,878,778,775,357,942,33.333333333333336,-0.35,0.65,0.704
214888,1755606543947,20.63,43.04,-21.65,880,776,777,423,941,50.0,-0.349,0.672,0.714
214917,1755606543949,20.49,43.34,-21.47,879,778,771,339,946,34.48275862068966,-0.344,0.672,0.72
214947,1755606543951,20.25,43.69,-21.14,880,774,772,323,945,33.333333333333336,-0.334,0.665,0.714
214976,1755606543953,20.37,44.12,-21.18,876,773,776,401,942,34.48275862068966,-0.332,0.674,0.722
215006,1755606543955,19.85,44.91,-20.88,882,776,775,417,944,33.333333333333336,-0.316,0.685,0.722
215035,1755606543958,19.37,45.62,-20.5,875,771,776,382,945,34.48275862068966,-0.303,0.674,0.714
215065,1755606543960,19.03,45.84,-20.37,877,777,774,335,944,33.333333333333336,-0.282,0.663,0.685
215094,1755606543962,19.01,45.34,-20.07,863,773,774,384,947,34.48275862068966,-0.28,0.671,0.67
215124,1755606543963,18.23,45.57,-20.09,858,779,769,382,943,33.333333333333336,-0.274,0.678,0.68
215153,1755606543965,17.27,45.89,-19.63,863,771,775,381,944,34.48275862068966,-0.281,0.674,0.679
215183,1755606543967,17.0,46.3,-18.89,859,773,770,323,945,33.333333333333336,-0.281,0.682,0.678
215212,1755606543969,17.51,45.78,-18.3,852,774,773,343,942,34.48275862068966,-0.268,0.693,0.635
215242,1755606543971,17.37,45.35,-17.87,853,778,773,401,946,33.333333333333336,-0.268,0.682,0.692
215271,1755606543973,16.7,46.19,-17.42,848,770,773,410,941,34.48275862068966,-0.263,0.704,0.7
215301,1755606543976,16.41,46.95,-17.33,848,767,773,353,942,33.333333333333336,-0.25,0.705,0.669
215330,1755606543978,16.54,46.94,-17.55,841,773,774,349,943,34.48275862068966,-0.261,0.698,0.656
215360,1755606543980,16.15,47.1,-17.27,847,775,773,400,944,33.333333333333336,-0.266,0.709,0.659
215389,1755606543982,15.6,47.27,-17.05,836,774,774,411,942,34.48275862068966,-0.231,0.726,0.647
