timestamp_ms,recv_timestamp_ms,pitch,roll,yaw,flex1,flex2,flex3,flex4,flex5,sampling_hz,accel_x,accel_y,accel_z
102027,1755598405201,67.87,-62.17,-3.8,766,768,832,898,865,34.48275862068966,-0.932,-0.333,0.173
102057,1755598405204,67.85,-62.16,-3.78,764,769,845,900,887,33.333333333333336,-0.93,-0.331,0.173
102087,1755598405206,67.88,-62.18,-3.79,763,761,838,898,850,33.333333333333336,-0.93,-0.33,0.173
102116,1755598405208,67.88,-62.18,-3.78,767,772,849,895,862,34.48275862068966,-0.932,-0.331,0.173
102146,1755598405210,67.89,-62.19,-3.76,770,767,832,899,862,33.333333333333336,-0.931,-0.331,0.173
102175,1755598405212,67.9,-62.19,-3.75,766,768,841,898,860,34.48275862068966,-0.929,-0.33,0.173
102205,1755598405214,67.9,-62.18,-3.76,765,779,838,895,857,33.333333333333336,-0.93,-0.329,0.173
102235,1755598405216,67.91,-62.2,-3.76,768,769,851,898,867,33.333333333333336,-0.931,-0.33,0.173
102264,1755598405218,67.91,-62.2,-3.77,764,763,846,897,886,34.48275862068966,-0.93,-0.33,0.173
102294,1755598405220,67.92,-62.2,-3.77,766,770,842,900,862,33.333333333333336,-0.931,-0.33,0.173
102324,1755598405222,67.91,-62.19,-3.76,773,774,836,902,853,33.333333333333336,-0.931,-0.33,0.174
102353,1755598405224,67.92,-62.19,-3.76,768,754,834,894,856,34.48275862068966,-0.932,-0.33,0.173
102383,1755598405225,67.94,-62.18,-3.75,766,760,846,898,861,33.333333333333336,-0.932,-0.331,0.173
102412,1755598405227,67.96,-62.19,-3.74,767,757,838,900,865,34.48275862068966,-0.931,-0.331,0.172
102442,1755598405229,67.98,-62.21,-3.73,766,770,833,895,868,33.333333333333336,-0.93,-0.33,0.171
102472,1755598405231,67.96,-62.23,-3.73,765,764,840,896,861,33.333333333333336,-0.931,-0.33,0.171
102501,1755598405233,67.97,-62.23,-3.72,764,767,842,892,859,34.48275862068966,-0.932,-0.33,0.172
102531,1755598405235,67.97,-62.22,-3.72,769,769,839,906,857,33.333333333333336,-0.93,-0.329,0.173
102560,1755598405238,67.98,-62.21,-3.73,769,769,831,894,858,34.48275862068966,-0.93,-0.329,0.173
102590,1755598405239,67.99,-62.23,-3.74,771,771,837,901,859,33.333333333333336,-0.931,-0.33,0.172
102620,1755598405241,67.98,-62.23,-3.73,768,763,840,900,863,33.333333333333336,-0.93,-0.329,0.172
102650,1755598405244,67.99,-62.24,-3.74,774,771,833,901,861,33.333333333333336,-0.929,-0.329,0.173
102680,1755598405245,67.98,-62.25,-3.76,772,768,840,900,858,33.333333333333336,-0.931,-0.329,0.173
102709,1755598405248,68.01,-62.24,-3.75,773,771,844,901,866,34.48275862068966,-0.932,-0.33,0.174
102739,1755598405250,68.03,-62.2,-3.74,769,765,832,894,865,33.333333333333336,-0.931,-0.331,0.173
102769,1755598405251,68.03,-62.21,-3.74,769,769,849,901,860,33.333333333333336,-0.93,-0.33,0.171
102798,1755598405254,68.04,-62.25,-3.75,768,761,839,897,856,34.48275862068966,-0.931,-0.33,0.17
102828,1755598405255,68.05,-62.28,-3.75,762,771,841,896,856,33.333333333333336,-0.931,-0.33,0.171
102857,1755598405257,68.04,-62.28,-3.75,772,771,847,901,862,34.48275862068966,-0.931,-0.33,0.171
102887,1755598405260,68.04,-62.28,-3.75,771,768,841,900,857,33.333333333333336,-0.931,-0.329,0.172
102917,1755598405262,68.05,-62.3,-3.76,771,768,838,902,861,33.333333333333336,-0.931,-0.33,0.173
102946,1755598405264,68.05,-62.3,-3.75,766,764,832,901,864,34.48275862068966,-0.931,-0.331,0.172
102975,1755598405266,68.06,-62.3,-3.74,767,761,839,895,863,34.48275862068966,-0.931,-0.33,0.172
103005,1755598405268,68.05,-62.29,-3.74,775,764,849,901,853,33.333333333333336,-0.931,-0.329,0.172
103034,1755598405270,68.02,-62.29,-3.74,771,769,843,900,860,34.48275862068966,-0.931,-0.331,0.172
103064,1755598405272,68.03,-62.29,-3.73,766,766,839,898,865,33.333333333333336,-0.931,-0.331,0.173
103094,1755598405274,68.04,-62.29,-3.72,769,769,831,892,862,33.333333333333336,-0.931,-0.33,0.173
103123,1755598405276,68.06,-62.29,-3.72,772,774,844,899,861,34.48275862068966,-0.932,-0.33,0.173
103153,1755598405279,68.04,-62.28,-3.71,772,774,841,901,862,33.333333333333336,-0.931,-0.329,0.172
103182,1755598405281,68.04,-62.28,-3.72,767,767,835,897,858,34.48275862068966,-0.93,-0.33,0.171
103212,1755598405283,68.05,-62.3,-3.72,765,765,838,896,862,33.333333333333336,-0.931,-0.331,0.172
103242,1755598405285,68.03,-62.29,-3.71,769,784,839,897,861,33.333333333333336,-0.931,-0.329,0.172
103271,1755598405287,68.06,-62.3,-3.71,770,766,836,893,859,34.48275862068966,-0.931,-0.329,0.174
103301,1755598405289,68.05,-62.29,-3.72,769,764,836,916,861,33.333333333333336,-0.931,-0.328,0.175
103330,1755598405291,68.05,-62.28,-3.72,769,768,849,900,859,34.48275862068966,-0.931,-0.329,0.174
103360,1755598405293,68.07,-62.27,-3.73,771,771,844,898,858,33.333333333333336,-0.931,-0.329,0.173
103389,1755598405295,68.06,-62.31,-3.74,769,768,842,902,855,34.48275862068966,-0.93,-0.33,0.173
103419,1755598405297,68.02,-62.22,-3.67,775,768,850,893,855,33.333333333333336,-0.939,-0.334,0.182
103449,1755598405299,67.95,-61.86,-3.51,771,767,831,896,863,33.333333333333336,-0.941,-0.337,0.186
103478,1755598405302,68.01,-61.21,-3.43,767,773,834,889,856,34.48275862068966,-0.921,-0.328,0.175
103508,1755598405304,68.25,-60.8,-3.59,766,768,825,873,861,33.333333333333336,-0.914,-0.322,0.171
103538,1755598405306,68.23,-60.48,-3.9,769,769,818,865,854,33.333333333333336,-0.915,-0.319,0.168
103568,1755598405308,67.81,-60.46,-4.26,772,770,821,855,851,33.333333333333336,-0.919,-0.32,0.165
103597,1755598405310,67.56,-60.52,-4.42,769,769,824,860,854,34.48275862068966,-0.933,-0.324,0.166
103627,1755598405312,67.58,-60.6,-4.45,771,766,817,857,857,33.333333333333336,-0.94,-0.324,0.175
103656,1755598405314,67.66,-60.81,-4.48,771,770,817,850,845,34.48275862068966,-0.935,-0.326,0.182
103686,1755598405315,67.8,-61.23,-4.57,766,768,816,854,856,33.333333333333336,-0.925,-0.328,0.183
103706,1755598405318,67.88,-61.42,-4.63,768,769,817,858,860,50.0,-0.925,-0.334,0.185
103736,1755598405320,67.89,-61.5,-4.68,768,757,815,859,855,33.333333333333336,-0.928,-0.334,0.184
103765,1755598405322,67.87,-61.63,-4.71,769,771,813,859,849,34.48275862068966,-0.932,-0.336,0.181
103795,1755598405324,67.93,-61.87,-4.75,769,778,810,862,852,33.333333333333336,-0.928,-0.338,0.181
103825,1755598405326,67.99,-62.11,-4.82,771,767,817,861,841,33.333333333333336,-0.923,-0.339,0.181
103854,1755598405328,67.91,-62.24,-4.89,765,774,818,861,856,34.48275862068966,-0.925,-0.34,0.181
103884,1755598405330,67.88,-62.39,-4.96,768,769,811,861,849,33.333333333333336,-0.926,-0.342,0.18
103914,1755598405332,67.91,-62.47,-4.98,763,771,815,864,851,33.333333333333336,-0.929,-0.345,0.183
103943,1755598405334,67.91,-62.48,-4.97,767,767,808,856,852,34.48275862068966,-0.928,-0.346,0.184
103973,1755598405336,67.89,-62.47,-4.95,770,772,817,866,850,33.333333333333336,-0.927,-0.348,0.185
104002,1755598405338,67.89,-62.44,-4.93,774,767,817,865,847,34.48275862068966,-0.923,-0.347,0.182
104032,1755598405341,67.92,-62.44,-4.91,762,768,818,869,857,33.333333333333336,-0.926,-0.349,0.179
104062,1755598405343,67.89,-62.45,-4.87,773,766,808,860,858,33.333333333333336,-0.926,-0.351,0.176
104091,1755598405346,67.84,-62.46,-4.85,769,773,815,871,845,34.48275862068966,-0.924,-0.35,0.174
104121,1755598405348,67.85,-62.49,-4.84,770,766,809,868,855,33.333333333333336,-0.924,-0.349,0.175
104150,1755598405350,67.82,-62.5,-4.81,772,770,812,865,854,34.48275862068966,-0.924,-0.349,0.176
104180,1755598405352,67.8,-62.48,-4.77,768,768,816,866,851,33.333333333333336,-0.924,-0.349,0.177
104209,1755598405355,67.81,-62.43,-4.74,773,768,818,873,849,34.48275862068966,-0.925,-0.349,0.176
104239,1755598405358,67.8,-62.42,-4.71,780,772,816,869,847,33.333333333333336,-0.926,-0.348,0.174
104259,1755598405360,67.81,-62.46,-4.69,771,775,816,868,847,50.0,-0.925,-0.348,0.174
104288,1755598405362,67.77,-62.49,-4.68,772,773,815,872,849,34.48275862068966,-0.923,-0.347,0.173
104318,1755598405365,67.76,-62.5,-4.66,769,770,817,869,842,33.333333333333336,-0.924,-0.346,0.174
104348,1755598405367,67.76,-62.5,-4.64,767,769,814,872,852,33.333333333333336,-0.925,-0.346,0.176
104377,1755598405369,67.75,-62.52,-4.63,769,768,807,872,843,34.48275862068966,-0.924,-0.345,0.175
104407,1755598405372,67.75,-62.55,-4.63,767,766,817,865,846,33.333333333333336,-0.924,-0.346,0.173
104436,1755598405374,67.71,-62.55,-4.62,770,767,817,867,846,34.48275862068966,-0.925,-0.345,0.172
104466,1755598405376,67.69,-62.6,-4.61,767,768,817,875,860,33.333333333333336,-0.925,-0.344,0.172
104496,1755598405378,67.7,-62.65,-4.61,768,777,819,870,852,33.333333333333336,-0.924,-0.344,0.175
104525,1755598405380,67.69,-62.65,-4.62,766,767,817,867,850,34.48275862068966,-0.924,-0.343,0.177
104555,1755598405382,67.66,-62.63,-4.64,771,773,808,871,848,33.333333333333336,-0.924,-0.344,0.177
104584,1755598405384,67.68,-62.62,-4.65,765,762,813,872,838,34.48275862068966,-0.925,-0.345,0.175
104614,1755598405386,67.69,-62.62,-4.64,770,771,816,870,847,33.333333333333336,-0.926,-0.346,0.173
104644,1755598405388,67.66,-62.65,-4.65,766,773,823,870,846,33.333333333333336,-0.924,-0.345,0.173
104673,1755598405390,67.69,-62.68,-4.67,770,764,814,869,854,34.48275862068966,-0.924,-0.345,0.174
104703,1755598405392,67.66,-62.68,-4.68,769,772,802,866,851,33.333333333333336,-0.926,-0.346,0.174
104733,1755598405394,67.65,-62.69,-4.69,769,770,823,879,847,33.333333333333336,-0.926,-0.346,0.174
104763,1755598405396,67.66,-62.7,-4.7,769,758,820,864,847,33.333333333333336,-0.924,-0.346,0.174
104792,1755598405398,67.64,-62.71,-4.7,771,765,818,862,846,34.48275862068966,-0.926,-0.346,0.175
104822,1755598405400,67.64,-62.7,-4.69,764,772,818,869,855,33.333333333333336,-0.927,-0.347,0.174
104851,1755598405402,67.65,-62.71,-4.69,764,768,817,875,850,34.48275862068966,-0.925,-0.347,0.173
104881,1755598405404,67.62,-62.71,-4.69,769,771,818,873,842,33.333333333333336,-0.925,-0.348,0.173
104911,1755598405406,67.59,-62.73,-4.68,771,768,807,867,851,33.333333333333336,-0.926,-0.348,0.173
104940,1755598405409,67.63,-62.76,-4.67,764,771,810,866,843,34.48275862068966,-0.926,-0.346,0.173
104970,1755598405416,67.62,-62.76,-4.66,764,766,809,874,865,33.333333333333336,-0.926,-0.346,0.175
104999,1755598405446,67.58,-62.75,-4.66,773,769,808,871,849,34.48275862068966,-0.925,-0.346,0.174
105029,1755598405475,67.6,-62.78,-4.66,766,768,811,866,855,33.333333333333336,-0.925,-0.346,0.173
105058,1755598405505,67.58,-62.81,-4.66,765,773,814,866,848,34.48275862068966,-0.925,-0.345,0.173
105088,1755598405535,67.59,-62.81,-4.66,764,765,821,867,841,33.333333333333336,-0.925,-0.345,0.174
105118,1755598405564,67.58,-62.81,-4.66,770,773,815,870,846,33.333333333333336,-0.925,-0.345,0.175
105148,1755598405594,67.56,-62.8,-4.66,763,766,818,863,855,33.333333333333336,-0.925,-0.346,0.175
105177,1755598405624,67.58,-62.82,-4.66,769,773,812,870,844,34.48275862068966,-0.925,-0.346,0.173
105207,1755598405653,67.57,-62.83,-4.66,770,775,811,870,848,33.333333333333336,-0.924,-0.345,0.173
105236,1755598405683,67.56,-62.85,-4.66,769,777,820,877,850,34.48275862068966,-0.925,-0.345,0.174
105266,1755598405712,67.56,-62.86,-4.66,769,758,819,873,846,33.333333333333336,-0.925,-0.344,0.174
105295,1755598405742,67.54,-62.86,-4.66,767,768,810,875,852,34.48275862068966,-0.924,-0.345,0.175
105325,1755598405772,67.53,-62.88,-4.67,766,778,812,869,851,33.333333333333336,-0.925,-0.346,0.174
105355,1755598405801,67.53,-62.9,-4.69,768,766,819,873,851,33.333333333333336,-0.925,-0.345,0.173
105385,1755598405831,67.49,-62.93,-4.71,770,770,820,876,861,33.333333333333336,-0.925,-0.345,0.174
105414,1755598405860,67.52,-62.96,-4.7,775,770,818,873,852,34.48275862068966,-0.926,-0.346,0.175
105444,1755598405890,67.51,-62.95,-4.69,765,765,816,869,848,33.333333333333336,-0.925,-0.346,0.175
105473,1755598405919,67.5,-62.95,-4.69,763,774,815,878,850,34.48275862068966,-0.924,-0.346,0.174
105503,1755598405949,67.51,-62.97,-4.69,759,759,806,869,842,33.333333333333336,-0.924,-0.346,0.174
105532,1755598405978,67.5,-62.98,-4.69,775,764,807,865,844,34.48275862068966,-0.925,-0.346,0.174
105562,1755598406008,67.51,-63.0,-4.7,769,773,817,872,849,33.333333333333336,-0.924,-0.345,0.174
105591,1755598406038,67.51,-63.01,-4.72,767,770,814,866,840,34.48275862068966,-0.924,-0.345,0.175
105621,1755598406068,67.48,-63.02,-4.73,769,767,813,873,855,33.333333333333336,-0.924,-0.346,0.175
105651,1755598406097,67.52,-63.05,-4.73,763,769,816,870,853,33.333333333333336,-0.926,-0.347,0.175
105680,1755598406127,67.53,-63.06,-4.72,764,770,815,869,850,34.48275862068966,-0.925,-0.348,0.174
105710,1755598406156,67.48,-63.07,-4.73,768,764,812,877,845,33.333333333333336,-0.923,-0.347,0.173
105740,1755598406186,67.49,-63.13,-4.75,763,770,806,872,854,33.333333333333336,-0.925,-0.347,0.173
105769,1755598406215,67.5,-63.14,-4.74,768,764,817,865,848,34.48275862068966,-0.927,-0.348,0.174
105799,1755598406245,67.48,-63.1,-4.72,774,770,816,872,848,33.333333333333336,-0.925,-0.348,0.175
105828,1755598406275,67.46,-63.08,-4.73,768,774,819,868,873,34.48275862068966,-0.923,-0.347,0.174
105858,1755598406304,67.47,-63.1,-4.74,766,763,812,869,860,33.333333333333336,-0.925,-0.347,0.173
105887,1755598406334,67.48,-63.13,-4.73,769,765,815,869,829,34.48275862068966,-0.925,-0.347,0.173
105917,1755598406363,67.46,-63.13,-4.74,769,774,814,867,852,33.333333333333336,-0.923,-0.347,0.174
105946,1755598406393,67.43,-63.13,-4.75,761,771,815,875,844,34.48275862068966,-0.923,-0.348,0.174
105976,1755598406422,67.45,-63.14,-4.75,766,773,817,873,858,33.333333333333336,-0.925,-0.349,0.173
106005,1755598406452,67.45,-63.15,-4.73,768,767,815,870,848,34.48275862068966,-0.925,-0.348,0.173
106035,1755598406482,67.45,-63.17,-4.73,768,772,811,872,842,33.333333333333336,-0.924,-0.347,0.172
106065,1755598406511,67.46,-63.18,-4.74,763,774,818,879,849,33.333333333333336,-0.924,-0.347,0.172
106094,1755598406541,67.43,-63.2,-4.74,771,764,814,868,847,34.48275862068966,-0.925,-0.348,0.171
106124,1755598406570,67.44,-63.23,-4.73,767,765,819,869,849,33.333333333333336,-0.925,-0.348,0.172
106154,1755598406600,67.45,-63.25,-4.73,765,761,807,868,845,33.333333333333336,-0.924,-0.348,0.173
106183,1755598406629,67.46,-63.27,-4.72,770,772,811,870,849,34.48275862068966,-0.925,-0.347,0.173
106213,1755598406659,67.44,-63.26,-4.72,770,769,820,868,847,33.333333333333336,-0.924,-0.347,0.173
106243,1755598406689,67.42,-63.25,-4.72,770,766,809,867,852,33.333333333333336,-0.924,-0.347,0.172
106272,1755598406719,67.45,-63.29,-4.72,779,766,814,869,851,34.48275862068966,-0.925,-0.347,0.172
106302,1755598406748,67.43,-63.29,-4.72,765,766,816,872,877,33.333333333333336,-0.924,-0.346,0.173
106332,1755598406778,67.43,-63.27,-4.73,773,772,820,871,858,33.333333333333336,-0.924,-0.346,0.173
106361,1755598406807,67.44,-63.27,-4.74,769,762,821,870,844,34.48275862068966,-0.924,-0.346,0.172
106391,1755598406837,67.46,-63.31,-4.76,766,767,816,872,845,33.333333333333336,-0.925,-0.348,0.171
106420,1755598406866,67.44,-63.3,-4.77,770,760,814,875,864,34.48275862068966,-0.925,-0.348,0.171
106450,1755598406897,67.43,-63.3,-4.77,766,765,818,871,844,33.333333333333336,-0.925,-0.349,0.171
106470,1755598406916,67.43,-63.31,-4.76,765,769,815,870,850,50.0,-0.924,-0.348,0.171
106500,1755598406946,67.46,-63.34,-4.77,772,768,811,871,849,33.333333333333336,-0.925,-0.348,0.171
106529,1755598406977,67.42,-63.34,-4.77,767,770,817,870,853,34.48275862068966,-0.924,-0.348,0.17
106550,1755598406997,67.4,-63.36,-4.78,769,768,815,868,846,47.61904761904762,-0.924,-0.349,0.168
106570,1755598407016,67.41,-63.39,-4.78,767,763,805,876,847,50.0,-0.925,-0.349,0.169
106600,1755598407046,67.4,-63.41,-4.78,766,772,819,873,852,33.333333333333336,-0.924,-0.348,0.171
106629,1755598407076,67.39,-63.39,-4.78,765,766,810,868,844,34.48275862068966,-0.924,-0.348,0.171
106659,1755598407105,67.4,-63.41,-4.78,766,771,817,877,850,33.333333333333336,-0.925,-0.349,0.171
106688,1755598407135,67.39,-63.44,-4.77,767,772,809,869,851,34.48275862068966,-0.925,-0.35,0.17
106718,1755598407164,67.41,-63.46,-4.76,768,768,814,872,852,33.333333333333336,-0.924,-0.349,0.171
106748,1755598407194,67.39,-63.46,-4.77,771,768,817,884,843,33.333333333333336,-0.924,-0.347,0.171
106777,1755598407223,67.37,-63.45,-4.77,767,769,815,865,850,34.48275862068966,-0.924,-0.348,0.171
106807,1755598407254,67.39,-63.47,-4.78,763,775,818,872,851,33.333333333333336,-0.925,-0.349,0.172
106827,1755598407273,67.38,-63.46,-4.78,770,763,818,876,849,50.0,-0.924,-0.349,0.172
106857,1755598407303,67.37,-63.46,-4.77,770,766,812,870,848,33.333333333333336,-0.925,-0.35,0.171
106886,1755598407333,67.39,-63.47,-4.77,769,778,814,871,846,34.48275862068966,-0.924,-0.349,0.171
106916,1755598407362,67.39,-63.48,-4.76,770,776,819,869,849,33.333333333333336,-0.925,-0.35,0.171
106946,1755598407392,67.38,-63.47,-4.75,762,766,815,871,848,33.333333333333336,-0.925,-0.349,0.171
106975,1755598407421,67.37,-63.47,-4.75,771,767,818,879,853,34.48275862068966,-0.924,-0.348,0.17
107005,1755598407452,67.39,-63.5,-4.77,771,758,818,869,845,33.333333333333336,-0.925,-0.348,0.172
107025,1755598407471,67.35,-63.48,-4.77,763,764,824,870,851,50.0,-0.924,-0.348,0.173
107054,1755598407501,67.35,-63.46,-4.78,765,763,812,876,846,34.48275862068966,-0.924,-0.347,0.172
107084,1755598407531,67.36,-63.47,-4.79,768,765,822,876,846,33.333333333333336,-0.925,-0.348,0.172
107114,1755598407560,67.32,-63.46,-4.78,769,763,808,873,840,33.333333333333336,-0.925,-0.349,0.172
107143,1755598407590,67.31,-63.47,-4.77,764,767,814,878,855,34.48275862068966,-0.924,-0.35,0.172
107173,1755598407620,67.29,-63.47,-4.76,771,767,811,873,851,33.333333333333336,-0.925,-0.349,0.173
107203,1755598407649,67.27,-63.45,-4.76,767,770,820,872,838,33.333333333333336,-0.925,-0.347,0.172
107232,1755598407679,67.27,-63.46,-4.76,765,770,812,876,848,34.48275862068966,-0.924,-0.347,0.173
107262,1755598407708,67.26,-63.46,-4.76,769,772,827,866,847,33.333333333333336,-0.925,-0.348,0.174
107292,1755598407738,67.24,-63.45,-4.76,763,773,809,875,846,33.333333333333336,-0.923,-0.348,0.174
107321,1755598407767,67.27,-63.46,-4.76,763,768,810,866,847,34.48275862068966,-0.924,-0.348,0.174
107351,1755598407797,67.25,-63.45,-4.76,766,771,810,873,846,33.333333333333336,-0.925,-0.349,0.175
107380,1755598407827,67.25,-63.45,-4.74,770,772,812,875,848,34.48275862068966,-0.925,-0.349,0.175
107410,1755598407856,67.27,-63.46,-4.72,766,761,813,868,854,33.333333333333336,-0.924,-0.348,0.175
107440,1755598407886,67.27,-63.44,-4.72,770,769,818,865,847,33.333333333333336,-0.923,-0.347,0.174
107469,1755598407916,67.28,-63.44,-4.73,767,769,821,870,838,34.48275862068966,-0.924,-0.347,0.174
107499,1755598407945,67.28,-63.45,-4.73,769,774,809,871,849,33.333333333333336,-0.925,-0.347,0.174
107528,1755598407974,67.29,-63.45,-4.73,768,763,813,872,852,34.48275862068966,-0.925,-0.347,0.174
107558,1755598408004,67.3,-63.44,-4.73,775,768,818,876,848,33.333333333333336,-0.925,-0.347,0.173
107587,1755598408033,67.28,-63.44,-4.73,769,769,832,877,854,34.48275862068966,-0.924,-0.346,0.174
107617,1755598408063,67.27,-63.44,-4.74,772,770,816,871,854,33.333333333333336,-0.923,-0.346,0.173
107646,1755598408093,67.29,-63.47,-4.75,769,769,820,863,847,34.48275862068966,-0.924,-0.347,0.173
107676,1755598408122,67.29,-63.48,-4.76,770,764,816,869,842,33.333333333333336,-0.924,-0.346,0.173
107706,1755598408152,67.29,-63.48,-4.76,765,767,816,874,854,33.333333333333336,-0.924,-0.347,0.173
107735,1755598408181,67.27,-63.46,-4.76,768,772,820,873,847,34.48275862068966,-0.924,-0.347,0.172
107764,1755598408211,67.27,-63.49,-4.77,771,771,818,868,848,34.48275862068966,-0.924,-0.348,0.172
107794,1755598408240,67.28,-63.51,-4.77,766,769,813,869,857,33.333333333333336,-0.924,-0.347,0.171
107823,1755598408270,67.28,-63.53,-4.77,765,771,827,868,851,34.48275862068966,-0.924,-0.347,0.172
107853,1755598408299,67.26,-63.55,-4.78,765,761,812,867,844,33.333333333333336,-0.925,-0.348,0.172
107883,1755598408329,67.3,-63.55,-4.78,755,762,815,868,851,33.333333333333336,-0.925,-0.349,0.171
107912,1755598408358,67.32,-63.55,-4.76,769,768,816,882,849,34.48275862068966,-0.925,-0.349,0.171
107942,1755598408388,67.29,-63.57,-4.77,770,772,811,873,848,33.333333333333336,-0.924,-0.348,0.171
107971,1755598408418,67.29,-63.56,-4.77,774,770,816,875,852,34.48275862068966,-0.924,-0.348,0.171
108001,1755598408447,67.32,-63.54,-4.76,767,761,824,873,849,33.333333333333336,-0.925,-0.349,0.17
108031,1755598408477,67.33,-63.55,-4.75,770,765,812,869,845,33.333333333333336,-0.925,-0.348,0.171
108060,1755598408507,67.34,-63.54,-4.74,767,773,814,866,846,34.48275862068966,-0.924,-0.347,0.17
108090,1755598408536,67.33,-63.55,-4.76,771,784,822,869,855,33.333333333333336,-0.923,-0.346,0.169
108120,1755598408566,67.33,-63.56,-4.78,767,766,817,865,854,33.333333333333336,-0.924,-0.347,0.169
108149,1755598408595,67.33,-63.56,-4.78,770,766,811,873,851,34.48275862068966,-0.925,-0.349,0.168
108179,1755598408625,67.34,-63.59,-4.78,774,758,811,873,841,33.333333333333336,-0.925,-0.35,0.168
108208,1755598408655,67.32,-63.61,-4.76,767,767,818,873,848,34.48275862068966,-0.925,-0.35,0.168
108238,1755598408684,67.32,-63.61,-4.74,770,771,809,869,849,33.333333333333336,-0.924,-0.348,0.169
108267,1755598408714,67.33,-63.61,-4.75,771,767,809,869,850,34.48275862068966,-0.924,-0.347,0.17
108297,1755598408744,67.29,-63.59,-4.75,765,769,807,871,855,33.333333333333336,-0.925,-0.349,0.169
108317,1755598408764,67.29,-63.61,-4.74,761,766,817,876,851,50.0,-0.926,-0.35,0.167
108347,1755598408793,67.31,-63.63,-4.72,768,774,819,874,849,33.333333333333336,-0.925,-0.35,0.168
108376,1755598408823,67.3,-63.63,-4.72,766,765,814,873,854,34.48275862068966,-0.924,-0.347,0.169
108406,1755598408852,67.27,-63.64,-4.72,769,764,817,876,844,33.333333333333336,-0.924,-0.346,0.169
108435,1755598408882,67.3,-63.66,-4.73,763,772,807,861,843,34.48275862068966,-0.925,-0.347,0.171
108465,1755598408911,67.31,-63.65,-4.73,771,773,808,876,842,33.333333333333336,-0.924,-0.347,0.171
108494,1755598408941,67.32,-63.63,-4.74,765,764,818,865,844,34.48275862068966,-0.923,-0.348,0.169
108524,1755598408970,67.31,-63.66,-4.74,764,767,816,870,843,33.333333333333336,-0.925,-0.348,0.168
108553,1755598409000,67.27,-63.66,-4.74,773,766,815,874,833,34.48275862068966,-0.925,-0.346,0.17
108583,1755598409030,67.32,-63.65,-4.77,764,777,816,860,856,33.333333333333336,-0.924,-0.346,0.171
108603,1755598409050,67.33,-63.63,-4.78,767,765,809,867,880,50.0,-0.923,-0.348,0.171
108633,1755598409079,67.3,-63.64,-4.78,767,773,808,863,842,33.333333333333336,-0.925,-0.351,0.169
108663,1755598409109,67.34,-63.66,-4.76,766,769,823,873,846,33.333333333333336,-0.925,-0.349,0.17
108693,1755598409139,67.35,-63.66,-4.76,768,764,817,873,854,33.333333333333336,-0.924,-0.347,0.171
108722,1755598409169,67.32,-63.65,-4.77,769,773,813,867,850,34.48275862068966,-0.924,-0.346,0.171
108752,1755598409199,67.32,-63.67,-4.78,766,774,815,865,838,33.333333333333336,-0.925,-0.348,0.171
108782,1755598409228,67.34,-63.69,-4.78,768,761,809,871,852,33.333333333333336,-0.925,-0.35,0.17
108811,1755598409258,67.35,-63.7,-4.78,766,759,820,865,843,34.48275862068966,-0.924,-0.348,0.169
108841,1755598409287,67.33,-63.7,-4.78,770,769,813,867,849,33.333333333333336,-0.925,-0.348,0.171
108870,1755598409317,67.32,-63.69,-4.77,768,774,815,871,850,34.48275862068966,-0.925,-0.348,0.171
108900,1755598409346,67.32,-63.67,-4.78,772,773,819,874,844,33.333333333333336,-0.924,-0.348,0.171
108929,1755598409376,67.3,-63.68,-4.8,767,771,812,861,845,34.48275862068966,-0.923,-0.348,0.17
108959,1755598409406,67.31,-63.71,-4.8,767,761,816,868,846,33.333333333333336,-0.925,-0.348,0.169
108989,1755598409435,67.27,-63.71,-4.8,764,773,812,871,846,33.333333333333336,-0.926,-0.348,0.17
109018,1755598409465,67.24,-63.72,-4.79,770,767,812,878,852,34.48275862068966,-0.925,-0.349,0.17
109048,1755598409495,67.26,-63.74,-4.79,767,769,807,864,842,33.333333333333336,-0.924,-0.349,0.172
109078,1755598409524,67.24,-63.74,-4.79,766,768,809,874,857,33.333333333333336,-0.924,-0.349,0.173
109108,1755598409554,67.24,-63.73,-4.78,765,768,821,873,847,33.333333333333336,-0.926,-0.349,0.172
109137,1755598409584,67.24,-63.72,-4.75,770,767,820,869,859,34.48275862068966,-0.925,-0.349,0.171
109167,1755598409613,67.25,-63.72,-4.76,769,775,818,868,852,33.333333333333336,-0.923,-0.348,0.171
109197,1755598409643,67.24,-63.75,-4.77,761,769,811,878,846,33.333333333333336,-0.923,-0.348,0.171
109226,1755598409673,67.23,-63.76,-4.76,767,766,815,867,842,34.48275862068966,-0.925,-0.348,0.172
109256,1755598409702,67.26,-63.74,-4.75,773,771,816,869,840,33.333333333333336,-0.925,-0.348,0.173
109286,1755598409732,67.23,-63.72,-4.74,761,768,804,872,843,33.333333333333336,-0.924,-0.349,0.173
109315,1755598409762,67.23,-63.72,-4.73,762,775,816,871,851,34.48275862068966,-0.924,-0.348,0.172
109345,1755598409791,67.26,-63.72,-4.74,765,767,819,872,847,33.333333333333336,-0.924,-0.347,0.172
109375,1755598409821,67.25,-63.7,-4.74,768,771,814,875,845,33.333333333333336,-0.924,-0.347,0.172
109404,1755598409850,67.24,-63.7,-4.75,766,767,813,872,850,34.48275862068966,-0.924,-0.347,0.172
109433,1755598409880,67.26,-63.71,-4.76,770,770,812,878,849,34.48275862068966,-0.925,-0.348,0.172
109463,1755598409909,67.26,-63.7,-4.76,770,771,817,874,852,33.333333333333336,-0.925,-0.348,0.172
109492,1755598409939,67.25,-63.68,-4.76,763,773,822,877,858,34.48275862068966,-0.925,-0.349,0.172
109522,1755598409968,67.23,-63.66,-4.75,769,768,826,874,837,33.333333333333336,-0.924,-0.349,0.172
109552,1755598409998,67.25,-63.67,-4.75,771,768,817,873,847,33.333333333333336,-0.924,-0.349,0.172
109581,1755598410028,67.25,-63.69,-4.75,766,765,811,872,843,34.48275862068966,-0.925,-0.349,0.173
109611,1755598410057,67.23,-63.67,-4.75,770,767,818,870,843,33.333333333333336,-0.924,-0.348,0.173
109640,1755598410087,67.23,-63.65,-4.74,767,773,816,870,844,34.48275862068966,-0.925,-0.348,0.173
109670,1755598410116,67.23,-63.65,-4.74,771,774,815,872,845,33.333333333333336,-0.925,-0.348,0.172
109700,1755598410146,67.26,-63.66,-4.74,767,765,821,876,847,33.333333333333336,-0.924,-0.348,0.172
109720,1755598410166,67.25,-63.67,-4.74,766,771,812,874,849,50.0,-0.925,-0.349,0.172
109749,1755598410195,67.23,-63.66,-4.73,771,770,816,874,843,34.48275862068966,-0.924,-0.348,0.172
109779,1755598410225,67.25,-63.66,-4.73,762,766,831,864,848,33.333333333333336,-0.924,-0.348,0.173
109808,1755598410255,67.26,-63.66,-4.73,769,761,819,867,850,34.48275862068966,-0.925,-0.347,0.173
109838,1755598410285,67.25,-63.67,-4.72,769,767,826,873,848,33.333333333333336,-0.925,-0.348,0.173
109868,1755598410315,67.24,-63.66,-4.72,763,764,815,876,846,33.333333333333336,-0.924,-0.348,0.172
109888,1755598410334,67.24,-63.67,-4.72,770,765,812,869,848,50.0,-0.924,-0.348,0.172
109918,1755598410364,67.26,-63.68,-4.72,776,774,815,870,850,33.333333333333336,-0.925,-0.347,0.173
109947,1755598410394,67.25,-63.66,-4.71,770,769,823,871,845,34.48275862068966,-0.925,-0.347,0.173
109977,1755598410423,67.26,-63.66,-4.72,764,766,816,869,849,33.333333333333336,-0.924,-0.346,0.173
110006,1755598410453,67.27,-63.64,-4.73,772,768,813,874,844,34.48275862068966,-0.924,-0.347,0.172
110036,1755598410482,67.27,-63.66,-4.73,769,768,807,870,847,33.333333333333336,-0.925,-0.348,0.172
110065,1755598410512,67.28,-63.66,-4.73,766,770,814,871,847,34.48275862068966,-0.924,-0.347,0.172
110095,1755598410541,67.27,-63.67,-4.74,764,765,816,878,846,33.333333333333336,-0.924,-0.347,0.172
110125,1755598410571,67.27,-63.66,-4.75,771,773,813,871,853,33.333333333333336,-0.924,-0.347,0.171
110154,1755598410600,67.28,-63.67,-4.75,771,770,821,869,851,34.48275862068966,-0.925,-0.348,0.171
110184,1755598410630,67.29,-63.67,-4.76,774,770,811,874,847,33.333333333333336,-0.924,-0.348,0.171
110213,1755598410659,67.3,-63.67,-4.76,768,772,810,869,851,34.48275862068966,-0.925,-0.348,0.172
110243,1755598410689,67.28,-63.68,-4.76,770,766,813,874,847,33.333333333333336,-0.925,-0.348,0.171
110272,1755598410719,67.29,-63.69,-4.76,769,766,813,872,843,34.48275862068966,-0.925,-0.348,0.171
110302,1755598410748,67.29,-63.7,-4.76,765,769,813,869,839,33.333333333333336,-0.924,-0.348,0.17
110331,1755598410778,67.27,-63.71,-4.77,769,764,814,871,853,34.48275862068966,-0.924,-0.348,0.168
110361,1755598410808,67.29,-63.72,-4.77,770,772,817,874,847,33.333333333333336,-0.925,-0.349,0.168
110391,1755598410837,67.28,-63.72,-4.76,764,766,815,876,856,33.333333333333336,-0.926,-0.349,0.17
110420,1755598410867,67.29,-63.72,-4.75,770,778,815,868,844,34.48275862068966,-0.924,-0.348,0.171
110450,1755598410897,67.28,-63.71,-4.76,770,769,812,871,853,33.333333333333336,-0.924,-0.347,0.171
110480,1755598410926,67.27,-63.7,-4.76,766,767,817,872,842,33.333333333333336,-0.925,-0.348,0.169
110509,1755598410956,67.3,-63.72,-4.77,769,764,814,883,881,34.48275862068966,-0.925,-0.348,0.167
110539,1755598410985,67.27,-63.74,-4.77,764,770,813,868,845,33.333333333333336,-0.924,-0.35,0.166
110568,1755598411015,67.25,-63.77,-4.76,771,768,817,874,848,34.48275862068966,-0.924,-0.349,0.167
110598,1755598411044,67.24,-63.78,-4.76,773,768,815,873,844,33.333333333333336,-0.925,-0.348,0.17
110628,1755598411075,67.25,-63.77,-4.76,771,764,817,871,837,33.333333333333336,-0.925,-0.348,0.171
110648,1755598411094,67.26,-63.76,-4.76,772,765,814,874,855,50.0,-0.924,-0.348,0.17
110678,1755598411124,67.24,-63.77,-4.76,768,770,812,868,849,33.333333333333336,-0.924,-0.349,0.168
110707,1755598411154,67.22,-63.78,-4.76,765,771,820,875,841,34.48275862068966,-0.924,-0.349,0.167
110737,1755598411183,67.25,-63.8,-4.75,771,769,813,879,847,33.333333333333336,-0.925,-0.349,0.17
110766,1755598411213,67.23,-63.79,-4.74,772,767,814,874,844,34.48275862068966,-0.924,-0.348,0.171
