timestamp_ms,recv_timestamp_ms,pitch,roll,yaw,flex1,flex2,flex3,flex4,flex5,sampling_hz,accel_x,accel_y,accel_z
163121,1755602235507,19.67,63.23,60.02,775,779,780,415,814,33.333333333333336,-0.343,0.83,0.452
163151,1755602235509,19.66,63.24,60.06,777,773,775,386,820,33.333333333333336,-0.341,0.831,0.451
163180,1755602235511,19.66,63.23,60.06,778,774,780,338,817,34.48275862068966,-0.34,0.831,0.451
163210,1755602235513,19.65,63.23,60.09,778,787,785,357,822,33.333333333333336,-0.34,0.832,0.452
163240,1755602235516,19.66,63.26,60.08,779,781,789,405,822,33.333333333333336,-0.339,0.832,0.452
163270,1755602235518,19.66,63.26,60.08,779,776,775,403,820,33.333333333333336,-0.34,0.83,0.45
163300,1755602235520,19.66,63.23,60.1,774,778,774,356,821,33.333333333333336,-0.341,0.83,0.451
163329,1755602235522,19.67,63.23,60.11,774,781,784,348,815,34.48275862068966,-0.342,0.831,0.452
163359,1755602235524,19.69,63.26,60.13,777,781,782,369,816,33.333333333333336,-0.341,0.832,0.452
163389,1755602235526,19.69,63.26,60.16,780,785,777,408,823,33.333333333333336,-0.34,0.831,0.45
163418,1755602235528,19.68,63.24,60.16,773,777,775,385,819,34.48275862068966,-0.339,0.831,0.45
163448,1755602235530,19.68,63.25,60.15,777,781,787,334,820,33.333333333333336,-0.34,0.832,0.451
163478,1755602235532,19.7,63.26,60.16,775,779,783,326,819,33.333333333333336,-0.342,0.831,0.451
163508,1755602235534,19.71,63.24,60.18,778,775,782,395,812,33.333333333333336,-0.342,0.83,0.45
163537,1755602235536,19.72,63.25,60.2,768,776,784,421,816,34.48275862068966,-0.341,0.831,0.45
163567,1755602235538,19.74,63.28,60.2,780,780,783,377,819,33.333333333333336,-0.34,0.832,0.45
163597,1755602235540,19.74,63.31,60.2,780,781,780,325,821,33.333333333333336,-0.339,0.832,0.449
163627,1755602235543,19.72,63.28,60.19,775,774,779,344,821,33.333333333333336,-0.339,0.83,0.449
163647,1755602235545,19.71,63.25,60.19,781,774,783,319,831,50.0,-0.34,0.831,0.449
163677,1755602235547,19.71,63.7,60.2,776,774,776,347,821,33.333333333333336,-0.341,0.831,0.451
163707,1755602235549,19.73,63.73,60.2,774,779,774,425,820,33.333333333333336,-0.342,0.832,0.45
163736,1755602235551,19.72,63.72,60.22,775,781,782,406,825,34.48275862068966,-0.341,0.83,0.449
163766,1755602235553,19.71,63.68,60.23,773,781,784,355,819,33.333333333333336,-0.342,0.83,0.448
163796,1755602235554,19.7,63.67,60.25,779,778,778,349,812,33.333333333333336,-0.342,0.832,0.449
163816,1755602235557,19.71,63.66,60.26,777,783,781,375,821,50.0,-0.342,0.832,0.45
163845,1755602235559,19.72,63.68,60.27,778,783,779,344,820,34.48275862068966,-0.34,0.832,0.449
163875,1755602235561,19.7,63.64,60.27,770,782,778,385,824,33.333333333333336,-0.34,0.831,0.447
163905,1755602235563,19.7,63.6,60.26,780,789,784,424,822,33.333333333333336,-0.34,0.83,0.449
163935,1755602235565,19.71,63.59,60.24,779,784,783,393,818,33.333333333333336,-0.343,0.831,0.451
163965,1755602235568,19.72,63.59,60.25,774,773,775,329,820,33.333333333333336,-0.344,0.83,0.451
163994,1755602235569,19.74,63.59,60.25,774,778,787,332,818,34.48275862068966,-0.344,0.83,0.45
164014,1755602235572,19.75,63.57,60.25,778,775,781,354,821,50.0,-0.344,0.83,0.45
164044,1755602235573,19.76,63.58,60.28,776,775,782,361,814,33.333333333333336,-0.342,0.831,0.45
164074,1755602235576,19.77,63.58,60.27,778,771,781,423,820,33.333333333333336,-0.339,0.832,0.449
164103,1755602235578,19.78,63.57,60.23,779,787,782,408,822,34.48275862068966,-0.339,0.831,0.448
164133,1755602235580,19.77,63.56,60.22,778,779,780,362,820,33.333333333333336,-0.343,0.83,0.449
164163,1755602235582,19.78,63.57,60.24,773,782,777,335,813,33.333333333333336,-0.345,0.83,0.451
164192,1755602235584,19.81,63.56,60.26,773,780,782,370,815,34.48275862068966,-0.345,0.828,0.451
164222,1755602235586,19.85,63.6,60.26,774,774,785,404,817,33.333333333333336,-0.345,0.83,0.45
164252,1755602235588,19.87,63.62,60.27,780,780,782,389,819,33.333333333333336,-0.343,0.83,0.449
164281,1755602235590,19.86,63.63,60.3,777,785,785,321,817,34.48275862068966,-0.341,0.83,0.449
164311,1755602235592,19.84,63.61,60.27,777,781,782,347,816,33.333333333333336,-0.341,0.83,0.447
164341,1755602235594,19.82,63.59,60.27,778,775,777,409,824,33.333333333333336,-0.344,0.83,0.449
164370,1755602235596,19.83,63.61,60.28,778,781,783,424,811,34.48275862068966,-0.346,0.831,0.451
164400,1755602235598,19.84,63.64,60.32,778,778,781,373,815,33.333333333333336,-0.346,0.83,0.448
164430,1755602235601,19.82,63.6,60.34,780,782,785,328,815,33.333333333333336,-0.344,0.829,0.446
164459,1755602235602,19.8,63.55,60.35,776,770,775,368,827,34.48275862068966,-0.343,0.83,0.447
164489,1755602235605,19.79,63.55,60.36,775,780,776,411,814,33.333333333333336,-0.344,0.831,0.45
164519,1755602235607,19.8,63.57,60.38,774,773,778,403,820,33.333333333333336,-0.345,0.833,0.45
164549,1755602235608,19.81,63.58,60.39,777,776,783,338,817,33.333333333333336,-0.345,0.831,0.448
164578,1755602235610,19.82,63.53,60.37,774,777,776,323,817,34.48275862068966,-0.345,0.83,0.447
164608,1755602235612,19.81,63.53,60.42,776,779,781,373,817,33.333333333333336,-0.347,0.833,0.449
164638,1755602235614,19.82,63.55,60.44,777,779,781,415,820,33.333333333333336,-0.346,0.832,0.45
164667,1755602235616,19.82,63.52,60.45,780,780,781,370,819,34.48275862068966,-0.343,0.83,0.449
164697,1755602235618,19.8,63.51,60.46,772,776,785,336,823,33.333333333333336,-0.344,0.831,0.449
164717,1755602235620,19.81,63.49,60.46,771,781,792,403,831,50.0,-0.345,0.831,0.451
164747,1755602235622,19.81,63.49,60.48,779,784,780,346,813,33.333333333333336,-0.345,0.83,0.45
164777,1755602235624,19.8,63.49,60.52,783,774,780,369,819,33.333333333333336,-0.344,0.83,0.449
164806,1755602235626,19.79,63.47,60.54,780,780,779,435,819,34.48275862068966,-0.343,0.83,0.449
164836,1755602235629,19.78,63.47,60.56,776,778,784,424,819,33.333333333333336,-0.343,0.831,0.449
164866,1755602235630,19.79,63.48,60.57,777,783,777,343,821,33.333333333333336,-0.343,0.832,0.45
164895,1755602235632,19.79,63.48,60.57,777,785,783,342,820,34.48275862068966,-0.342,0.831,0.449
164925,1755602235634,19.78,63.47,60.58,781,778,782,376,815,33.333333333333336,-0.343,0.831,0.449
164955,1755602235636,19.77,63.45,60.61,779,785,784,423,820,33.333333333333336,-0.343,0.831,0.449
164985,1755602235638,19.78,63.47,60.62,777,779,771,399,828,33.333333333333336,-0.342,0.832,0.449
165014,1755602235641,19.78,63.47,60.62,777,783,783,334,814,34.48275862068966,-0.342,0.831,0.449
165044,1755602235642,19.78,63.45,60.63,779,770,780,340,819,33.333333333333336,-0.342,0.83,0.449
165074,1755602235645,19.78,63.43,60.64,781,779,785,394,817,33.333333333333336,-0.343,0.831,0.45
165104,1755602235647,19.79,63.44,60.67,776,771,777,399,823,33.333333333333336,-0.343,0.83,0.45
165134,1755602235649,19.8,63.45,60.69,779,783,783,350,819,33.333333333333336,-0.343,0.831,0.449
165164,1755602235651,19.81,63.44,60.71,778,777,784,328,819,33.333333333333336,-0.342,0.83,0.449
165193,1755602235653,19.8,63.43,60.73,781,780,782,352,819,34.48275862068966,-0.341,0.831,0.448
165223,1755602235655,19.8,63.44,60.73,779,780,777,408,819,33.333333333333336,-0.341,0.831,0.449
165253,1755602235657,19.8,63.44,60.75,775,772,782,422,824,33.333333333333336,-0.342,0.83,0.45
165283,1755602235659,19.81,63.44,60.76,768,782,786,316,817,33.333333333333336,-0.342,0.831,0.448
165313,1755602235661,19.81,63.44,60.77,775,779,775,322,817,33.333333333333336,-0.342,0.831,0.448
165342,1755602235663,19.8,63.42,60.78,772,779,776,374,818,34.48275862068966,-0.341,0.831,0.448
165372,1755602235665,19.78,63.4,60.78,778,775,782,419,812,33.333333333333336,-0.341,0.831,0.45
165402,1755602235667,19.78,63.43,60.79,777,780,783,399,812,33.333333333333336,-0.341,0.831,0.45
165432,1755602235670,19.77,63.43,60.81,777,779,778,341,823,33.333333333333336,-0.341,0.831,0.448
165452,1755602235671,19.76,63.4,60.81,773,779,784,416,814,50.0,-0.34,0.83,0.446
165482,1755602235674,19.76,63.38,60.81,782,776,791,339,821,33.333333333333336,-0.341,0.83,0.448
165511,1755602235675,19.76,63.38,60.82,776,787,779,350,816,34.48275862068966,-0.342,0.831,0.45
165541,1755602235677,19.76,63.39,60.82,778,771,783,393,812,33.333333333333336,-0.341,0.83,0.45
165571,1755602235680,19.76,63.38,60.81,774,774,784,399,822,33.333333333333336,-0.342,0.831,0.449
165600,1755602235682,19.77,63.37,60.82,780,779,783,371,819,34.48275862068966,-0.342,0.83,0.449
165630,1755602235684,19.78,63.36,60.83,777,787,781,329,821,33.333333333333336,-0.342,0.83,0.45
165660,1755602235686,19.79,63.36,60.83,775,777,785,361,818,33.333333333333336,-0.342,0.831,0.45
165690,1755602235687,19.8,63.38,60.83,781,780,786,416,821,33.333333333333336,-0.342,0.831,0.449
165719,1755602235690,19.8,63.37,60.85,779,778,783,363,815,34.48275862068966,-0.343,0.83,0.45
165749,1755602235692,19.79,63.37,60.88,781,778,783,313,816,33.333333333333336,-0.343,0.83,0.45
165778,1755602235694,19.79,63.38,60.89,778,774,781,317,819,34.48275862068966,-0.343,0.831,0.45
165799,1755602235696,19.79,63.38,60.9,781,785,776,372,819,47.61904761904762,-0.343,0.831,0.45
165819,1755602235698,19.79,63.38,60.93,770,780,780,441,821,50.0,-0.343,0.831,0.45
165848,1755602235700,19.8,63.39,60.94,779,778,781,346,820,34.48275862068966,-0.341,0.831,0.449
165878,1755602235702,19.79,63.38,60.94,773,772,784,355,818,33.333333333333336,-0.341,0.83,0.448
165908,1755602235704,19.79,63.36,60.94,778,782,781,415,822,33.333333333333336,-0.342,0.83,0.449
165937,1755602235706,19.79,63.36,60.95,779,782,777,423,821,34.48275862068966,-0.343,0.83,0.45
165967,1755602235708,19.8,63.37,60.98,775,786,785,388,813,33.333333333333336,-0.343,0.83,0.45
165997,1755602235710,19.81,63.37,61.0,778,784,777,328,817,33.333333333333336,-0.342,0.831,0.448
166027,1755602235712,19.8,63.34,61.01,773,777,780,344,821,33.333333333333336,-0.341,0.83,0.448
166047,1755602235713,19.81,63.31,61.01,777,774,782,354,820,50.0,-0.342,0.83,0.45
166067,1755602235716,19.81,63.3,61.02,774,778,781,414,818,50.0,-0.343,0.831,0.452
166097,1755602235717,19.83,63.33,61.04,778,781,780,319,811,33.333333333333336,-0.344,0.831,0.451
166126,1755602235720,19.84,63.32,61.06,780,773,779,352,825,34.48275862068966,-0.342,0.83,0.449
166147,1755602235721,19.83,63.29,61.07,771,776,782,351,818,47.61904761904762,-0.341,0.831,0.448
166176,1755602235724,19.82,63.27,61.08,775,788,791,358,821,34.48275862068966,-0.341,0.832,0.449
166206,1755602235726,19.83,63.28,61.09,780,772,781,407,815,33.333333333333336,-0.341,0.832,0.451
166236,1755602235727,19.84,63.29,61.1,776,776,780,401,818,33.333333333333336,-0.341,0.831,0.45
166266,1755602235730,19.83,63.28,61.11,779,784,785,351,817,33.333333333333336,-0.341,0.83,0.449
166295,1755602235731,19.83,63.27,61.11,775,778,776,350,816,34.48275862068966,-0.342,0.831,0.45
166325,1755602235734,19.82,63.28,61.13,774,781,781,383,822,33.333333333333336,-0.343,0.831,0.45
166355,1755602235736,19.83,63.27,61.14,780,776,774,422,813,33.333333333333336,-0.343,0.83,0.45
166385,1755602235737,19.83,63.28,61.16,774,785,776,410,817,33.333333333333336,-0.342,0.831,0.45
166415,1755602235740,19.83,63.28,61.16,776,780,780,355,811,33.333333333333336,-0.342,0.831,0.45
166445,1755602235742,19.83,63.27,61.17,780,783,779,348,818,33.333333333333336,-0.342,0.83,0.45
166475,1755602235743,19.83,63.26,61.17,778,784,779,406,820,33.333333333333336,-0.342,0.83,0.451
166504,1755602235745,19.83,63.27,61.18,780,768,785,417,837,34.48275862068966,-0.342,0.831,0.452
166534,1755602235747,19.84,63.29,61.18,779,777,781,396,825,33.333333333333336,-0.343,0.83,0.451
166564,1755602235750,19.84,63.29,61.18,770,784,779,331,820,33.333333333333336,-0.343,0.83,0.451
166594,1755602235752,19.84,63.27,61.19,774,775,779,343,814,33.333333333333336,-0.342,0.83,0.45
166624,1755602235754,19.84,63.28,61.2,774,779,784,419,820,33.333333333333336,-0.343,0.83,0.451
166653,1755602235756,19.85,63.28,61.19,778,782,780,408,822,34.48275862068966,-0.342,0.83,0.451
166683,1755602235758,19.85,63.3,61.17,777,786,784,373,817,33.333333333333336,-0.342,0.831,0.45
166713,1755602235760,19.85,63.3,61.17,779,779,781,300,815,33.333333333333336,-0.342,0.831,0.45
166733,1755602235762,19.85,63.29,61.16,774,779,788,367,824,50.0,-0.342,0.83,0.45
166763,1755602235764,19.86,63.29,61.14,777,772,782,337,814,33.333333333333336,-0.344,0.83,0.449
166793,1755602235767,19.87,63.3,61.17,780,781,777,373,809,33.333333333333336,-0.345,0.829,0.45
166822,1755602235769,19.88,63.3,61.17,777,782,786,430,822,34.48275862068966,-0.345,0.829,0.451
166852,1755602235771,19.89,63.32,61.18,774,780,779,406,821,33.333333333333336,-0.344,0.83,0.451
166882,1755602235773,19.88,63.38,61.18,777,788,778,345,815,33.333333333333336,-0.346,0.831,0.45
166912,1755602235775,19.85,63.49,61.21,775,772,780,327,817,33.333333333333336,-0.345,0.831,0.452
166942,1755602235777,19.86,63.65,61.18,776,786,782,372,820,33.333333333333336,-0.345,0.832,0.451
166972,1755602235779,19.89,63.77,61.16,776,781,781,401,819,33.333333333333336,-0.345,0.831,0.448
167002,1755602235781,19.93,63.75,61.16,781,787,784,399,818,33.333333333333336,-0.342,0.83,0.443
167031,1755602235782,19.97,63.66,61.13,786,775,799,348,817,34.48275862068966,-0.346,0.83,0.443
167061,1755602235785,19.98,63.71,61.18,782,778,783,344,832,33.333333333333336,-0.348,0.831,0.444
167091,1755602235786,19.98,63.75,61.29,782,780,782,403,818,33.333333333333336,-0.348,0.831,0.444
167121,1755602235788,20.01,63.73,61.31,786,779,777,413,823,33.333333333333336,-0.347,0.83,0.443
167151,1755602235790,20.08,63.72,61.33,791,780,778,388,821,33.333333333333336,-0.347,0.833,0.442
167171,1755602235792,20.1,63.66,61.36,787,776,784,413,818,50.0,-0.344,0.834,0.441
167201,1755602235794,20.14,63.64,61.31,796,779,782,392,825,33.333333333333336,-0.345,0.835,0.443
167230,1755602235796,20.21,63.61,61.24,796,785,781,338,822,34.48275862068966,-0.343,0.835,0.444
167260,1755602235798,20.25,63.51,61.21,791,782,779,353,814,33.333333333333336,-0.345,0.835,0.443
167290,1755602235800,20.37,63.4,61.16,797,781,781,421,820,33.333333333333336,-0.348,0.832,0.443
167320,1755602235802,20.47,63.32,61.1,797,776,780,420,819,33.333333333333336,-0.35,0.833,0.443
167350,1755602235804,20.63,63.18,61.06,801,780,782,368,823,33.333333333333336,-0.356,0.832,0.446
167380,1755602235806,20.83,62.93,61.06,806,779,781,324,822,33.333333333333336,-0.361,0.832,0.444
167409,1755602235808,20.95,62.73,61.08,805,775,786,348,822,34.48275862068966,-0.358,0.827,0.446
167439,1755602235810,21.08,62.57,61.05,809,781,781,422,819,33.333333333333336,-0.357,0.826,0.448
167469,1755602235812,21.27,62.4,61.01,811,778,779,399,818,33.333333333333336,-0.359,0.824,0.451
167498,1755602235814,21.39,62.4,61.02,810,771,783,340,817,34.48275862068966,-0.359,0.823,0.453
167528,1755602235816,21.53,62.39,60.96,811,779,780,334,816,33.333333333333336,-0.362,0.822,0.453
167558,1755602235818,21.66,62.31,60.9,812,775,784,398,824,33.333333333333336,-0.36,0.821,0.451
167588,1755602235821,21.72,62.35,60.88,814,778,782,422,819,33.333333333333336,-0.363,0.818,0.453
167617,1755602235822,21.79,62.37,60.84,814,778,778,382,819,34.48275862068966,-0.364,0.82,0.453
167647,1755602235825,21.9,62.32,60.82,815,776,783,318,812,33.333333333333336,-0.367,0.817,0.454
167667,1755602235826,21.91,62.31,60.82,816,775,782,410,820,50.0,-0.367,0.815,0.454
167697,1755602235828,21.89,62.35,60.85,812,782,787,338,813,33.333333333333336,-0.368,0.815,0.454
167727,1755602235830,21.86,62.37,60.88,817,773,777,368,817,33.333333333333336,-0.369,0.818,0.452
167747,1755602235833,21.87,62.36,60.9,813,780,787,357,816,50.0,-0.37,0.817,0.451
167767,1755602235835,21.86,62.33,60.93,818,779,783,418,820,50.0,-0.372,0.815,0.451
167796,1755602235837,21.87,62.35,61.0,823,783,779,350,817,34.48275862068966,-0.373,0.816,0.453
167826,1755602235839,21.87,62.4,61.05,815,790,787,374,817,33.333333333333336,-0.374,0.817,0.454
167856,1755602235841,21.85,62.39,61.1,817,780,780,420,820,33.333333333333336,-0.374,0.818,0.451
167876,1755602235843,21.86,62.32,61.12,816,785,785,333,815,50.0,-0.37,0.816,0.449
167906,1755602235845,21.84,62.25,61.13,816,785,781,397,824,33.333333333333336,-0.371,0.815,0.45
167935,1755602235847,21.8,62.21,61.18,816,772,782,402,821,34.48275862068966,-0.373,0.815,0.453
167965,1755602235849,21.74,62.17,61.25,813,778,797,347,821,33.333333333333336,-0.375,0.815,0.45
167995,1755602235851,21.64,61.98,61.37,821,782,778,330,821,33.333333333333336,-0.369,0.811,0.45
168025,1755602235854,21.65,61.9,61.38,808,779,778,356,821,33.333333333333336,-0.365,0.812,0.455
168054,1755602235856,21.63,61.99,61.37,816,780,782,405,823,34.48275862068966,-0.368,0.82,0.461
168084,1755602235857,21.66,62.08,61.42,816,779,777,391,822,33.333333333333336,-0.368,0.817,0.465
168104,1755602235859,21.66,62.13,61.44,818,773,784,414,817,50.0,-0.365,0.815,0.461
168134,1755602235861,21.64,62.14,61.43,815,776,782,365,819,33.333333333333336,-0.364,0.815,0.458
168164,1755602235863,21.64,62.08,61.41,815,786,776,335,820,33.333333333333336,-0.368,0.816,0.458
168193,1755602235865,21.65,62.04,61.42,811,774,776,340,817,34.48275862068966,-0.37,0.816,0.461
168214,1755602235868,21.65,62.01,61.43,816,780,774,353,826,47.61904761904762,-0.37,0.816,0.462
168243,1755602235869,21.65,61.97,61.45,813,781,784,370,814,34.48275862068966,-0.371,0.817,0.462
168273,1755602235871,21.64,61.93,61.5,812,779,780,427,822,33.333333333333336,-0.371,0.816,0.463
168303,1755602235874,21.65,61.86,61.51,815,781,783,422,817,33.333333333333336,-0.37,0.816,0.464
168333,1755602235876,21.64,61.87,61.58,824,782,785,359,822,33.333333333333336,-0.371,0.813,0.465
168363,1755602235878,21.65,61.92,61.62,808,779,786,344,808,33.333333333333336,-0.372,0.813,0.467
168383,1755602235880,21.64,62.01,61.68,814,783,780,396,819,50.0,-0.371,0.813,0.468
168413,1755602235882,21.66,62.16,61.74,808,778,781,354,809,33.333333333333336,-0.368,0.815,0.466
168443,1755602235884,21.68,62.19,61.81,812,777,784,368,817,33.333333333333336,-0.363,0.813,0.462
168473,1755602235886,21.67,62.22,61.87,814,781,779,422,822,33.333333333333336,-0.362,0.816,0.459
168503,1755602235888,21.65,62.2,61.89,816,779,780,401,822,33.333333333333336,-0.359,0.816,0.46
168532,1755602235890,21.63,62.25,61.9,814,772,782,356,813,34.48275862068966,-0.361,0.817,0.463
168562177484,1755602235892,19.83,63.39,65.62,800,777,780,396,823,5.932534894531079e-09,-0.345,0.83,0.449
177514,1755602235894,19.84,63.41,65.63,800,777,780,327,818,1000.0,-0.345,0.83,0.448
177544,1755602235896,19.84,63.42,65.64,805,787,783,337,825,33.333333333333336,-0.346,0.83,0.447
177573,1755602235898,19.84,63.4,65.64,805,774,785,383,814,34.48275862068966,-0.346,0.83,0.446
177603,1755602235900,19.82,63.37,65.65,798,778,777,417,816,33.333333333333336,-0.346,0.829,0.447
177633,1755602235903,19.85,63.38,65.65,798,775,780,371,818,33.333333333333336,-0.347,0.831,0.449
177662,1755602235904,19.87,63.39,65.66,803,776,781,332,818,34.48275862068966,-0.346,0.831,0.449
177692,1755602235907,19.88,63.41,65.65,801,774,779,303,817,33.333333333333336,-0.346,0.83,0.447
177722,1755602235908,19.87,63.42,65.66,799,778,781,384,818,33.333333333333336,-0.347,0.83,0.447
177751,1755602235923,19.87,63.42,65.66,804,770,785,392,813,34.48275862068966,-0.346,0.83,0.447
177771,1755602235943,19.87,63.41,65.65,799,780,781,371,819,50.0,-0.345,0.829,0.448
177801,1755602235973,19.89,63.4,65.62,804,783,778,388,817,33.333333333333336,-0.347,0.83,0.447
177831,1755602236002,19.9,63.37,65.61,803,778,780,293,817,33.333333333333336,-0.349,0.829,0.447
177860,1755602236032,19.94,63.4,65.62,799,779,784,312,831,34.48275862068966,-0.35,0.829,0.448
177890,1755602236062,19.98,63.42,65.65,802,783,786,367,820,33.333333333333336,-0.351,0.83,0.447
177920,1755602236091,20.01,63.39,65.67,799,780,787,394,812,33.333333333333336,-0.35,0.828,0.445
177949,1755602236121,20.01,63.38,65.69,803,780,784,370,816,34.48275862068966,-0.348,0.83,0.447
177979,1755602236151,20.01,63.38,65.69,802,773,783,335,815,33.333333333333336,-0.348,0.831,0.448
177999,1755602236171,20.01,63.39,65.69,802,777,781,416,819,50.0,-0.347,0.831,0.447
178019,1755602236191,20.0,63.38,65.69,798,779,782,417,816,50.0,-0.346,0.83,0.445
178049,1755602236221,19.98,63.35,65.68,805,774,782,375,818,33.333333333333336,-0.348,0.829,0.445
178078,1755602236250,19.97,63.33,65.7,805,781,782,321,815,34.48275862068966,-0.349,0.829,0.447
178108,1755602236280,19.99,63.36,65.69,799,780,781,347,817,33.333333333333336,-0.35,0.83,0.449
178138,1755602236310,20.0,63.37,65.72,801,775,780,411,824,33.333333333333336,-0.349,0.829,0.447
178168,1755602236340,19.97,63.33,65.74,806,776,776,409,818,33.333333333333336,-0.348,0.828,0.446
178198,1755602236369,19.97,63.32,65.74,799,784,778,356,821,33.333333333333336,-0.349,0.83,0.448
178227,1755602236399,19.97,63.34,65.75,801,782,782,337,815,34.48275862068966,-0.35,0.83,0.45
178257,1755602236429,19.98,63.34,65.77,802,782,777,378,813,33.333333333333336,-0.35,0.829,0.449
178287,1755602236459,19.98,63.33,65.77,809,774,778,429,822,33.333333333333336,-0.35,0.829,0.448
178317,1755602236488,19.99,63.31,65.79,802,779,787,404,820,33.333333333333336,-0.35,0.828,0.449
178346,1755602236518,20.0,63.32,65.8,801,781,782,330,820,34.48275862068966,-0.35,0.829,0.449
178376,1755602236548,20.0,63.32,65.81,796,777,777,332,818,33.333333333333336,-0.35,0.829,0.449
178406,1755602236578,20.0,63.31,65.82,798,774,782,394,817,33.333333333333336,-0.349,0.827,0.45
178435,1755602236607,20.01,63.32,65.84,804,780,780,398,820,34.48275862068966,-0.35,0.828,0.45
178465,1755602236637,20.03,63.36,65.85,802,777,781,370,819,33.333333333333336,-0.35,0.828,0.45
178495,1755602236667,20.04,63.39,65.88,803,781,794,318,821,33.333333333333336,-0.35,0.828,0.449
178525,1755602236696,20.04,63.37,65.89,799,778,779,346,809,33.333333333333336,-0.349,0.828,0.448
178554,1755602236726,20.04,63.37,65.87,806,774,781,420,822,34.48275862068966,-0.348,0.829,0.448
178584,1755602236756,20.03,63.37,65.88,802,776,776,413,815,33.333333333333336,-0.349,0.83,0.449
178614,1755602236786,20.05,63.36,65.88,802,767,781,344,818,33.333333333333336,-0.349,0.829,0.448
178644,1755602236816,20.05,63.35,65.89,802,780,784,339,817,33.333333333333336,-0.35,0.828,0.447
178673,1755602236845,20.04,63.34,65.9,797,781,782,376,817,34.48275862068966,-0.351,0.827,0.448
178703,1755602236875,20.04,63.34,65.93,798,776,780,415,821,33.333333333333336,-0.352,0.829,0.449
178733,1755602236905,20.04,63.35,65.97,801,776,781,357,813,33.333333333333336,-0.35,0.829,0.449
178763,1755602236934,20.04,63.35,65.99,799,777,781,308,814,33.333333333333336,-0.347,0.829,0.448
178792,1755602236964,20.02,63.34,65.99,800,781,781,324,816,34.48275862068966,-0.346,0.829,0.448
178822,1755602236994,20.02,63.33,65.99,799,775,780,385,823,33.333333333333336,-0.348,0.83,0.449
178852,1755602237024,20.03,63.35,66.01,799,782,784,402,832,33.333333333333336,-0.35,0.829,0.45
178882,1755602237054,20.03,63.38,66.04,803,778,783,360,824,33.333333333333336,-0.351,0.828,0.449
178912,1755602237083,20.01,63.38,66.08,801,777,778,325,824,33.333333333333336,-0.348,0.829,0.447
178941,1755602237113,20.01,63.37,66.08,802,778,782,355,820,34.48275862068966,-0.347,0.83,0.448
178971,1755602237143,19.99,63.37,66.09,797,784,780,421,822,33.333333333333336,-0.347,0.829,0.449
179000,1755602237172,19.99,63.38,66.09,801,779,782,395,816,34.48275862068966,-0.347,0.829,0.449
179030,1755602237202,19.98,63.36,66.09,801,778,783,355,823,33.333333333333336,-0.348,0.829,0.448
179060,1755602237232,19.99,63.36,66.1,800,773,786,332,824,33.333333333333336,-0.35,0.829,0.448
179090,1755602237261,19.99,63.36,66.13,802,781,778,385,818,33.333333333333336,-0.35,0.829,0.449
179119,1755602237291,20.0,63.36,66.15,806,773,779,408,823,34.48275862068966,-0.35,0.829,0.448
179149,1755602237321,19.98,63.35,66.17,803,774,785,387,814,33.333333333333336,-0.347,0.829,0.448
179179,1755602237351,19.99,63.34,66.17,794,782,784,325,814,33.333333333333336,-0.347,0.831,0.448
179209,1755602237380,19.98,63.32,66.18,799,782,780,349,821,33.333333333333336,-0.347,0.83,0.448
179238,1755602237410,19.98,63.32,66.19,812,783,780,414,818,34.48275862068966,-0.347,0.828,0.449
179268,1755602237440,19.97,63.34,66.2,799,780,779,416,811,33.333333333333336,-0.349,0.829,0.45
179298,1755602237470,19.98,63.35,66.22,799,772,782,368,821,33.333333333333336,-0.348,0.829,0.449
179328,1755602237499,20.0,63.33,66.23,794,782,782,337,820,33.333333333333336,-0.348,0.828,0.448
179357,1755602237529,20.0,63.31,66.23,802,776,786,359,810,34.48275862068966,-0.348,0.829,0.449
179387,1755602237559,20.0,63.31,66.24,801,781,783,431,829,33.333333333333336,-0.348,0.829,0.449
179417,1755602237589,19.99,63.33,66.26,802,773,782,401,816,33.333333333333336,-0.348,0.829,0.449
179447,1755602237619,19.98,63.34,66.28,803,776,786,352,814,33.333333333333336,-0.349,0.83,0.449
179476,1755602237648,19.97,63.32,66.3,807,795,782,344,818,34.48275862068966,-0.349,0.829,0.449
179506,1755602237678,19.97,63.33,66.33,800,788,786,397,832,33.333333333333336,-0.349,0.83,0.45
179536,1755602237708,19.98,63.34,66.34,800,781,781,417,819,33.333333333333336,-0.348,0.829,0.45
179565,1755602237737,19.99,63.32,66.35,804,777,777,373,820,34.48275862068966,-0.346,0.828,0.448
179595,1755602237767,19.99,63.29,66.35,799,783,777,319,813,33.333333333333336,-0.346,0.829,0.448
179625,1755602237796,19.98,63.29,66.36,804,770,781,351,825,33.333333333333336,-0.347,0.831,0.45
179654,1755602237826,19.98,63.32,66.38,800,778,780,418,822,34.48275862068966,-0.347,0.83,0.45
179684,1755602237856,19.97,63.32,66.39,803,784,783,401,814,33.333333333333336,-0.346,0.828,0.448
179714,1755602237886,19.97,63.31,66.4,807,780,786,362,820,33.333333333333336,-0.346,0.829,0.448
179744,1755602237916,19.96,63.32,66.42,795,777,781,342,813,33.333333333333336,-0.346,0.829,0.45
179774,1755602237946,19.96,63.34,66.44,802,778,783,359,817,33.333333333333336,-0.346,0.83,0.45
179804,1755602237975,19.96,63.35,66.46,801,780,781,428,816,33.333333333333336,-0.346,0.829,0.449
179833,1755602238005,19.96,63.33,66.46,802,773,779,405,819,34.48275862068966,-0.346,0.829,0.449
179863,1755602238035,19.96,63.34,66.48,797,784,782,339,824,33.333333333333336,-0.346,0.829,0.45
179893,1755602238064,19.98,63.36,66.48,804,773,783,328,813,33.333333333333336,-0.346,0.829,0.451
179922,1755602238094,19.96,63.34,66.49,809,781,784,399,815,34.48275862068966,-0.345,0.829,0.449
179952,1755602238124,19.95,63.33,66.5,800,770,782,414,815,33.333333333333336,-0.345,0.829,0.448
179982,1755602238153,19.94,63.33,66.51,798,779,782,371,821,33.333333333333336,-0.346,0.83,0.45
180011,1755602238183,19.94,63.33,66.52,796,779,776,324,821,34.48275862068966,-0.346,0.829,0.451
180041,1755602238213,19.93,63.31,66.53,795,781,783,351,819,33.333333333333336,-0.346,0.828,0.45
180071,1755602238243,19.91,63.27,66.54,798,774,783,427,818,33.333333333333336,-0.346,0.828,0.45
180091,1755602238263,19.91,63.24,66.56,799,778,776,349,819,50.0,-0.347,0.829,0.452
180120,1755602238292,19.93,63.26,66.59,803,778,780,416,820,34.48275862068966,-0.347,0.83,0.454
180150,1755602238322,19.96,63.27,66.6,800,779,780,412,823,33.333333333333336,-0.345,0.829,0.452
180180,1755602238352,19.94,63.26,66.61,804,774,783,352,818,33.333333333333336,-0.343,0.829,0.45
180209,1755602238381,19.92,63.22,66.61,799,772,777,345,818,34.48275862068966,-0.343,0.829,0.451
180239,1755602238411,19.93,63.22,66.6,801,777,791,407,811,33.333333333333336,-0.344,0.83,0.453
180269,1755602238440,19.93,63.23,66.62,800,781,781,414,813,33.333333333333336,-0.345,0.83,0.451
180298,1755602238470,19.93,63.2,66.63,804,778,779,370,819,34.48275862068966,-0.344,0.828,0.45
180328,1755602238500,19.91,63.18,66.64,794,780,782,339,813,33.333333333333336,-0.345,0.828,0.451
180358,1755602238530,19.91,63.2,66.65,795,776,777,359,817,33.333333333333336,-0.346,0.829,0.453
180388,1755602238560,19.92,63.22,66.66,803,774,774,418,816,33.333333333333336,-0.345,0.829,0.453
180417,1755602238589,19.93,63.24,66.67,798,772,787,408,823,34.48275862068966,-0.344,0.829,0.451
180447,1755602238619,19.94,63.23,66.68,794,779,781,349,824,33.333333333333336,-0.344,0.829,0.451
180467,1755602238639,19.95,63.21,66.69,790,782,780,415,811,50.0,-0.345,0.828,0.452
180497,1755602238669,19.95,63.21,66.68,802,777,778,353,821,33.333333333333336,-0.345,0.829,0.451
180527,1755602238699,19.95,63.21,66.7,800,771,775,327,822,33.333333333333336,-0.346,0.828,0.451
180556,1755602238728,19.95,63.18,66.73,792,779,782,370,823,34.48275862068966,-0.345,0.827,0.451
180586,1755602238758,19.95,63.19,66.73,796,779,776,427,842,33.333333333333336,-0.345,0.83,0.45
180616,1755602238787,19.94,63.21,66.73,804,784,780,392,817,33.333333333333336,-0.346,0.829,0.451
180645,1755602238817,19.91,63.18,66.76,797,774,780,343,814,34.48275862068966,-0.347,0.827,0.452
180675,1755602238847,19.91,63.16,66.79,793,776,784,355,814,33.333333333333336,-0.348,0.828,0.452
180705,1755602238877,19.93,63.18,66.82,799,772,782,408,818,33.333333333333336,-0.348,0.828,0.453
