timestamp_ms,recv_timestamp_ms,pitch,roll,yaw,flex1,flex2,flex3,flex4,flex5,sampling_hz,accel_x,accel_y,accel_z
104038,1755607761212,27.18,-68.33,-27.67,786,778,836,354,862,34.48275862068966,-0.451,-0.825,0.324
104068,1755607761214,27.19,-68.34,-27.67,792,775,832,357,860,33.333333333333336,-0.45,-0.825,0.327
104097,1755607761217,27.2,-68.34,-27.69,789,776,835,402,862,34.48275862068966,-0.449,-0.825,0.329
104127,1755607761219,27.19,-68.27,-27.72,791,768,833,392,864,33.333333333333336,-0.448,-0.826,0.326
104157,1755607761221,27.22,-68.29,-27.72,790,772,828,360,862,33.333333333333336,-0.451,-0.828,0.323
104186,1755607761223,27.26,-68.33,-27.7,791,774,828,343,862,34.48275862068966,-0.452,-0.826,0.323
104216,1755607761225,27.27,-68.33,-27.69,785,774,830,396,883,33.333333333333336,-0.452,-0.826,0.325
104246,1755607761227,27.25,-68.33,-27.71,787,769,835,394,866,33.333333333333336,-0.449,-0.825,0.325
104275,1755607761229,27.29,-68.32,-27.72,788,783,834,370,864,34.48275862068966,-0.449,-0.826,0.324
104305,1755607761231,27.28,-68.32,-27.72,791,773,832,339,859,33.333333333333336,-0.451,-0.828,0.323
104335,1755607761233,27.25,-68.32,-27.72,791,773,827,313,859,33.333333333333336,-0.451,-0.828,0.322
104364,1755607761235,27.25,-68.33,-27.72,790,777,832,388,861,34.48275862068966,-0.451,-0.827,0.323
104394,1755607761237,27.24,-68.31,-27.72,791,773,833,376,858,33.333333333333336,-0.451,-0.826,0.324
104423,1755607761239,27.21,-68.32,-27.73,787,776,834,346,856,34.48275862068966,-0.452,-0.827,0.323
104453,1755607761241,27.21,-68.34,-27.72,788,776,830,351,865,33.333333333333336,-0.452,-0.827,0.323
104483,1755607761244,27.22,-68.34,-27.71,787,773,832,369,864,33.333333333333336,-0.451,-0.827,0.323
104512,1755607761246,27.18,-68.35,-27.72,788,770,833,399,865,34.48275862068966,-0.451,-0.826,0.323
104542,1755607761248,27.16,-68.35,-27.72,792,777,834,371,860,33.333333333333336,-0.451,-0.827,0.322
104571,1755607761250,27.14,-68.4,-27.71,788,766,834,342,858,34.48275862068966,-0.452,-0.828,0.322
104601,1755607761252,27.01,-68.52,-27.76,785,779,832,355,860,33.333333333333336,-0.449,-0.826,0.32
104630,1755607761254,26.92,-68.65,-27.81,789,768,831,391,865,34.48275862068966,-0.449,-0.825,0.321
104660,1755607761256,26.87,-68.68,-27.85,794,777,833,386,861,33.333333333333336,-0.449,-0.826,0.322
104689,1755607761258,26.83,-68.68,-27.87,790,779,831,354,851,34.48275862068966,-0.45,-0.829,0.325
104719,1755607761260,26.88,-68.65,-27.85,791,777,832,361,855,33.333333333333336,-0.45,-0.83,0.326
104749,1755607761262,26.9,-68.64,-27.84,791,775,844,390,857,33.333333333333336,-0.448,-0.829,0.323
104778,1755607761264,26.9,-68.63,-27.84,785,775,827,411,855,34.48275862068966,-0.449,-0.829,0.32
104808,1755607761266,26.91,-68.62,-27.83,787,779,832,372,869,33.333333333333336,-0.449,-0.829,0.321
104838,1755607761268,26.92,-68.6,-27.83,785,780,834,340,863,33.333333333333336,-0.448,-0.828,0.321
104867,1755607761270,26.93,-68.6,-27.84,787,774,836,360,860,34.48275862068966,-0.447,-0.829,0.322
104897,1755607761272,26.93,-68.59,-27.84,791,768,831,392,860,33.333333333333336,-0.447,-0.828,0.322
104927,1755607761273,26.93,-68.59,-27.85,791,774,830,400,860,33.333333333333336,-0.449,-0.829,0.322
104957,1755607761276,26.87,-68.6,-27.86,790,770,836,370,863,33.333333333333336,-0.448,-0.829,0.32
104987,1755607761278,26.91,-68.62,-27.84,792,773,835,311,868,33.333333333333336,-0.448,-0.829,0.321
105016,1755607761280,26.92,-68.61,-27.85,789,778,833,365,861,34.48275862068966,-0.446,-0.828,0.323
105046,1755607761282,26.91,-68.56,-27.87,789,776,832,387,865,33.333333333333336,-0.447,-0.83,0.324
105075,1755607761285,26.92,-68.55,-27.87,791,775,827,373,864,34.48275862068966,-0.448,-0.83,0.322
105105,1755607761286,26.96,-68.58,-27.84,789,778,828,338,867,33.333333333333336,-0.449,-0.829,0.321
105134,1755607761289,26.95,-68.58,-27.84,788,779,834,365,861,34.48275862068966,-0.447,-0.828,0.321
105164,1755607761292,26.93,-68.58,-27.86,790,773,825,408,860,33.333333333333336,-0.446,-0.828,0.323
105194,1755607761294,26.96,-68.56,-27.87,790,769,833,394,854,33.333333333333336,-0.446,-0.829,0.323
105223,1755607761296,26.95,-68.58,-27.87,790,770,832,344,854,34.48275862068966,-0.448,-0.83,0.321
105253,1755607761298,26.97,-68.61,-27.86,788,779,828,345,860,33.333333333333336,-0.449,-0.829,0.322
105283,1755607761300,26.96,-68.56,-27.86,785,773,831,392,861,33.333333333333336,-0.448,-0.829,0.321
105312,1755607761301,26.94,-68.59,-27.87,781,766,833,368,858,34.48275862068966,-0.448,-0.829,0.32
105342,1755607761303,26.95,-68.64,-27.88,788,771,834,351,863,33.333333333333336,-0.448,-0.829,0.32
105371,1755607761305,26.97,-68.63,-27.87,788,769,832,342,863,34.48275862068966,-0.448,-0.829,0.321
105401,1755607761307,26.95,-68.61,-27.88,789,780,832,351,864,33.333333333333336,-0.449,-0.83,0.321
105430,1755607761309,26.95,-68.61,-27.89,788,778,825,393,859,34.48275862068966,-0.447,-0.83,0.319
105460,1755607761311,26.95,-68.65,-27.9,789,765,831,395,860,33.333333333333336,-0.447,-0.83,0.319
105480,1755607761313,26.96,-68.65,-27.9,790,772,830,401,859,50.0,-0.448,-0.831,0.32
105510,1755607761315,26.96,-68.64,-27.89,791,778,834,375,860,33.333333333333336,-0.448,-0.831,0.321
105540,1755607761317,26.93,-68.61,-27.88,787,776,837,357,861,33.333333333333336,-0.447,-0.83,0.321
105569,1755607761319,26.92,-68.61,-27.9,791,779,831,352,864,34.48275862068966,-0.445,-0.826,0.319
105599,1755607761321,26.88,-68.63,-27.93,790,770,834,406,865,33.333333333333336,-0.449,-0.828,0.32
105629,1755607761323,26.89,-68.64,-27.93,789,772,834,408,862,33.333333333333336,-0.449,-0.828,0.322
105658,1755607761325,26.87,-68.6,-27.96,794,781,833,382,865,34.48275862068966,-0.447,-0.825,0.321
105688,1755607761327,26.85,-68.57,-27.96,782,777,833,342,863,33.333333333333336,-0.45,-0.828,0.321
105718,1755607761329,26.82,-68.59,-27.96,791,773,833,352,865,33.333333333333336,-0.449,-0.827,0.318
105747,1755607761331,26.83,-68.6,-27.97,789,771,833,383,859,34.48275862068966,-0.45,-0.828,0.319
105777,1755607761333,26.77,-68.64,-27.99,792,780,825,389,859,33.333333333333336,-0.448,-0.827,0.32
105806,1755607761335,26.78,-68.6,-28.01,792,774,827,343,871,34.48275862068966,-0.447,-0.827,0.322
105836,1755607761337,26.78,-68.61,-28.03,784,780,832,341,860,33.333333333333336,-0.448,-0.829,0.322
105865,1755607761339,26.8,-68.6,-28.02,790,769,836,387,861,34.48275862068966,-0.449,-0.83,0.322
105895,1755607761341,26.82,-68.59,-28.0,788,773,836,409,863,33.333333333333336,-0.448,-0.83,0.322
105925,1755607761343,26.82,-68.59,-28.0,790,777,832,373,861,33.333333333333336,-0.446,-0.828,0.322
105954,1755607761345,26.79,-68.59,-28.03,789,773,830,350,866,34.48275862068966,-0.447,-0.829,0.322
105984,1755607761347,26.81,-68.59,-28.03,789,773,832,379,858,33.333333333333336,-0.447,-0.829,0.322
106014,1755607761348,26.84,-68.58,-28.03,790,774,833,403,859,33.333333333333336,-0.448,-0.83,0.321
106043,1755607761350,26.79,-68.59,-28.04,790,778,828,386,860,34.48275862068966,-0.447,-0.83,0.322
106072,1755607761353,26.81,-68.59,-28.04,789,776,829,309,865,34.48275862068966,-0.447,-0.83,0.323
106102,1755607761354,26.85,-68.56,-28.01,789,775,835,344,860,33.333333333333336,-0.447,-0.83,0.324
106131,1755607761357,26.86,-68.57,-28.01,789,777,827,398,861,34.48275862068966,-0.446,-0.829,0.322
106161,1755607761358,26.83,-68.57,-28.02,795,770,832,409,860,33.333333333333336,-0.446,-0.829,0.32
106191,1755607761360,26.87,-68.58,-28.0,787,769,835,356,863,33.333333333333336,-0.447,-0.829,0.321
106220,1755607761363,26.83,-68.6,-28.02,791,776,831,352,860,34.48275862068966,-0.446,-0.829,0.321
106250,1755607761365,26.87,-68.58,-28.0,783,772,830,376,858,33.333333333333336,-0.447,-0.829,0.323
106280,1755607761367,26.82,-68.65,-28.04,791,772,834,391,864,33.333333333333336,-0.445,-0.829,0.322
106309,1755607761370,26.81,-68.62,-28.03,787,774,831,395,859,34.48275862068966,-0.447,-0.83,0.324
106339,1755607761372,26.84,-68.57,-28.02,789,768,833,355,862,33.333333333333336,-0.445,-0.829,0.325
106368,1755607761373,26.85,-68.54,-28.02,788,773,832,332,864,34.48275862068966,-0.446,-0.831,0.324
106398,1755607761375,26.87,-68.52,-28.01,789,777,830,387,858,33.333333333333336,-0.446,-0.829,0.32
106427,1755607761377,26.84,-68.55,-28.03,793,773,842,378,864,34.48275862068966,-0.447,-0.828,0.318
106457,1755607761380,26.83,-68.59,-28.03,789,777,835,360,870,33.333333333333336,-0.448,-0.829,0.321
106477,1755607761382,26.83,-68.57,-28.03,788,773,825,408,864,50.0,-0.447,-0.83,0.323
106507,1755607761384,26.85,-68.55,-28.03,788,772,833,318,858,33.333333333333336,-0.446,-0.831,0.324
106536,1755607761386,26.82,-68.54,-28.04,789,770,834,349,864,34.48275862068966,-0.446,-0.829,0.321
106566,1755607761388,26.82,-68.55,-28.04,788,775,828,392,865,33.333333333333336,-0.447,-0.829,0.321
106596,1755607761390,26.82,-68.56,-28.05,786,772,834,394,862,33.333333333333336,-0.447,-0.828,0.321
106626,1755607761392,26.85,-68.55,-28.05,790,778,833,368,858,33.333333333333336,-0.448,-0.828,0.322
106656,1755607761394,26.84,-68.51,-28.07,791,777,832,358,860,33.333333333333336,-0.448,-0.829,0.322
106685,1755607761397,26.83,-68.51,-28.08,789,777,835,358,861,34.48275862068966,-0.446,-0.829,0.322
106715,1755607761398,26.87,-68.5,-28.06,788,791,835,385,860,33.333333333333336,-0.447,-0.829,0.324
106744,1755607761401,26.85,-68.49,-28.08,788,769,833,396,856,34.48275862068966,-0.447,-0.829,0.323
106774,1755607761403,26.83,-68.48,-28.1,792,775,829,357,858,33.333333333333336,-0.447,-0.83,0.323
106804,1755607761405,26.83,-68.52,-28.11,789,781,831,338,859,33.333333333333336,-0.448,-0.83,0.322
106834,1755607761407,26.83,-68.55,-28.1,789,779,830,389,869,33.333333333333336,-0.447,-0.83,0.321
106863,1755607761409,26.82,-68.57,-28.09,792,772,836,421,866,34.48275862068966,-0.446,-0.83,0.323
106893,1755607761410,26.83,-68.12,-28.1,790,772,831,391,865,33.333333333333336,-0.446,-0.829,0.324
106922,1755607761413,26.81,-68.1,-28.12,792,779,834,359,873,34.48275862068966,-0.446,-0.83,0.323
106952,1755607761415,26.83,-68.1,-28.12,790,778,833,367,862,33.333333333333336,-0.447,-0.83,0.322
106981,1755607761417,26.81,-68.12,-28.12,788,774,834,402,860,34.48275862068966,-0.447,-0.83,0.321
107011,1755607761419,26.83,-68.12,-28.12,787,780,836,384,862,33.333333333333336,-0.447,-0.83,0.323
107040,1755607761421,26.86,-68.13,-28.1,789,775,833,357,864,34.48275862068966,-0.447,-0.831,0.323
107070,1755607761423,26.86,-68.13,-28.1,786,774,834,305,861,33.333333333333336,-0.446,-0.83,0.323
107090,1755607761425,26.86,-68.16,-28.1,787,767,832,371,861,50.0,-0.445,-0.828,0.323
107120,1755607761428,26.87,-68.15,-28.1,789,780,833,347,859,33.333333333333336,-0.445,-0.829,0.324
107141,1755607761430,26.88,-68.14,-28.1,789,770,839,366,860,47.61904761904762,-0.446,-0.83,0.323
107170,1755607761432,26.87,-68.14,-28.11,786,791,837,356,856,34.48275862068966,-0.447,-0.83,0.321
107200,1755607761434,26.87,-68.18,-28.11,786,775,833,380,860,33.333333333333336,-0.446,-0.829,0.322
107230,1755607761436,26.89,-68.19,-28.11,787,775,830,414,862,33.333333333333336,-0.447,-0.83,0.323
107259,1755607761438,26.87,-68.19,-28.12,790,777,841,388,866,34.48275862068966,-0.446,-0.829,0.323
107289,1755607761440,26.87,-68.21,-28.14,791,774,832,365,863,33.333333333333336,-0.446,-0.83,0.322
107318,1755607761442,26.88,-68.2,-28.13,787,774,834,371,859,34.48275862068966,-0.446,-0.83,0.322
107348,1755607761444,26.9,-68.2,-28.14,790,769,835,410,863,33.333333333333336,-0.447,-0.83,0.323
107378,1755607761446,26.9,-68.17,-28.13,788,769,828,417,861,33.333333333333336,-0.447,-0.83,0.322
107407,1755607761448,26.93,-68.2,-28.13,791,777,832,361,860,34.48275862068966,-0.447,-0.831,0.321
107428,1755607761450,26.94,-68.22,-28.12,789,777,834,414,861,47.61904761904762,-0.447,-0.831,0.321
107457,1755607761452,26.96,-68.23,-28.11,784,779,834,342,858,34.48275862068966,-0.446,-0.829,0.321
107487,1755607761454,26.92,-68.21,-28.13,786,768,826,347,860,33.333333333333336,-0.447,-0.829,0.321
107516,1755607761457,26.94,-68.25,-28.12,790,775,827,403,859,34.48275862068966,-0.449,-0.831,0.32
107546,1755607761459,26.97,-68.32,-28.1,788,773,828,412,860,33.333333333333336,-0.449,-0.831,0.322
107575,1755607761461,26.94,-68.28,-28.1,788,776,837,374,857,34.48275862068966,-0.447,-0.829,0.323
107605,1755607761463,26.9,-68.26,-28.14,790,776,835,354,861,33.333333333333336,-0.447,-0.83,0.322
107634,1755607761465,26.89,-68.26,-27.7,792,779,828,385,857,34.48275862068966,-0.448,-0.83,0.321
107655,1755607761467,26.92,-68.26,-27.7,788,775,835,369,864,47.61904761904762,-0.45,-0.831,0.322
107684,1755607761469,26.91,-68.22,-27.68,789,773,829,389,861,34.48275862068966,-0.449,-0.83,0.321
107714,1755607761471,26.9,-68.24,-27.68,792,775,831,406,863,33.333333333333336,-0.448,-0.829,0.319
107744,1755607761473,26.9,-68.27,-27.7,787,781,836,390,856,33.333333333333336,-0.448,-0.829,0.32
107773,1755607761475,26.89,-68.28,-27.71,792,768,830,323,865,34.48275862068966,-0.448,-0.829,0.322
107803,1755607761477,26.88,-68.28,-27.72,788,770,833,354,864,33.333333333333336,-0.448,-0.831,0.322
107832,1755607761479,26.89,-68.27,-27.71,786,772,835,356,862,34.48275862068966,-0.448,-0.83,0.32
107862,1755607761481,26.89,-68.28,-27.71,788,771,831,342,862,33.333333333333336,-0.448,-0.831,0.319
107882,1755607761483,26.88,-68.3,-27.7,788,774,830,350,862,50.0,-0.448,-0.829,0.319
107912,1755607761485,26.9,-68.33,-27.71,784,782,834,366,863,33.333333333333336,-0.448,-0.829,0.321
107941,1755607761487,26.88,-68.33,-27.71,789,770,835,299,859,34.48275862068966,-0.447,-0.829,0.32
107970,1755607761489,26.9,-68.35,-27.72,788,779,832,325,864,34.48275862068966,-0.447,-0.83,0.319
108000,1755607761491,26.87,-68.36,-27.74,788,771,826,340,881,33.333333333333336,-0.447,-0.83,0.32
108030,1755607761493,26.88,-68.36,-27.73,789,774,833,385,859,33.333333333333336,-0.447,-0.83,0.32
108059,1755607761495,26.86,-68.39,-27.74,786,780,836,370,865,34.48275862068966,-0.446,-0.83,0.319
108089,1755607761497,26.85,-68.42,-27.75,790,780,830,344,860,33.333333333333336,-0.447,-0.83,0.319
108118,1755607761499,26.85,-68.42,-27.75,786,776,831,372,859,34.48275862068966,-0.447,-0.831,0.319
108148,1755607761501,26.86,-68.46,-27.74,790,772,833,391,861,33.333333333333336,-0.447,-0.83,0.319
108178,1755607761503,26.86,-68.49,-27.75,789,773,834,394,863,33.333333333333336,-0.446,-0.829,0.32
108207,1755607761505,26.82,-68.47,-27.78,792,769,833,363,865,34.48275862068966,-0.446,-0.83,0.32
108237,1755607761507,26.81,-68.46,-27.78,784,773,832,354,863,33.333333333333336,-0.446,-0.831,0.32
108267,1755607761509,26.86,-68.44,-27.75,790,778,833,391,870,33.333333333333336,-0.447,-0.831,0.32
108296,1755607761511,26.9,-68.41,-27.75,790,777,834,402,862,34.48275862068966,-0.447,-0.83,0.32
108326,1755607761514,26.88,-68.39,-27.77,789,775,836,354,859,33.333333333333336,-0.446,-0.831,0.318
108355,1755607761516,26.88,-68.41,-27.78,790,779,834,336,861,34.48275862068966,-0.446,-0.831,0.316
108385,1755607761517,26.87,-68.46,-27.79,789,772,834,368,859,33.333333333333336,-0.447,-0.83,0.318
108415,1755607761520,26.88,-68.46,-27.79,788,777,832,418,859,33.333333333333336,-0.448,-0.831,0.321
108444,1755607761522,26.87,-68.43,-27.8,794,777,836,408,868,34.48275862068966,-0.446,-0.83,0.321
108473,1755607761523,26.88,-68.44,-27.82,791,773,828,362,868,34.48275862068966,-0.446,-0.83,0.32
108503,1755607761525,26.87,-68.43,-27.83,790,774,832,371,861,33.333333333333336,-0.447,-0.83,0.318
108533,1755607761528,26.87,-68.46,-27.84,786,779,840,400,860,33.333333333333336,-0.448,-0.831,0.319
108563,1755607761530,26.86,-68.45,-27.83,792,780,831,400,861,33.333333333333336,-0.448,-0.832,0.321
108592,1755607761532,26.89,-68.44,-27.82,791,774,838,359,864,34.48275862068966,-0.446,-0.831,0.321
108622,1755607761534,26.89,-68.42,-27.83,790,773,834,338,865,33.333333333333336,-0.446,-0.831,0.32
108652,1755607761536,26.88,-68.42,-27.84,788,775,834,353,856,33.333333333333336,-0.446,-0.83,0.32
108681,1755607761538,26.89,-68.4,-27.85,790,777,833,393,864,34.48275862068966,-0.445,-0.829,0.32
108711,1755607761541,26.89,-68.42,-27.86,789,774,833,377,861,33.333333333333336,-0.446,-0.83,0.319
108741,1755607761543,26.88,-68.43,-27.86,791,775,832,329,882,33.333333333333336,-0.447,-0.83,0.319
108770,1755607761545,26.87,-68.44,-27.86,791,772,834,347,858,34.48275862068966,-0.447,-0.83,0.321
108800,1755607761547,26.88,-68.44,-27.86,788,773,833,375,861,33.333333333333336,-0.446,-0.83,0.321
108830,1755607761549,26.87,-68.43,-27.87,786,768,834,402,858,33.333333333333336,-0.446,-0.83,0.322
108859,1755607761551,26.85,-68.44,-27.88,790,770,833,387,862,34.48275862068966,-0.447,-0.83,0.32
108889,1755607761554,26.83,-68.48,-27.89,788,776,835,363,863,33.333333333333336,-0.447,-0.831,0.32
108918,1755607761556,26.84,-68.48,-27.88,785,768,834,379,866,34.48275862068966,-0.447,-0.831,0.322
108948,1755607761558,26.83,-68.46,-27.88,789,778,832,409,858,33.333333333333336,-0.446,-0.832,0.322
108978,1755607761560,26.83,-68.46,-27.88,792,781,830,381,866,33.333333333333336,-0.445,-0.83,0.32
109007,1755607761562,26.85,-68.48,-27.89,791,775,835,355,863,34.48275862068966,-0.446,-0.83,0.32
109037,1755607761564,26.81,-68.5,-27.9,790,771,832,361,864,33.333333333333336,-0.446,-0.831,0.321
109067,1755607761565,26.84,-68.48,-27.87,790,773,829,404,858,33.333333333333336,-0.447,-0.832,0.323
109096,1755607761568,26.84,-68.46,-27.86,788,781,832,403,862,34.48275862068966,-0.443,-0.83,0.323
109126,1755607761570,26.83,-68.47,-27.89,783,780,831,361,864,33.333333333333336,-0.444,-0.83,0.322
109155,1755607761572,26.81,-68.48,-27.91,786,774,832,354,856,34.48275862068966,-0.446,-0.83,0.321
109185,1755607761575,26.82,-68.49,-27.9,792,771,833,380,863,33.333333333333336,-0.45,-0.832,0.321
109214,1755607761577,26.83,-68.5,-27.87,792,776,831,395,863,34.48275862068966,-0.447,-0.831,0.321
109243,1755607761579,26.84,-68.51,-27.85,794,782,830,381,857,34.48275862068966,-0.444,-0.829,0.323
109273,1755607761580,26.82,-68.48,-27.89,788,768,832,349,861,33.333333333333336,-0.443,-0.828,0.322
114247,1755607761584,29.04,-71.03,-27.48,795,775,815,353,838,0.2010454362685967,-0.482,-0.826,0.274
114277,1755607761587,29.08,-71.06,-27.49,794,773,805,356,848,33.333333333333336,-0.484,-0.827,0.272
114306,1755607761589,29.08,-71.07,-27.5,791,775,816,337,848,34.48275862068966,-0.484,-0.827,0.272
114336,1755607761591,29.08,-71.06,-27.51,793,770,810,378,848,33.333333333333336,-0.484,-0.827,0.275
114365,1755607761593,29.05,-71.01,-27.53,794,778,807,409,848,34.48275862068966,-0.483,-0.828,0.277
114395,1755607761595,29.0,-70.96,-27.59,795,779,806,378,846,33.333333333333336,-0.482,-0.827,0.276
114425,1755607761597,29.01,-70.95,-27.63,793,777,815,339,849,33.333333333333336,-0.482,-0.827,0.274
114454,1755607761598,28.98,-70.93,-27.63,795,768,814,367,850,34.48275862068966,-0.481,-0.828,0.274
114475,1755607761601,28.98,-70.96,-27.63,791,775,807,382,845,47.61904761904762,-0.482,-0.829,0.274
114504,1755607761603,29.02,-70.98,-27.62,793,776,812,374,848,34.48275862068966,-0.482,-0.828,0.275
114534,1755607761605,29.03,-70.96,-27.62,792,774,814,401,847,33.333333333333336,-0.48,-0.827,0.275
114563,1755607761608,29.07,-70.98,-27.6,795,769,813,406,851,34.48275862068966,-0.481,-0.829,0.276
114593,1755607761611,29.06,-71.02,-27.6,791,768,813,370,846,33.333333333333336,-0.481,-0.829,0.277
114623,1755607761640,29.08,-71.01,-27.59,794,774,812,344,847,33.333333333333336,-0.481,-0.828,0.277
114652,1755607761670,29.09,-70.95,-27.58,790,775,814,382,846,34.48275862068966,-0.481,-0.828,0.276
114682,1755607761699,29.09,-70.91,-27.59,792,772,808,397,844,33.333333333333336,-0.481,-0.827,0.275
114711,1755607761729,29.07,-70.97,-27.63,793,766,814,388,857,34.48275862068966,-0.482,-0.828,0.274
114741,1755607761759,29.07,-71.06,-27.64,793,779,813,347,852,33.333333333333336,-0.481,-0.826,0.273
114771,1755607761788,29.05,-71.19,-27.69,792,772,805,323,850,33.333333333333336,-0.482,-0.826,0.274
114800,1755607761818,28.97,-71.25,-27.73,791,778,813,384,852,34.48275862068966,-0.481,-0.828,0.275
114830,1755607761847,28.92,-71.22,-27.74,795,772,815,377,846,33.333333333333336,-0.481,-0.83,0.277
114859,1755607761877,28.91,-71.22,-27.74,790,778,814,355,850,34.48275862068966,-0.48,-0.83,0.277
114889,1755607761907,28.97,-71.18,-27.73,791,775,811,360,849,33.333333333333336,-0.479,-0.829,0.277
114919,1755607761936,28.95,-71.17,-27.74,791,768,811,399,849,33.333333333333336,-0.479,-0.829,0.276
114949,1755607761966,28.97,-71.18,-27.75,793,774,804,411,855,33.333333333333336,-0.48,-0.829,0.277
114978,1755607761996,28.98,-71.15,-27.77,787,779,816,382,849,34.48275862068966,-0.479,-0.829,0.277
114998,1755607762016,28.98,-71.17,-27.79,792,775,812,378,845,50.0,-0.479,-0.83,0.275
115028,1755607762045,29.0,-71.19,-27.79,790,773,811,356,850,33.333333333333336,-0.479,-0.83,0.274
115057,1755607762074,29.01,-71.19,-27.78,792,774,814,342,856,34.48275862068966,-0.48,-0.83,0.275
115087,1755607762104,29.03,-71.15,-27.77,791,774,812,366,846,33.333333333333336,-0.479,-0.83,0.276
115116,1755607762134,29.03,-71.16,-27.79,791,776,805,396,850,34.48275862068966,-0.478,-0.83,0.276
115136,1755607762154,29.03,-71.15,-27.79,790,773,807,364,837,50.0,-0.478,-0.83,0.276
115166,1755607762183,29.06,-71.14,-27.79,796,776,813,392,849,33.333333333333336,-0.478,-0.829,0.275
115195,1755607762213,29.05,-71.16,-27.79,790,779,810,390,847,34.48275862068966,-0.479,-0.829,0.274
115225,1755607762243,29.04,-71.21,-27.81,792,773,811,362,847,33.333333333333336,-0.479,-0.828,0.273
115255,1755607762273,29.05,-71.22,-27.81,794,775,811,314,845,33.333333333333336,-0.48,-0.83,0.274
115285,1755607762302,29.07,-71.21,-27.8,793,777,816,369,851,33.333333333333336,-0.48,-0.83,0.276
115314,1755607762332,29.08,-71.2,-27.78,791,774,807,388,849,34.48275862068966,-0.479,-0.83,0.276
115344,1755607762361,29.07,-71.17,-27.77,793,772,813,362,849,33.333333333333336,-0.477,-0.829,0.275
115373,1755607762391,29.08,-71.19,-27.77,792,778,814,346,849,34.48275862068966,-0.479,-0.828,0.273
115403,1755607762420,29.07,-71.22,-27.78,791,774,808,366,846,33.333333333333336,-0.481,-0.828,0.273
115432,1755607762450,29.09,-71.23,-27.77,793,775,809,406,853,34.48275862068966,-0.481,-0.827,0.274
115462,1755607762480,29.09,-71.24,-27.78,793,779,811,391,849,33.333333333333336,-0.479,-0.827,0.273
115492,1755607762509,29.07,-71.27,-27.8,792,776,816,352,849,33.333333333333336,-0.479,-0.829,0.272
115521,1755607762539,29.07,-71.26,-27.8,795,774,815,361,845,34.48275862068966,-0.48,-0.831,0.273
115551,1755607762568,29.07,-71.24,-27.77,793,768,813,399,844,33.333333333333336,-0.48,-0.832,0.273
115580,1755607762598,29.07,-71.24,-27.73,791,777,810,382,851,34.48275862068966,-0.479,-0.83,0.273
115610,1755607762627,29.06,-71.26,-27.72,791,775,812,357,850,33.333333333333336,-0.479,-0.828,0.274
115639,1755607762657,29.05,-71.26,-27.73,785,778,813,356,850,34.48275862068966,-0.48,-0.827,0.275
115669,1755607762687,29.01,-71.26,-27.73,792,771,804,376,846,33.333333333333336,-0.48,-0.828,0.274
115698,1755607762716,29.05,-71.27,-27.7,796,777,806,401,867,34.48275862068966,-0.482,-0.828,0.274
115728,1755607762746,29.03,-71.28,-27.69,789,777,809,371,853,33.333333333333336,-0.482,-0.828,0.272
115758,1755607762776,28.99,-71.28,-27.71,796,776,806,342,883,33.333333333333336,-0.48,-0.826,0.272
115788,1755607762805,28.99,-71.27,-27.71,789,768,811,362,848,33.333333333333336,-0.48,-0.828,0.272
115817,1755607762835,28.99,-71.3,-27.71,794,773,811,412,848,34.48275862068966,-0.478,-0.828,0.272
115847,1755607762864,28.96,-71.34,-27.73,793,779,816,409,849,33.333333333333336,-0.479,-0.826,0.273
115876,1755607762894,28.94,-71.38,-27.79,792,773,813,374,864,34.48275862068966,-0.479,-0.824,0.275
115906,1755607762923,28.91,-71.39,-27.86,792,778,813,348,851,33.333333333333336,-0.481,-0.826,0.276
115935,1755607762953,28.89,-71.4,-27.88,791,778,812,374,846,34.48275862068966,-0.484,-0.83,0.272
115965,1755607762982,28.87,-71.45,-27.86,792,773,819,405,850,33.333333333333336,-0.485,-0.834,0.269
115994,1755607763011,28.87,-71.48,-27.8,792,777,804,368,842,34.48275862068966,-0.482,-0.834,0.269
116023,1755607763041,28.84,-71.52,-27.77,790,773,812,342,869,34.48275862068966,-0.477,-0.831,0.27
116053,1755607763071,28.78,-71.58,-27.79,791,776,811,328,852,33.333333333333336,-0.476,-0.828,0.272
116083,1755607763100,28.76,-71.58,-27.82,790,777,810,389,847,33.333333333333336,-0.476,-0.826,0.274
116112,1755607763130,28.74,-71.6,-27.88,792,772,815,377,849,34.48275862068966,-0.478,-0.825,0.276
116142,1755607763159,28.67,-71.62,-27.96,788,775,810,339,859,33.333333333333336,-0.478,-0.823,0.277
116171,1755607763189,28.68,-71.61,-28.02,794,779,811,355,848,34.48275862068966,-0.481,-0.826,0.277
116201,1755607763219,28.71,-71.59,-28.03,790,766,818,388,844,33.333333333333336,-0.483,-0.832,0.272
116231,1755607763248,28.75,-71.58,-27.98,795,779,808,396,845,33.333333333333336,-0.478,-0.835,0.269
116260,1755607763278,28.31,-71.57,-27.94,790,769,811,356,847,34.48275862068966,-0.472,-0.835,0.268
116290,1755607763307,28.34,-71.58,-27.92,792,776,812,338,846,33.333333333333336,-0.469,-0.835,0.271
116319,1755607763337,28.36,-71.54,-27.9,791,766,811,363,841,34.48275862068966,-0.468,-0.836,0.278
116349,1755607763366,28.43,-71.45,-27.85,792,770,806,378,848,33.333333333333336,-0.469,-0.835,0.284
116378,1755607763396,28.5,-71.29,-27.82,793,778,812,375,848,34.48275862068966,-0.471,-0.83,0.284
116408,1755607763425,28.5,-71.19,-27.85,793,778,814,355,851,33.333333333333336,-0.475,-0.824,0.281
116437,1755607763455,28.53,-71.16,-27.9,805,779,808,365,849,34.48275862068966,-0.478,-0.82,0.276
116467,1755607763484,28.55,-71.11,-27.96,792,765,811,411,850,33.333333333333336,-0.48,-0.822,0.27
116496,1755607763514,28.5,-71.15,-28.03,796,772,812,410,853,34.48275862068966,-0.48,-0.825,0.263
116526,1755607763543,28.46,-71.23,-28.09,793,773,814,367,844,33.333333333333336,-0.48,-0.827,0.264
116555,1755607763573,28.45,-71.28,-28.11,786,775,815,349,846,34.48275862068966,-0.479,-0.832,0.267
116585,1755607763602,28.43,-71.34,-28.11,791,774,807,378,843,33.333333333333336,-0.479,-0.836,0.271
116614,1755607763632,28.45,-71.3,-28.06,788,768,810,362,851,34.48275862068966,-0.476,-0.835,0.275
116644,1755607763661,28.49,-71.25,-28.04,789,773,816,356,844,33.333333333333336,-0.472,-0.83,0.28
116673,1755607763691,28.46,-71.17,-28.11,792,772,814,343,852,34.48275862068966,-0.47,-0.826,0.281
116703,1755607763721,28.48,-71.18,-28.19,784,773,810,368,848,33.333333333333336,-0.475,-0.829,0.279
116733,1755607763750,28.55,-71.17,-28.21,793,774,810,402,845,33.333333333333336,-0.479,-0.832,0.275
116762,1755607763780,28.56,-71.18,-28.21,791,774,814,396,847,34.48275862068966,-0.48,-0.833,0.271
116792,1755607763809,28.52,-71.19,-28.2,787,780,812,358,848,33.333333333333336,-0.481,-0.836,0.267
116821,1755607763839,28.43,-71.28,-28.17,786,778,814,378,848,34.48275862068966,-0.481,-0.835,0.262
116850,1755607763868,28.34,-71.38,-28.12,787,776,823,397,847,34.48275862068966,-0.483,-0.831,0.261
116880,1755607763898,28.09,-71.52,-28.18,791,775,806,353,845,33.333333333333336,-0.481,-0.827,0.269
116910,1755607763927,27.92,-71.56,-28.25,790,774,811,343,850,33.333333333333336,-0.475,-0.828,0.28
116939,1755607763957,27.86,-71.53,-28.27,794,773,811,339,851,34.48275862068966,-0.469,-0.833,0.288
116969,1755607763986,27.9,-71.44,-28.22,787,777,811,344,843,33.333333333333336,-0.467,-0.839,0.291
116998,1755607764016,28.02,-71.25,-28.13,793,767,814,379,846,34.48275862068966,-0.465,-0.839,0.287
117028,1755607764046,28.06,-71.13,-28.08,792,774,817,365,845,33.333333333333336,-0.464,-0.835,0.28
117058,1755607764075,28.08,-71.1,-28.06,791,779,813,330,846,33.333333333333336,-0.468,-0.833,0.275
117087,1755607764105,27.96,-71.14,-28.08,791,769,812,358,849,34.48275862068966,-0.473,-0.829,0.277
117117,1755607764134,27.93,-71.13,-28.05,787,776,809,395,848,33.333333333333336,-0.477,-0.829,0.283
117146,1755607764164,27.92,-71.13,-28.03,790,776,814,396,852,34.48275862068966,-0.476,-0.825,0.286
117176,1755607764193,27.97,-71.08,-28.04,792,779,815,362,848,33.333333333333336,-0.472,-0.824,0.284
117205,1755607764223,28.04,-71.07,-28.1,791,778,812,373,845,34.48275862068966,-0.468,-0.825,0.283
117235,1755607764253,28.07,-70.95,-28.18,791,775,811,399,848,33.333333333333336,-0.47,-0.834,0.287
117265,1755607764282,27.95,-70.79,-28.24,793,778,805,369,847,33.333333333333336,-0.472,-0.834,0.286
117294,1755607764312,27.9,-70.75,-28.25,791,776,810,345,849,34.48275862068966,-0.477,-0.835,0.29
117324,1755607764341,27.94,-70.74,-28.2,794,776,814,339,847,33.333333333333336,-0.478,-0.831,0.293
117353,1755607764371,27.96,-70.71,-28.18,791,774,815,370,849,34.48275862068966,-0.477,-0.825,0.293
117383,1755607764400,27.96,-70.69,-28.22,789,774,813,404,841,33.333333333333336,-0.476,-0.821,0.29
117412,1755607764430,28.02,-70.69,-28.26,790,778,814,397,849,34.48275862068966,-0.475,-0.824,0.285
117442,1755607764460,28.07,-70.76,-28.29,792,769,812,356,848,33.333333333333336,-0.472,-0.828,0.28
117471,1755607764489,28.06,-70.8,-28.3,792,767,807,354,848,34.48275862068966,-0.471,-0.832,0.281
117501,1755607764519,28.0,-70.85,-28.32,789,776,807,395,850,33.333333333333336,-0.472,-0.831,0.288
117531,1755607764548,27.91,-70.86,-28.33,790,774,804,401,852,33.333333333333336,-0.473,-0.831,0.296
117560,1755607764578,27.92,-70.81,-28.29,789,774,807,380,846,34.48275862068966,-0.473,-0.831,0.297
117590,1755607764608,27.92,-70.75,-28.27,790,774,810,349,849,33.333333333333336,-0.471,-0.828,0.294
117620,1755607764637,27.95,-70.71,-28.3,794,774,812,378,845,33.333333333333336,-0.468,-0.825,0.29
117649,1755607764667,28.0,-70.7,-28.35,793,773,812,407,846,34.48275862068966,-0.466,-0.826,0.285
117679,1755607764696,28.0,-70.75,-28.39,788,778,811,382,852,33.333333333333336,-0.466,-0.829,0.282
117708,1755607764726,28.03,-70.79,-28.39,786,779,810,339,852,34.48275862068966,-0.47,-0.831,0.285
117738,1755607764755,27.98,-70.81,-28.4,793,773,811,356,846,33.333333333333336,-0.472,-0.83,0.294
