timestamp_ms,recv_timestamp_ms,pitch,roll,yaw,flex1,flex2,flex3,flex4,flex5,sampling_hz,accel_x,accel_y,accel_z
61992,1755606143528,17.99,69.09,43.0,797,779,861,406,899,33.333333333333336,-0.303,0.886,0.364
62021,1755606143530,17.99,69.09,43.02,800,777,860,371,904,34.48275862068966,-0.304,0.888,0.366
62051,1755606143532,18.02,69.09,43.0,795,777,860,377,899,33.333333333333336,-0.305,0.886,0.366
62081,1755606143534,18.04,69.06,43.01,795,773,857,415,895,33.333333333333336,-0.304,0.885,0.365
62110,1755606143536,18.01,69.04,43.06,797,779,861,434,892,34.48275862068966,-0.303,0.886,0.363
62140,1755606143538,18.0,69.05,43.07,796,781,869,404,898,33.333333333333336,-0.302,0.886,0.365
62170,1755606143540,18.02,69.06,43.04,801,781,860,368,899,33.333333333333336,-0.304,0.887,0.364
62199,1755606143542,18.03,69.08,43.07,799,776,857,385,895,34.48275862068966,-0.303,0.886,0.365
62229,1755606143545,18.05,69.09,43.06,807,775,854,439,898,33.333333333333336,-0.301,0.886,0.365
62259,1755606143547,18.06,69.09,43.03,796,789,854,422,896,33.333333333333336,-0.301,0.887,0.363
62288,1755606143548,18.05,69.08,43.01,798,778,857,378,894,34.48275862068966,-0.302,0.887,0.361
62309,1755606143550,18.04,69.03,42.98,799,778,850,432,896,47.61904761904762,-0.301,0.885,0.362
62338,1755606143552,18.06,69.06,42.97,797,774,858,378,898,34.48275862068966,-0.303,0.885,0.362
62368,1755606143555,18.1,69.08,42.95,799,778,858,373,898,33.333333333333336,-0.303,0.887,0.356
62398,1755606143557,18.08,69.01,42.93,792,771,857,420,898,33.333333333333336,-0.305,0.885,0.359
62418,1755606143559,18.06,68.99,42.93,797,777,858,362,896,50.0,-0.308,0.886,0.367
62448,1755606143561,18.08,69.04,42.94,794,768,855,412,893,33.333333333333336,-0.31,0.887,0.372
62478,1755606143562,18.1,69.05,42.9,800,781,860,434,895,33.333333333333336,-0.307,0.884,0.368
62507,1755606143565,18.1,68.99,42.87,798,780,860,397,895,34.48275862068966,-0.308,0.882,0.364
62527,1755606143567,18.1,68.95,42.81,799,789,858,408,900,50.0,-0.308,0.883,0.363
62557,1755606143569,18.18,68.92,42.62,799,782,856,392,898,33.333333333333336,-0.31,0.885,0.367
62587,1755606143571,18.23,69.0,42.64,802,776,853,362,927,33.333333333333336,-0.315,0.886,0.371
62617,1755606143573,18.26,69.0,42.65,800,777,859,381,898,33.333333333333336,-0.31,0.88,0.366
62637,1755606143576,18.27,68.99,42.61,800,776,854,372,895,50.0,-0.308,0.879,0.36
62667,1755606143577,18.28,68.97,42.58,799,777,858,393,896,33.333333333333336,-0.315,0.884,0.363
62696,1755606143580,18.28,68.99,42.18,797,782,861,435,894,34.48275862068966,-0.314,0.883,0.365
62726,1755606143581,18.33,69.03,42.19,801,782,861,430,902,33.333333333333336,-0.317,0.881,0.366
62756,1755606143584,18.34,69.03,42.28,793,778,852,353,908,33.333333333333336,-0.319,0.882,0.366
62786,1755606143586,18.39,69.02,42.3,797,773,859,351,897,33.333333333333336,-0.317,0.881,0.364
62815,1755606143588,18.38,69.01,42.37,799,776,857,383,894,34.48275862068966,-0.317,0.881,0.361
62845,1755606143590,18.36,68.99,42.42,798,779,870,433,893,33.333333333333336,-0.313,0.883,0.36
62875,1755606143592,18.35,68.94,42.41,797,774,850,419,901,33.333333333333336,-0.312,0.884,0.361
62904,1755606143593,18.32,68.92,42.42,802,772,858,347,897,34.48275862068966,-0.311,0.884,0.364
62934,1755606143595,18.33,68.94,42.37,797,778,860,357,896,33.333333333333336,-0.308,0.884,0.366
62964,1755606143598,18.41,68.91,42.15,802,783,861,395,894,33.333333333333336,-0.309,0.883,0.365
62994,1755606143599,18.42,68.9,42.15,800,781,854,419,921,33.333333333333336,-0.315,0.882,0.365
63023,1755606143602,18.42,68.87,42.14,798,772,858,386,896,34.48275862068966,-0.315,0.882,0.365
63053,1755606143605,18.42,68.82,42.03,790,774,857,350,897,33.333333333333336,-0.317,0.88,0.364
63083,1755606143607,18.43,68.82,42.06,797,777,860,376,896,33.333333333333336,-0.318,0.881,0.368
63113,1755606143608,18.42,68.84,42.04,797,780,854,434,896,33.333333333333336,-0.317,0.882,0.37
63143,1755606143611,18.41,68.83,42.01,799,786,855,414,899,33.333333333333336,-0.32,0.879,0.369
63172,1755606143613,18.46,68.8,41.99,800,781,862,384,900,34.48275862068966,-0.324,0.877,0.372
63202,1755606143615,18.48,68.8,42.03,801,772,854,370,899,33.333333333333336,-0.326,0.878,0.371
63232,1755606143617,18.49,68.76,42.03,794,777,860,413,895,33.333333333333336,-0.327,0.877,0.371
63262,1755606143619,18.53,68.79,42.06,800,773,859,419,901,33.333333333333336,-0.328,0.878,0.375
63292,1755606143621,18.56,68.88,42.14,794,778,857,399,898,33.333333333333336,-0.323,0.878,0.374
63321,1755606143624,18.55,68.87,42.16,800,782,854,320,894,34.48275862068966,-0.32,0.879,0.368
63351,1755606143625,18.51,68.81,42.16,798,770,856,348,897,33.333333333333336,-0.322,0.877,0.372
63381,1755606143627,18.55,68.86,42.23,798,777,859,416,899,33.333333333333336,-0.324,0.88,0.371
63411,1755606143629,18.54,68.82,42.24,797,785,858,438,898,33.333333333333336,-0.32,0.879,0.367
63440,1755606143631,18.56,68.75,42.21,800,782,857,402,899,34.48275862068966,-0.321,0.877,0.37
63470,1755606143633,18.58,68.76,42.28,797,782,857,370,932,33.333333333333336,-0.325,0.88,0.373
63500,1755606143636,18.63,68.76,42.26,799,777,857,377,895,33.333333333333336,-0.322,0.878,0.373
63529,1755606143638,18.66,68.77,42.27,797,776,858,422,897,34.48275862068966,-0.32,0.877,0.369
63559,1755606143640,18.67,68.72,42.22,802,774,854,408,897,33.333333333333336,-0.319,0.877,0.36
63589,1755606143642,18.64,68.65,42.2,798,783,855,356,900,33.333333333333336,-0.318,0.878,0.359
63618,1755606143644,18.58,68.55,42.2,796,775,857,356,896,34.48275862068966,-0.32,0.877,0.363
63648,1755606143646,18.54,68.44,42.17,800,774,864,395,896,33.333333333333336,-0.32,0.877,0.37
63678,1755606143648,18.54,68.37,42.19,797,775,858,420,903,33.333333333333336,-0.321,0.877,0.379
63698,1755606143650,18.56,68.38,41.89,799,779,856,368,898,50.0,-0.32,0.879,0.379
63728,1755606143652,18.56,68.36,41.84,798,778,855,401,896,33.333333333333336,-0.32,0.878,0.376
63758,1755606143654,18.59,68.34,41.83,804,781,857,394,901,33.333333333333336,-0.322,0.874,0.376
63788,1755606143656,18.58,68.34,41.86,800,780,853,354,896,33.333333333333336,-0.324,0.876,0.376
63818,1755606143658,18.61,68.34,41.85,797,772,858,367,898,33.333333333333336,-0.325,0.876,0.38
63847,1755606143660,18.64,68.38,41.9,799,776,856,413,896,34.48275862068966,-0.326,0.876,0.381
63877,1755606143662,18.64,68.39,41.94,798,776,865,412,899,33.333333333333336,-0.323,0.873,0.377
63907,1755606143664,18.64,68.38,41.95,801,780,860,381,899,33.333333333333336,-0.323,0.875,0.374
63937,1755606143667,18.59,68.36,42.0,797,779,857,358,897,33.333333333333336,-0.322,0.874,0.375
63966,1755606143669,18.58,68.32,42.0,800,771,857,378,901,34.48275862068966,-0.322,0.873,0.375
63996,1755606143671,18.6,68.29,41.99,802,769,856,429,902,33.333333333333336,-0.324,0.873,0.379
64026,1755606143673,18.68,68.28,42.0,795,780,853,395,896,33.333333333333336,-0.325,0.872,0.382
64056,1755606143675,18.74,68.29,41.97,799,782,858,359,896,33.333333333333336,-0.325,0.872,0.382
64085,1755606143677,18.81,68.31,41.91,796,776,860,360,896,34.48275862068966,-0.327,0.873,0.38
64105,1755606143679,18.82,68.31,41.95,795,776,858,394,900,50.0,-0.329,0.875,0.377
64135,1755606143681,18.78,68.32,42.02,800,775,860,369,899,33.333333333333336,-0.325,0.877,0.373
64165,1755606143683,18.76,68.31,42.0,803,770,857,417,899,33.333333333333336,-0.32,0.875,0.379
64185,1755606143685,18.75,68.29,41.96,800,783,858,376,899,50.0,-0.32,0.875,0.383
64215,1755606143687,18.78,68.31,41.89,800,788,851,421,896,33.333333333333336,-0.322,0.875,0.382
64244,1755606143690,18.74,68.34,41.89,799,773,855,435,898,34.48275862068966,-0.324,0.876,0.379
64274,1755606143691,18.77,68.35,41.82,795,778,856,380,897,33.333333333333336,-0.325,0.874,0.38
64304,1755606143693,18.75,68.34,41.82,798,775,857,361,897,33.333333333333336,-0.324,0.874,0.378
64324,1755606143695,18.72,68.35,41.82,797,778,859,413,889,50.0,-0.324,0.875,0.376
64344,1755606143697,18.71,68.32,41.82,794,775,853,425,900,50.0,-0.324,0.874,0.376
64374,1755606143699,18.69,68.28,41.8,800,780,854,398,900,33.333333333333336,-0.324,0.872,0.376
64404,1755606143701,18.67,68.3,41.8,795,778,858,354,894,33.333333333333336,-0.326,0.874,0.377
64424,1755606143703,18.67,68.26,41.77,796,777,855,407,900,50.0,-0.328,0.875,0.38
64444,1755606143705,18.69,68.28,41.76,802,777,864,430,904,50.0,-0.332,0.874,0.383
64474,1755606143706,18.72,68.29,41.77,798,783,858,389,902,33.333333333333336,-0.333,0.872,0.382
64504,1755606143709,18.73,68.24,41.82,798,778,861,362,895,33.333333333333336,-0.334,0.87,0.38
64533,1755606143711,18.74,68.26,41.9,801,776,856,382,901,34.48275862068966,-0.333,0.871,0.38
64563,1755606143713,18.78,68.31,41.93,805,777,855,432,897,33.333333333333336,-0.332,0.874,0.382
64593,1755606143714,18.78,68.33,41.98,796,775,850,412,893,33.333333333333336,-0.326,0.871,0.379
64623,1755606143717,18.79,68.28,41.96,799,779,859,366,893,33.333333333333336,-0.326,0.872,0.382
64652,1755606143718,18.82,68.34,42.0,797,781,859,346,894,34.48275862068966,-0.33,0.874,0.382
64672,1755606143721,18.86,68.35,42.0,797,778,850,408,897,50.0,-0.331,0.872,0.379
64702,1755606143722,18.88,68.31,42.04,795,776,858,371,898,33.333333333333336,-0.333,0.869,0.375
64732,1755606143724,18.86,68.26,42.22,801,778,860,422,897,33.333333333333336,-0.334,0.871,0.377
64761,1755606143727,18.88,68.32,42.33,802,780,858,442,899,34.48275862068966,-0.331,0.876,0.383
64782,1755606143730,18.9,68.35,42.34,794,783,855,378,903,47.61904761904762,-0.328,0.877,0.384
64812,1755606143731,18.93,68.37,42.38,796,777,853,421,895,33.333333333333336,-0.326,0.874,0.379
64841,1755606143734,18.92,68.38,42.46,801,780,860,406,905,34.48275862068966,-0.323,0.875,0.376
64871,1755606143737,18.88,68.37,42.47,794,775,858,365,898,33.333333333333336,-0.319,0.877,0.377
64901,1755606143739,18.85,68.36,42.5,799,777,856,376,900,33.333333333333336,-0.318,0.878,0.378
64930,1755606143741,18.84,68.39,42.5,800,775,862,420,895,34.48275862068966,-0.316,0.877,0.38
64951,1755606143743,18.85,68.4,42.49,801,777,859,365,898,47.61904761904762,-0.317,0.877,0.379
64971,1755606143745,18.86,68.44,42.46,800,781,854,377,899,50.0,-0.321,0.878,0.376
65000,1755606143747,18.86,68.43,42.48,798,771,861,385,894,34.48275862068966,-0.326,0.876,0.378
65030,1755606143749,18.87,68.43,42.52,801,784,858,433,895,33.333333333333336,-0.327,0.875,0.377
65060,1755606143751,18.91,68.44,42.55,800,770,857,418,892,33.333333333333336,-0.326,0.876,0.376
65090,1755606143754,18.93,68.42,42.61,806,779,857,335,932,33.333333333333336,-0.323,0.877,0.375
65110,1755606143756,18.92,68.41,42.65,796,772,854,405,899,50.0,-0.319,0.875,0.372
65140,1755606143758,18.91,68.42,42.67,798,777,855,360,894,33.333333333333336,-0.317,0.877,0.371
65169,1755606143761,18.9,68.41,42.71,801,778,856,339,899,34.48275862068966,-0.316,0.877,0.374
65199,1755606143763,18.88,68.36,42.7,799,770,854,383,898,33.333333333333336,-0.318,0.877,0.374
65229,1755606143765,18.86,68.4,42.73,798,780,855,410,901,33.333333333333336,-0.318,0.877,0.378
65258,1755606143767,18.87,68.44,42.76,801,779,850,413,898,34.48275862068966,-0.32,0.876,0.382
65288,1755606143769,18.88,68.45,42.75,796,778,855,378,900,33.333333333333336,-0.319,0.876,0.373
65318,1755606143771,18.82,68.39,42.79,798,778,858,367,890,33.333333333333336,-0.319,0.875,0.373
65338,1755606143773,18.81,68.35,42.83,800,781,860,380,895,50.0,-0.321,0.876,0.382
65368,1755606143775,18.85,68.41,42.82,797,775,859,370,900,33.333333333333336,-0.32,0.878,0.385
65398,1755606143777,18.84,68.45,42.84,799,780,858,422,895,33.333333333333336,-0.317,0.878,0.379
65418,1755606143779,18.83,68.43,42.85,800,779,856,373,895,50.0,-0.312,0.874,0.374
65448,1755606143781,18.78,68.36,42.82,797,780,859,424,892,33.333333333333336,-0.314,0.873,0.373
65477,1755606143783,18.77,68.34,42.83,808,776,857,432,897,34.48275862068966,-0.32,0.873,0.376
65507,1755606143785,18.8,68.36,42.89,794,779,855,381,897,33.333333333333336,-0.322,0.874,0.374
65537,1755606143787,18.8,68.35,42.96,796,777,857,356,899,33.333333333333336,-0.318,0.876,0.374
65566,1755606143789,18.78,68.35,42.98,798,783,854,390,894,34.48275862068966,-0.313,0.876,0.374
65596,1755606143791,18.77,68.31,42.97,801,777,857,416,893,33.333333333333336,-0.317,0.877,0.378
65626,1755606143794,18.8,68.31,42.98,797,777,856,413,903,33.333333333333336,-0.321,0.876,0.382
65656,1755606143795,18.83,68.35,43.05,800,778,857,379,899,33.333333333333336,-0.32,0.876,0.379
65686,1755606143797,18.86,68.36,43.09,800,782,861,362,893,33.333333333333336,-0.317,0.876,0.376
65706,1755606143799,18.87,68.36,43.09,797,779,855,358,895,50.0,-0.314,0.877,0.376
65736,1755606143801,18.89,68.39,43.1,800,777,855,356,897,33.333333333333336,-0.315,0.877,0.377
65765,1755606143803,18.89,68.36,43.11,794,777,857,393,893,34.48275862068966,-0.315,0.876,0.376
65795,1755606143805,18.91,68.37,43.13,798,780,865,430,892,33.333333333333336,-0.314,0.877,0.375
65825,1755606143808,18.91,68.36,43.13,799,778,856,405,895,33.333333333333336,-0.314,0.877,0.375
65855,1755606143809,18.93,68.35,43.11,795,777,858,351,898,33.333333333333336,-0.316,0.878,0.377
65884,1755606143811,18.95,68.37,43.13,802,778,860,365,895,34.48275862068966,-0.319,0.877,0.378
65914,1755606143813,18.99,68.4,43.16,794,783,863,420,898,33.333333333333336,-0.319,0.877,0.375
65934,1755606143815,19.01,68.38,43.17,799,778,856,325,897,50.0,-0.318,0.877,0.375
65964,1755606143818,19.04,68.39,43.17,802,776,856,411,900,33.333333333333336,-0.315,0.877,0.377
65993,1755606143820,19.07,68.41,43.14,796,772,858,400,897,34.48275862068966,-0.316,0.879,0.375
66023,1755606143822,19.05,68.42,43.17,800,779,863,362,899,33.333333333333336,-0.317,0.879,0.375
66053,1755606143824,19.05,68.45,43.2,793,778,864,337,898,33.333333333333336,-0.316,0.878,0.376
66073,1755606143826,19.05,68.47,43.2,799,778,856,403,897,50.0,-0.316,0.88,0.372
66103,1755606143827,19.05,68.47,43.2,793,775,860,364,898,33.333333333333336,-0.317,0.88,0.37
66132,1755606143829,19.07,68.48,43.22,795,776,857,407,896,34.48275862068966,-0.316,0.877,0.373
66162,1755606143831,19.06,68.45,43.22,797,777,857,423,892,33.333333333333336,-0.315,0.878,0.373
66192,1755606143833,19.07,68.46,43.18,798,779,856,415,895,33.333333333333336,-0.317,0.88,0.374
66212,1755606143835,19.08,68.45,43.18,797,774,862,400,904,50.0,-0.319,0.877,0.374
66242,1755606143837,19.06,68.4,43.18,799,782,859,394,891,33.333333333333336,-0.319,0.876,0.37
66271,1755606143839,19.04,68.36,43.2,798,777,858,358,898,34.48275862068966,-0.321,0.878,0.374
66301,1755606143841,19.07,68.36,43.19,800,777,852,360,896,33.333333333333336,-0.323,0.878,0.379
66331,1755606143843,19.11,68.37,43.19,800,774,858,428,894,33.333333333333336,-0.322,0.878,0.38
66361,1755606143845,19.16,68.38,43.2,792,780,858,419,900,33.333333333333336,-0.32,0.875,0.376
66390,1755606143847,19.18,68.43,43.23,797,771,856,387,896,34.48275862068966,-0.318,0.876,0.376
66410,1755606143849,19.2,68.49,43.21,800,784,857,410,894,50.0,-0.315,0.879,0.377
66440,1755606143851,19.27,68.64,43.16,795,778,858,367,897,33.333333333333336,-0.318,0.878,0.375
66460,1755606143853,19.3,68.74,43.13,794,774,855,406,898,50.0,-0.32,0.875,0.372
66481,1755606143855,19.31,68.84,43.06,796,778,858,398,902,47.61904761904762,-0.32,0.876,0.366
66511,1755606143859,19.27,68.84,42.96,801,775,850,405,894,33.333333333333336,-0.322,0.873,0.364
66540,1755606143861,19.01,69.24,42.91,798,778,847,377,892,34.48275862068966,-0.323,0.882,0.368
66570,1755606143863,18.93,69.63,42.9,797,777,848,360,894,33.333333333333336,-0.323,0.89,0.37
66600,1755606143865,18.94,69.68,42.84,795,778,842,385,893,33.333333333333336,-0.324,0.884,0.363
66620,1755606143867,18.94,69.68,42.83,798,780,841,363,893,50.0,-0.323,0.88,0.357
66650,1755606143869,18.85,69.91,42.99,798,779,844,395,889,33.333333333333336,-0.327,0.876,0.365
66680,1755606143872,18.83,70.19,43.04,794,779,845,421,888,33.333333333333336,-0.328,0.888,0.358
66700,1755606143873,18.82,70.34,42.99,797,782,837,375,887,50.0,-0.327,0.889,0.347
66729,1755606143876,18.88,70.14,42.96,796,777,834,408,887,34.48275862068966,-0.327,0.882,0.338
66759,1755606143878,18.73,70.12,43.1,795,782,833,414,888,33.333333333333336,-0.325,0.883,0.34
66789,1755606143880,18.73,70.19,43.15,796,782,841,376,891,33.333333333333336,-0.322,0.89,0.347
66819,1755606143882,18.8,70.22,43.09,792,781,841,349,884,33.333333333333336,-0.321,0.892,0.346
66849,1755606143883,18.8,70.14,43.06,795,772,832,380,887,33.333333333333336,-0.32,0.885,0.343
66878,1755606143886,18.78,70.08,43.13,798,774,841,402,888,34.48275862068966,-0.322,0.887,0.341
66908,1755606143887,18.75,70.05,43.15,795,778,851,395,887,33.333333333333336,-0.323,0.89,0.342
66938,1755606143889,18.74,70.01,43.13,794,777,834,364,884,33.333333333333336,-0.323,0.889,0.343
66968,1755606143891,18.77,70.02,43.16,796,779,837,365,889,33.333333333333336,-0.323,0.888,0.347
66998,1755606143893,18.79,69.99,43.2,791,775,841,408,885,33.333333333333336,-0.322,0.889,0.346
67028,1755606143895,18.78,69.96,43.2,791,776,832,414,886,33.333333333333336,-0.323,0.891,0.345
67057,1755606143897,18.81,69.96,43.2,795,772,831,379,893,34.48275862068966,-0.322,0.891,0.347
67087,1755606143899,18.82,69.95,43.22,794,774,842,351,886,33.333333333333336,-0.324,0.887,0.35
67117,1755606143902,18.83,70.04,43.3,795,776,837,382,892,33.333333333333336,-0.328,0.89,0.352
67146,1755606143904,18.86,70.08,43.37,795,784,839,427,885,34.48275862068966,-0.325,0.89,0.348
67176,1755606143905,18.84,70.11,43.44,796,779,840,409,883,33.333333333333336,-0.318,0.887,0.345
67196,1755606143908,18.85,70.1,43.45,795,777,834,358,888,50.0,-0.316,0.89,0.347
67226,1755606143910,18.41,70.16,43.39,792,773,840,381,885,33.333333333333336,-0.317,0.894,0.347
67256,1755606143911,18.44,70.21,43.35,793,779,839,346,908,33.333333333333336,-0.318,0.891,0.345
67276,1755606143913,18.47,70.23,43.35,796,772,840,422,885,50.0,-0.32,0.887,0.344
67305,1755606143915,18.48,70.22,43.36,794,777,839,357,889,34.48275862068966,-0.321,0.888,0.339
67335,1755606143918,18.47,70.19,43.36,792,775,840,360,887,33.333333333333336,-0.323,0.889,0.34
67365,1755606143920,18.51,70.21,43.42,796,777,841,413,886,33.333333333333336,-0.323,0.89,0.346
67395,1755606143921,18.57,70.23,43.39,796,776,835,436,881,33.333333333333336,-0.323,0.89,0.343
68278,1755606143924,18.91,70.33,43.74,794,779,843,430,878,1.1325028312570782,-0.325,0.883,0.344
68307,1755606143927,18.97,70.38,43.8,794,778,848,380,879,34.48275862068966,-0.325,0.89,0.345
68337,1755606143929,18.95,70.4,43.87,792,769,843,347,890,33.333333333333336,-0.319,0.887,0.342
68367,1755606143931,18.97,70.39,43.84,789,774,841,368,886,33.333333333333336,-0.32,0.885,0.343
68396,1755606143933,19.0,70.47,43.89,790,779,844,423,886,34.48275862068966,-0.322,0.891,0.345
68426,1755606143935,19.0,70.51,43.94,797,781,840,423,890,33.333333333333336,-0.322,0.89,0.341
68455,1755606143937,18.97,70.41,43.96,788,776,843,361,888,34.48275862068966,-0.32,0.886,0.337
68485,1755606143939,18.94,70.45,44.02,790,781,848,348,886,33.333333333333336,-0.32,0.889,0.341
68515,1755606143942,18.96,70.51,44.05,792,779,855,398,889,33.333333333333336,-0.32,0.893,0.345
68545,1755606143944,18.97,70.55,44.05,794,782,851,419,888,33.333333333333336,-0.312,0.889,0.341
68574,1755606143946,18.95,70.53,44.08,795,779,845,377,903,34.48275862068966,-0.312,0.888,0.34
68595,1755606143948,18.93,70.52,44.1,792,778,846,420,891,47.61904761904762,-0.312,0.891,0.34
68625,1755606143950,18.94,70.52,44.08,787,777,843,384,885,33.333333333333336,-0.315,0.893,0.343
68655,1755606143952,18.92,70.53,44.13,788,776,843,349,885,33.333333333333336,-0.316,0.89,0.341
68684,1755606143969,18.93,70.5,44.15,793,776,845,367,883,34.48275862068966,-0.315,0.89,0.341
68714,1755606143999,18.94,70.51,44.17,792,777,845,422,886,33.333333333333336,-0.316,0.892,0.343
68744,1755606144029,18.94,70.55,44.17,796,779,844,432,889,33.333333333333336,-0.314,0.893,0.342
68774,1755606144059,18.93,70.54,44.17,793,782,843,389,887,33.333333333333336,-0.313,0.891,0.34
68803,1755606144088,18.9,70.48,44.19,794,772,844,366,884,34.48275862068966,-0.315,0.89,0.34
68833,1755606144118,18.89,70.53,44.19,794,775,846,388,881,33.333333333333336,-0.316,0.894,0.34
68863,1755606144148,18.92,70.56,44.21,795,776,848,415,889,33.333333333333336,-0.317,0.891,0.343
68883,1755606144168,18.92,70.6,44.22,793,779,847,372,886,50.0,-0.316,0.893,0.338
68912,1755606144197,18.91,71.01,44.27,793,774,844,416,888,34.48275862068966,-0.312,0.888,0.343
68942,1755606144227,18.93,70.96,44.19,784,779,845,411,885,33.333333333333336,-0.315,0.893,0.341
68972,1755606144257,18.9,71.01,44.19,793,776,846,376,884,33.333333333333336,-0.318,0.894,0.338
69002,1755606144287,18.91,70.92,44.25,795,780,846,379,881,33.333333333333336,-0.319,0.885,0.342
69031,1755606144316,18.91,70.9,44.26,790,775,847,410,906,34.48275862068966,-0.32,0.893,0.339
69061,1755606144346,18.88,70.96,44.32,792,780,849,388,885,33.333333333333336,-0.317,0.892,0.339
69091,1755606144376,18.89,70.88,44.3,794,775,840,368,885,33.333333333333336,-0.315,0.89,0.339
69120,1755606144405,18.89,70.95,44.35,788,779,843,341,886,34.48275862068966,-0.315,0.892,0.343
69150,1755606144435,18.93,70.95,44.32,792,779,844,380,890,33.333333333333336,-0.317,0.892,0.344
69180,1755606144465,18.88,70.93,44.35,789,771,850,433,889,33.333333333333336,-0.317,0.891,0.337
69210,1755606144495,18.86,70.86,44.43,791,782,841,420,887,33.333333333333336,-0.316,0.887,0.343
69239,1755606144524,18.9,70.88,44.39,790,779,842,372,879,34.48275862068966,-0.319,0.893,0.343
69269,1755606144554,18.91,70.92,44.41,794,777,842,359,885,33.333333333333336,-0.316,0.89,0.34
69289,1755606144574,18.9,70.88,44.41,793,777,848,391,883,50.0,-0.315,0.889,0.335
69319,1755606144604,18.87,70.87,44.47,791,780,847,378,886,33.333333333333336,-0.312,0.888,0.34
69339,1755606144624,18.87,70.87,44.44,794,776,848,415,886,50.0,-0.315,0.896,0.34
69369,1755606144654,18.9,70.98,44.45,788,780,844,382,886,33.333333333333336,-0.318,0.893,0.344
69399,1755606144683,18.93,70.93,44.45,793,776,847,417,883,33.333333333333336,-0.318,0.891,0.338
69428,1755606144713,18.86,70.93,44.5,793,773,843,442,881,34.48275862068966,-0.316,0.892,0.333
69458,1755606144743,18.81,70.82,44.54,789,778,843,407,897,33.333333333333336,-0.317,0.889,0.341
69488,1755606144772,18.82,70.83,44.55,795,774,847,366,883,33.333333333333336,-0.32,0.895,0.343
69517,1755606144802,18.84,70.9,44.6,794,777,846,375,886,34.48275862068966,-0.316,0.893,0.341
69547,1755606144832,18.84,70.86,44.59,795,775,846,418,881,33.333333333333336,-0.313,0.89,0.34
69577,1755606144861,18.79,70.77,44.6,793,778,843,410,888,33.333333333333336,-0.317,0.888,0.345
69606,1755606144891,18.81,70.86,44.61,791,771,843,374,883,34.48275862068966,-0.32,0.893,0.344
69636,1755606144921,18.81,70.86,44.67,792,776,845,352,884,33.333333333333336,-0.317,0.89,0.341
69666,1755606144951,18.79,70.82,44.69,794,776,846,406,884,33.333333333333336,-0.314,0.889,0.341
69696,1755606144981,18.83,70.83,44.69,792,777,844,428,883,33.333333333333336,-0.315,0.893,0.345
69725,1755606145011,18.86,70.92,44.69,793,781,840,390,881,34.48275862068966,-0.316,0.895,0.341
69746,1755606145031,18.85,70.9,44.69,792,782,845,388,886,47.61904761904762,-0.315,0.89,0.336
69775,1755606145061,18.83,70.85,44.75,792,776,847,398,886,34.48275862068966,-0.315,0.889,0.337
69796,1755606145080,18.81,70.83,44.78,792,781,846,390,886,47.61904761904762,-0.315,0.894,0.339
69825,1755606145110,18.84,70.85,44.78,794,776,842,405,876,34.48275862068966,-0.316,0.894,0.342
69855,1755606145140,18.87,70.86,44.79,792,785,844,346,882,33.333333333333336,-0.315,0.893,0.34
69885,1755606145170,18.86,70.82,44.81,794,773,849,367,888,33.333333333333336,-0.314,0.891,0.341
69915,1755606145199,18.87,70.87,44.81,795,780,843,398,884,33.333333333333336,-0.316,0.895,0.34
69944,1755606145229,18.86,70.88,44.84,792,797,852,385,880,34.48275862068966,-0.317,0.893,0.339
69974,1755606145259,18.85,70.87,44.87,789,777,844,371,889,33.333333333333336,-0.315,0.891,0.338
70004,1755606145288,18.84,70.85,44.92,792,778,847,357,886,33.333333333333336,-0.314,0.892,0.34
70033,1755606145318,18.84,70.86,44.91,791,772,854,376,881,34.48275862068966,-0.314,0.894,0.339
70063,1755606145348,18.81,70.81,44.92,789,771,852,436,886,33.333333333333336,-0.313,0.892,0.338
70083,1755606145367,18.8,70.76,44.93,785,773,841,373,888,50.0,-0.313,0.89,0.339
70112,1755606145397,18.79,70.8,44.96,790,775,843,426,888,34.48275862068966,-0.314,0.894,0.34
70142,1755606145427,18.79,70.8,44.97,796,777,842,407,880,33.333333333333336,-0.313,0.892,0.341
70172,1755606145457,18.78,70.76,44.98,794,785,848,364,888,33.333333333333336,-0.313,0.891,0.34
70202,1755606145487,18.78,70.78,44.99,793,782,848,365,888,33.333333333333336,-0.313,0.894,0.338
70231,1755606145516,18.78,70.8,44.97,792,782,849,403,885,34.48275862068966,-0.314,0.893,0.341
70261,1755606145546,18.77,70.79,44.99,795,778,848,414,879,33.333333333333336,-0.314,0.893,0.339
70291,1755606145575,18.78,70.77,44.99,794,774,852,390,883,33.333333333333336,-0.314,0.892,0.34
70320,1755606145605,18.79,70.82,45.02,793,778,844,366,880,34.48275862068966,-0.316,0.895,0.342
70350,1755606145635,18.77,70.82,45.06,793,770,856,385,884,33.333333333333336,-0.312,0.892,0.34
70380,1755606145665,18.75,70.75,45.05,791,779,846,433,882,33.333333333333336,-0.311,0.89,0.339
70409,1755606145695,18.73,70.75,45.06,791,780,850,417,886,34.48275862068966,-0.315,0.894,0.34
70429,1755606145714,18.74,70.74,45.08,794,778,845,408,883,50.0,-0.316,0.894,0.344
70459,1755606145744,18.78,70.77,45.09,790,775,844,398,881,33.333333333333336,-0.314,0.892,0.343
70489,1755606145774,18.79,70.79,45.11,797,785,846,327,885,33.333333333333336,-0.313,0.892,0.341
70519,1755606145803,18.76,70.78,45.22,789,778,845,347,883,33.333333333333336,-0.316,0.893,0.34
70548,1755606145833,18.73,70.76,45.3,793,783,844,387,883,34.48275862068966,-0.313,0.891,0.341
70578,1755606145863,18.73,70.78,45.31,788,774,844,416,885,33.333333333333336,-0.311,0.893,0.34
70608,1755606145892,18.68,70.76,45.32,791,779,848,384,891,33.333333333333336,-0.31,0.894,0.34
70637,1755606145922,18.66,70.74,45.32,790,776,844,353,886,34.48275862068966,-0.311,0.893,0.344
70667,1755606145952,18.68,70.8,45.35,789,770,848,383,888,33.333333333333336,-0.314,0.895,0.343
70697,1755606145982,18.68,70.79,45.36,794,778,850,431,885,33.333333333333336,-0.311,0.892,0.34
70727,1755606146012,18.65,70.72,45.41,788,778,850,412,883,33.333333333333336,-0.31,0.891,0.341
70756,1755606146042,18.64,70.75,45.41,790,778,849,381,887,34.48275862068966,-0.31,0.896,0.342
70786,1755606146071,18.65,70.76,45.38,789,782,843,365,883,33.333333333333336,-0.309,0.895,0.342
70816,1755606146101,18.62,70.73,45.41,793,776,849,382,885,33.333333333333336,-0.31,0.891,0.343
70846,1755606146131,18.63,70.69,45.43,794,776,852,426,900,33.333333333333336,-0.312,0.893,0.343
70875,1755606146161,18.65,70.76,45.44,791,770,848,410,884,34.48275862068966,-0.311,0.895,0.342
70896,1755606146180,18.66,70.75,45.44,795,775,845,402,882,47.61904761904762,-0.311,0.896,0.342
70925,1755606146210,18.64,70.75,45.47,788,784,852,409,887,34.48275862068966,-0.308,0.894,0.339
70955,1755606146240,18.63,70.71,45.47,791,780,850,348,882,33.333333333333336,-0.309,0.896,0.341
70984,1755606146269,18.63,70.69,45.49,791,776,844,354,886,34.48275862068966,-0.31,0.895,0.345
71014,1755606146299,18.65,70.71,45.48,788,781,850,401,888,33.333333333333336,-0.309,0.895,0.342
71044,1755606146329,18.63,70.69,45.49,791,779,849,419,887,33.333333333333336,-0.309,0.894,0.338
71073,1755606146358,18.56,70.6,45.52,788,776,846,389,880,34.48275862068966,-0.31,0.892,0.34
71103,1755606146388,18.57,70.63,45.57,790,779,845,352,887,33.333333333333336,-0.311,0.894,0.343
71133,1755606146418,18.59,70.63,45.56,794,779,847,379,884,33.333333333333336,-0.311,0.896,0.343
71163,1755606146447,18.56,70.67,45.59,793,781,843,409,887,33.333333333333336,-0.309,0.894,0.342
71192,1755606146477,18.56,70.66,45.61,794,778,846,401,881,34.48275862068966,-0.309,0.893,0.342
71222,1755606146507,18.53,70.57,45.66,787,780,846,372,886,33.333333333333336,-0.311,0.892,0.344
71251,1755606146536,18.54,70.61,45.69,791,778,842,372,882,34.48275862068966,-0.311,0.896,0.345
71281,1755606146566,18.56,70.67,45.74,790,771,844,410,885,33.333333333333336,-0.31,0.894,0.344
71311,1755606146596,18.55,70.67,45.76,793,772,849,424,885,33.333333333333336,-0.31,0.894,0.342
71341,1755606146626,18.52,70.66,45.81,791,776,848,404,888,33.333333333333336,-0.307,0.896,0.342
71371,1755606146656,18.53,70.71,45.81,792,774,846,373,882,33.333333333333336,-0.307,0.896,0.344
