timestamp_ms,recv_timestamp_ms,pitch,roll,yaw,flex1,flex2,flex3,flex4,flex5,sampling_hz,accel_x,accel_y,accel_z
17166,1755601764677,21.29,41.86,12.34,779,768,810,335,904,34.48275862068966,-0.318,0.737,0.563
17196,1755601764706,21.03,41.77,12.25,789,776,800,294,889,33.333333333333336,-0.301,0.737,0.564
17225,1755601764735,20.84,41.78,12.1,781,771,799,399,890,34.48275862068966,-0.29,0.734,0.569
17254,1755601764765,20.69,41.87,12.0,775,769,786,401,891,34.48275862068966,-0.291,0.743,0.584
17284,1755601764794,20.58,42.09,11.96,776,779,793,350,895,33.333333333333336,-0.293,0.753,0.601
17313,1755601764823,20.55,42.5,11.95,776,778,785,327,893,34.48275862068966,-0.297,0.76,0.616
17343,1755601764853,20.53,42.82,11.88,780,776,786,351,885,33.333333333333336,-0.302,0.751,0.625
17372,1755601764882,20.4,43.35,11.84,784,769,789,434,894,34.48275862068966,-0.31,0.75,0.621
17402,1755601764912,20.06,43.68,11.97,776,773,778,393,890,33.333333333333336,-0.314,0.74,0.62
17431,1755601764941,19.79,44.26,12.19,786,771,783,314,881,34.48275862068966,-0.318,0.743,0.621
17460,1755601764971,19.57,44.71,12.4,790,783,788,362,889,34.48275862068966,-0.322,0.752,0.623
17490,1755601765001,19.43,45.04,12.62,785,778,782,440,892,33.333333333333336,-0.323,0.753,0.622
17520,1755601765030,19.43,45.55,13.01,795,784,803,406,898,33.333333333333336,-0.324,0.753,0.621
17549,1755601765059,19.23,46.13,13.71,788,801,820,308,900,34.48275862068966,-0.325,0.759,0.613
17578,1755601765089,18.81,46.7,14.46,795,823,849,347,898,34.48275862068966,-0.31,0.763,0.593
17608,1755601765118,18.69,46.73,14.72,797,861,858,425,903,33.333333333333336,-0.28,0.767,0.565
17638,1755601765148,18.28,46.43,14.59,802,864,876,379,902,33.333333333333336,-0.254,0.783,0.542
17667,1755601765177,17.89,46.11,14.33,800,881,876,329,904,34.48275862068966,-0.239,0.79,0.539
17696,1755601765207,17.28,45.53,13.96,796,896,873,320,900,34.48275862068966,-0.223,0.781,0.546
17726,1755601765237,16.76,44.95,13.44,798,910,874,359,895,33.333333333333336,-0.224,0.778,0.559
17755,1755601765266,16.45,44.52,12.99,795,900,873,440,898,34.48275862068966,-0.23,0.775,0.58
17785,1755601765295,16.41,44.28,12.81,787,893,872,409,899,33.333333333333336,-0.25,0.766,0.601
17814,1755601765325,16.2,44.57,12.97,792,900,872,290,903,34.48275862068966,-0.238,0.788,0.655
17844,1755601765354,16.74,44.86,12.83,787,883,880,302,906,33.333333333333336,-0.259,0.8,0.654
17873,1755601765384,17.24,45.55,12.93,786,874,879,415,904,34.48275862068966,-0.267,0.788,0.645
17903,1755601765413,17.3,46.36,13.43,786,870,878,364,897,33.333333333333336,-0.255,0.778,0.631
17932,1755601765443,17.63,47.17,13.67,784,866,875,303,894,34.48275862068966,-0.243,0.777,0.623
17962,1755601765472,17.74,47.57,13.68,788,854,868,331,902,33.333333333333336,-0.237,0.778,0.608
17991,1755601765502,17.81,47.93,13.57,780,855,863,418,896,34.48275862068966,-0.234,0.775,0.596
18021,1755601765531,17.83,48.21,13.43,787,856,846,437,904,33.333333333333336,-0.242,0.781,0.593
18050,1755601765560,17.64,48.27,13.31,786,839,846,357,898,34.48275862068966,-0.247,0.786,0.591
18080,1755601765590,17.65,48.33,13.04,775,842,837,321,882,33.333333333333336,-0.248,0.781,0.591
18109,1755601765619,17.7,48.62,12.82,787,853,813,389,887,34.48275862068966,-0.26,0.786,0.596
18138,1755601765648,17.7,48.86,12.78,787,859,826,439,891,34.48275862068966,-0.261,0.784,0.593
18168,1755601765678,17.77,49.14,12.7,783,872,830,379,892,33.333333333333336,-0.266,0.785,0.588
18197,1755601765707,17.7,49.21,12.67,786,861,835,315,891,34.48275862068966,-0.273,0.79,0.578
18227,1755601765737,17.52,49.01,12.58,777,874,844,377,895,33.333333333333336,-0.271,0.784,0.569
18256,1755601765766,17.41,48.75,12.47,779,872,853,446,896,34.48275862068966,-0.264,0.777,0.562
18285,1755601765795,17.31,48.59,12.42,783,870,854,403,886,34.48275862068966,-0.264,0.782,0.562
18315,1755601765825,17.15,48.37,12.41,784,870,854,308,889,33.333333333333336,-0.266,0.784,0.569
18345,1755601765855,17.06,48.13,12.31,781,875,841,325,885,33.333333333333336,-0.267,0.783,0.573
18374,1755601765884,16.94,47.88,12.3,782,874,843,418,886,34.48275862068966,-0.264,0.779,0.575
18403,1755601765914,16.84,47.6,12.22,778,868,848,422,889,34.48275862068966,-0.258,0.769,0.584
18433,1755601765943,16.79,47.41,12.12,787,864,832,314,894,33.333333333333336,-0.263,0.767,0.597
18462,1755601765973,16.75,47.3,12.07,781,870,841,311,896,34.48275862068966,-0.27,0.766,0.607
18492,1755601766002,16.77,47.39,12.13,786,873,842,396,891,33.333333333333336,-0.276,0.76,0.616
18521,1755601766031,16.73,47.46,12.28,784,867,830,427,893,34.48275862068966,-0.282,0.756,0.619
18550,1755601766061,16.77,47.52,12.41,782,878,847,318,884,34.48275862068966,-0.281,0.753,0.614
18580,1755601766090,16.78,47.55,12.61,778,870,848,286,884,33.333333333333336,-0.276,0.747,0.611
18609,1755601766119,16.81,47.53,12.83,783,868,848,368,885,34.48275862068966,-0.273,0.751,0.608
18638,1755601766149,16.79,47.45,12.93,782,879,848,436,886,34.48275862068966,-0.265,0.748,0.611
18668,1755601766178,16.81,47.41,12.93,785,883,844,380,884,33.333333333333336,-0.266,0.752,0.612
18697,1755601766207,16.89,47.39,13.04,783,873,851,321,882,34.48275862068966,-0.264,0.752,0.62
18726,1755601766236,16.91,47.43,13.17,783,874,849,378,889,34.48275862068966,-0.261,0.752,0.628
18756,1755601766266,16.98,47.62,13.23,778,873,850,433,890,33.333333333333336,-0.26,0.755,0.633
18785,1755601766295,16.96,47.69,13.39,778,868,855,400,888,34.48275862068966,-0.262,0.76,0.628
18814,1755601766325,16.86,47.64,13.49,780,867,852,308,887,34.48275862068966,-0.251,0.747,0.62
18844,1755601766354,16.88,47.58,13.56,783,853,845,355,892,33.333333333333336,-0.25,0.745,0.613
18873,1755601766383,16.83,47.51,13.61,788,869,845,438,888,34.48275862068966,-0.25,0.749,0.612
18902,1755601766413,16.79,47.46,13.63,788,875,841,414,887,34.48275862068966,-0.251,0.748,0.617
18932,1755601766442,16.75,47.49,13.68,779,872,851,314,883,33.333333333333336,-0.252,0.748,0.623
18961,1755601766471,16.69,47.46,13.72,783,869,858,347,889,34.48275862068966,-0.253,0.747,0.625
18991,1755601766501,16.67,47.46,13.74,797,864,851,450,887,33.333333333333336,-0.252,0.745,0.625
19020,1755601766530,16.69,47.42,13.8,782,865,846,422,894,34.48275862068966,-0.252,0.743,0.624
19049,1755601766560,16.62,47.3,13.85,785,866,841,337,900,34.48275862068966,-0.25,0.743,0.623
19079,1755601766589,16.56,47.25,13.83,783,871,851,298,889,33.333333333333336,-0.247,0.741,0.624
19108,1755601766619,16.54,47.08,13.79,777,871,843,407,876,34.48275862068966,-0.246,0.74,0.629
19138,1755601766648,16.51,46.99,13.75,784,864,844,446,885,33.333333333333336,-0.247,0.74,0.632
19167,1755601766677,16.47,46.98,13.74,780,872,845,387,884,34.48275862068966,-0.248,0.735,0.64
19197,1755601766707,16.47,46.99,13.72,785,858,843,322,889,33.333333333333336,-0.252,0.737,0.642
19226,1755601766736,16.43,47.0,13.77,780,863,841,396,886,34.48275862068966,-0.255,0.737,0.641
19255,1755601766766,16.41,47.01,13.84,780,862,835,471,889,34.48275862068966,-0.254,0.734,0.639
19285,1755601766795,16.38,47.03,13.89,777,861,843,406,902,33.333333333333336,-0.251,0.735,0.637
19314,1755601766824,16.35,46.99,13.91,777,862,844,338,887,34.48275862068966,-0.246,0.734,0.641
19343,1755601766854,16.31,47.04,13.91,780,862,837,349,883,34.48275862068966,-0.245,0.737,0.645
19373,1755601766883,16.27,47.1,13.9,782,867,837,451,879,33.333333333333336,-0.244,0.737,0.645
19403,1755601766913,16.25,47.11,13.89,782,862,847,408,878,33.333333333333336,-0.244,0.734,0.642
19432,1755601766942,16.19,47.13,13.92,785,854,834,322,886,34.48275862068966,-0.244,0.733,0.639
19461,1755601766972,16.14,47.13,13.93,777,862,837,338,885,34.48275862068966,-0.246,0.735,0.639
19491,1755601767001,16.09,47.15,13.93,786,855,858,452,881,33.333333333333336,-0.248,0.735,0.641
19520,1755601767031,16.0,47.2,13.99,771,863,846,421,884,34.48275862068966,-0.248,0.735,0.642
19550,1755601767060,15.91,47.21,14.07,777,865,841,350,889,33.333333333333336,-0.245,0.733,0.642
19579,1755601767089,15.86,47.24,14.18,779,855,836,285,889,34.48275862068966,-0.244,0.733,0.643
19608,1755601767119,15.82,47.27,14.21,779,861,826,378,882,34.48275862068966,-0.241,0.735,0.643
19638,1755601767148,15.8,47.25,14.18,778,865,839,425,880,33.333333333333336,-0.239,0.736,0.644
19667,1755601767178,15.76,47.29,14.19,776,858,839,367,887,34.48275862068966,-0.239,0.735,0.645
19697,1755601767207,15.74,47.3,14.19,782,850,836,318,881,33.333333333333336,-0.24,0.735,0.645
19726,1755601767236,15.71,47.31,14.21,780,860,825,368,886,34.48275862068966,-0.243,0.734,0.645
19756,1755601767266,15.67,47.26,14.21,781,857,834,446,884,33.333333333333336,-0.243,0.732,0.644
19785,1755601767295,15.61,47.26,14.28,777,860,839,399,881,34.48275862068966,-0.243,0.732,0.645
19814,1755601767324,15.57,47.29,14.33,786,852,845,318,872,34.48275862068966,-0.241,0.734,0.648
19844,1755601767354,15.54,47.31,14.36,784,859,829,344,891,33.333333333333336,-0.24,0.735,0.648
19873,1755601767383,15.48,47.31,14.42,781,861,842,429,886,34.48275862068966,-0.237,0.732,0.648
19902,1755601767412,15.41,47.31,14.47,778,860,838,417,884,34.48275862068966,-0.237,0.734,0.647
19932,1755601767442,15.33,47.25,14.5,787,859,841,329,873,33.333333333333336,-0.236,0.733,0.647
19961,1755601767472,15.27,47.24,14.54,791,859,838,356,881,34.48275862068966,-0.237,0.734,0.649
19991,1755601767501,15.21,47.21,14.62,781,863,835,436,886,33.333333333333336,-0.235,0.733,0.649
20020,1755601767531,15.16,47.18,14.68,780,853,833,397,889,34.48275862068966,-0.233,0.732,0.649
20050,1755601767560,15.1,47.13,14.71,780,854,844,338,879,33.333333333333336,-0.231,0.732,0.649
20079,1755601767590,15.07,47.07,14.69,790,858,840,337,883,34.48275862068966,-0.229,0.733,0.651
20109,1755601767619,15.06,47.03,14.66,785,855,832,410,879,33.333333333333336,-0.229,0.732,0.654
20138,1755601767649,15.03,47.01,14.66,780,852,835,438,881,34.48275862068966,-0.23,0.731,0.656
20167,1755601767678,14.99,47.04,14.68,778,853,831,384,877,34.48275862068966,-0.23,0.731,0.655
20197,1755601767707,14.97,47.06,14.7,780,856,833,316,880,33.333333333333336,-0.23,0.73,0.655
20226,1755601767736,14.93,47.08,14.73,784,854,835,353,894,34.48275862068966,-0.229,0.73,0.655
20255,1755601767766,14.91,47.05,14.72,780,862,830,451,883,34.48275862068966,-0.228,0.73,0.655
20285,1755601767795,14.85,47.04,14.72,777,857,824,398,878,33.333333333333336,-0.226,0.731,0.655
20314,1755601767825,14.82,47.03,14.69,775,851,835,324,885,34.48275862068966,-0.224,0.73,0.655
20344,1755601767854,14.8,47.01,14.64,776,848,836,341,877,33.333333333333336,-0.225,0.729,0.657
20373,1755601767883,14.77,46.98,14.61,780,850,836,441,875,34.48275862068966,-0.228,0.727,0.659
20402,1755601767913,14.74,46.95,14.59,784,843,834,422,879,34.48275862068966,-0.229,0.725,0.66
20432,1755601767942,14.75,46.96,14.57,782,850,840,335,874,33.333333333333336,-0.231,0.725,0.661
20461,1755601767971,14.76,46.98,14.54,773,865,836,330,880,34.48275862068966,-0.231,0.726,0.66
20491,1755601768001,14.78,46.95,14.5,780,853,831,431,884,33.333333333333336,-0.231,0.724,0.658
20520,1755601768030,14.76,46.95,14.5,781,857,838,438,882,34.48275862068966,-0.231,0.724,0.658
20549,1755601768059,14.76,46.94,14.5,783,856,843,354,883,34.48275862068966,-0.233,0.725,0.66
20578,1755601768089,14.75,46.97,14.52,778,855,839,340,879,34.48275862068966,-0.232,0.725,0.661
20608,1755601768118,14.75,46.99,14.53,786,852,838,412,881,33.333333333333336,-0.23,0.725,0.66
20637,1755601768148,14.75,47.0,14.53,790,841,832,439,875,34.48275862068966,-0.227,0.725,0.658
20667,1755601768177,14.71,47.04,14.5,782,848,826,366,883,33.333333333333336,-0.225,0.727,0.657
20696,1755601768206,14.67,47.02,14.44,782,848,830,283,876,34.48275862068966,-0.227,0.726,0.659
20726,1755601768236,14.64,47.0,14.39,783,851,836,365,882,33.333333333333336,-0.23,0.723,0.659
20755,1755601768265,14.64,46.98,14.36,777,854,830,439,882,34.48275862068966,-0.235,0.723,0.66
20784,1755601768295,14.62,47.0,14.37,779,857,829,397,884,34.48275862068966,-0.237,0.721,0.661
20814,1755601768324,14.6,47.0,14.4,780,866,836,318,886,33.333333333333336,-0.237,0.723,0.661
20843,1755601768353,14.59,47.02,14.43,779,850,835,364,881,34.48275862068966,-0.236,0.722,0.661
20872,1755601768383,14.58,47.01,14.45,785,856,836,437,885,34.48275862068966,-0.234,0.721,0.661
20902,1755601768412,14.58,47.01,14.47,781,854,836,408,893,33.333333333333336,-0.233,0.721,0.662
20931,1755601768442,14.59,46.99,14.47,781,851,834,332,880,34.48275862068966,-0.233,0.723,0.661
20961,1755601768471,14.56,46.98,14.5,782,856,832,348,888,33.333333333333336,-0.232,0.722,0.66
20990,1755601768501,14.52,46.96,14.52,785,850,840,439,881,34.48275862068966,-0.229,0.722,0.659
21020,1755601768530,14.52,46.96,14.49,780,855,832,426,885,33.333333333333336,-0.228,0.724,0.66
21049,1755601768559,14.49,46.95,14.45,783,852,829,334,881,34.48275862068966,-0.228,0.724,0.662
21079,1755601768589,14.48,46.96,14.42,783,849,840,326,881,33.333333333333336,-0.229,0.722,0.663
21108,1755601768618,14.5,46.98,14.37,783,859,833,394,875,34.48275862068966,-0.233,0.721,0.663
21137,1755601768648,14.5,47.0,14.37,778,847,831,430,883,34.48275862068966,-0.236,0.719,0.664
21167,1755601768677,14.51,47.02,14.39,784,857,831,354,883,33.333333333333336,-0.237,0.72,0.663
21196,1755601768707,14.53,47.05,14.39,784,850,836,326,883,34.48275862068966,-0.237,0.72,0.663
21225,1755601768736,14.54,47.06,14.4,785,854,837,380,882,34.48275862068966,-0.236,0.721,0.663
21255,1755601768765,14.54,47.06,14.39,775,857,836,440,887,33.333333333333336,-0.235,0.714,0.662
21284,1755601768794,14.55,47.03,14.38,777,853,836,372,877,34.48275862068966,-0.235,0.715,0.661
21313,1755601768824,14.55,47.01,14.38,780,857,836,310,876,34.48275862068966,-0.237,0.717,0.661
21343,1755601768853,14.53,47.0,14.4,785,855,828,358,884,33.333333333333336,-0.235,0.717,0.663
21372,1755601768882,14.53,47.02,14.41,776,850,831,426,877,34.48275862068966,-0.235,0.719,0.664
21402,1755601768912,14.52,47.07,14.43,778,858,832,395,881,33.333333333333336,-0.234,0.719,0.664
21431,1755601768941,14.51,47.09,14.43,783,846,837,320,885,34.48275862068966,-0.234,0.719,0.662
21460,1755601768971,14.51,47.11,14.43,775,859,835,337,887,34.48275862068966,-0.235,0.72,0.661
21490,1755601769000,14.52,47.19,14.45,779,844,839,429,878,33.333333333333336,-0.236,0.722,0.662
21519,1755601769029,14.52,47.21,14.47,783,853,835,412,875,34.48275862068966,-0.237,0.723,0.66
21548,1755601769059,14.51,47.19,14.48,779,846,833,315,880,34.48275862068966,-0.236,0.72,0.658
21578,1755601769088,14.48,47.17,14.49,782,852,833,331,877,33.333333333333336,-0.236,0.721,0.659
21607,1755601769118,14.45,47.16,14.49,776,844,828,429,876,34.48275862068966,-0.237,0.724,0.662
21637,1755601769147,14.44,47.2,14.51,779,858,830,446,878,33.333333333333336,-0.237,0.723,0.661
21666,1755601769177,14.41,47.21,14.55,782,849,835,361,875,34.48275862068966,-0.235,0.722,0.658
21696,1755601769206,14.4,47.22,14.56,781,856,832,328,877,33.333333333333336,-0.233,0.724,0.657
21725,1755601769236,14.39,47.21,14.57,774,855,834,403,886,34.48275862068966,-0.233,0.724,0.659
21754,1755601769265,14.36,47.22,14.59,774,860,836,430,882,34.48275862068966,-0.233,0.725,0.658
21784,1755601769294,14.34,47.24,14.6,784,858,834,343,874,33.333333333333336,-0.232,0.724,0.657
21813,1755601769324,14.32,47.2,14.6,782,853,836,315,887,34.48275862068966,-0.231,0.724,0.656
21843,1755601769353,14.3,47.19,14.59,783,856,835,364,885,33.333333333333336,-0.231,0.726,0.658
21872,1755601769382,14.29,47.17,14.59,783,856,832,449,881,34.48275862068966,-0.232,0.726,0.66
21901,1755601769412,14.28,47.2,14.6,779,850,832,400,879,34.48275862068966,-0.232,0.725,0.658
21931,1755601769441,14.27,47.16,14.62,782,861,836,314,882,33.333333333333336,-0.231,0.723,0.656
21960,1755601769470,14.26,47.13,14.62,780,847,830,362,877,34.48275862068966,-0.231,0.722,0.658
21990,1755601769500,14.26,47.14,14.63,772,853,833,443,880,33.333333333333336,-0.232,0.723,0.661
22019,1755601769529,14.25,47.15,14.64,780,850,830,421,878,34.48275862068966,-0.232,0.723,0.661
22048,1755601769559,14.23,47.16,14.66,780,855,832,327,878,34.48275862068966,-0.231,0.722,0.66
22078,1755601769588,14.21,47.15,14.68,781,857,823,334,871,33.333333333333336,-0.231,0.723,0.66
22107,1755601769617,14.2,47.14,14.7,779,858,851,434,884,34.48275862068966,-0.23,0.722,0.662
22136,1755601769647,14.2,47.14,14.69,777,858,838,424,880,34.48275862068966,-0.23,0.723,0.663
22166,1755601769676,14.18,47.17,14.7,778,855,830,332,881,33.333333333333336,-0.23,0.723,0.662
22195,1755601769705,14.17,47.18,14.71,777,848,835,316,876,34.48275862068966,-0.23,0.723,0.662
22224,1755601769735,14.18,47.16,14.71,779,858,830,407,883,34.48275862068966,-0.23,0.722,0.661
22254,1755601769764,14.19,47.14,14.7,783,857,833,427,882,33.333333333333336,-0.231,0.723,0.66
22283,1755601769794,14.19,47.15,14.71,780,856,830,361,873,34.48275862068966,-0.23,0.722,0.662
22313,1755601769823,14.18,47.15,14.71,779,852,829,329,878,33.333333333333336,-0.229,0.722,0.663
22342,1755601769852,14.15,47.14,14.71,779,859,840,400,871,34.48275862068966,-0.23,0.722,0.663
22371,1755601769882,14.13,47.14,14.72,783,852,827,444,881,34.48275862068966,-0.23,0.722,0.663
22401,1755601769911,14.12,47.15,14.72,782,850,829,389,878,33.333333333333336,-0.231,0.722,0.665
22430,1755601769941,14.09,47.18,14.75,784,849,837,331,876,34.48275862068966,-0.231,0.722,0.665
22460,1755601769970,14.05,47.26,14.78,781,855,830,366,877,33.333333333333336,-0.23,0.723,0.663
22489,1755601769999,14.04,47.27,14.8,783,857,829,451,891,34.48275862068966,-0.229,0.724,0.661
22518,1755601770029,14.01,47.24,14.78,777,859,837,418,885,34.48275862068966,-0.226,0.724,0.659
22548,1755601770058,13.98,47.21,14.74,784,850,828,319,880,33.333333333333336,-0.226,0.724,0.66
22577,1755601770088,13.97,47.2,14.72,780,856,828,361,879,34.48275862068966,-0.228,0.724,0.663
22607,1755601770117,13.92,47.24,14.76,780,852,833,450,879,33.333333333333336,-0.23,0.725,0.664
22636,1755601770147,13.89,47.27,14.77,779,852,834,416,880,34.48275862068966,-0.229,0.722,0.664
22666,1755601770176,13.88,47.26,14.78,780,849,822,344,871,33.333333333333336,-0.229,0.722,0.664
22695,1755601770206,13.84,47.27,14.8,778,844,834,333,882,34.48275862068966,-0.228,0.723,0.664
22725,1755601770235,13.83,47.32,14.8,787,856,839,409,877,33.333333333333336,-0.227,0.723,0.665
22754,1755601770264,13.82,47.35,14.8,781,843,847,429,877,34.48275862068966,-0.226,0.723,0.664
22783,1755601770294,13.81,47.36,14.81,773,854,831,375,874,34.48275862068966,-0.225,0.722,0.663
22813,1755601770323,13.8,47.4,14.81,781,851,834,330,887,33.333333333333336,-0.225,0.724,0.663
22842,1755601770352,13.79,47.42,14.83,782,850,831,369,877,34.48275862068966,-0.225,0.725,0.662
22871,1755601770382,13.76,47.43,14.83,780,846,826,440,880,34.48275862068966,-0.223,0.724,0.66
22901,1755601770411,13.74,47.42,14.81,781,858,832,398,879,33.333333333333336,-0.223,0.724,0.66
22930,1755601770440,13.72,47.45,14.81,779,845,833,314,881,34.48275862068966,-0.224,0.726,0.661
22959,1755601770470,13.71,47.46,14.79,783,849,834,357,882,34.48275862068966,-0.224,0.725,0.661
22989,1755601770499,13.69,47.47,14.78,774,853,827,426,895,33.333333333333336,-0.225,0.726,0.66
23018,1755601770529,13.68,47.44,14.77,786,848,827,404,891,34.48275862068966,-0.225,0.724,0.661
23047,1755601770558,13.63,47.47,14.78,779,851,829,327,881,34.48275862068966,-0.225,0.727,0.661
23077,1755601770588,13.63,47.47,14.78,776,854,830,340,871,33.333333333333336,-0.225,0.726,0.662
23107,1755601770617,13.6,47.51,14.77,782,853,827,422,872,33.333333333333336,-0.224,0.727,0.661
23136,1755601770647,13.63,47.53,14.76,779,849,828,408,877,34.48275862068966,-0.225,0.725,0.661
23166,1755601770676,13.57,47.56,14.77,781,860,828,333,881,33.333333333333336,-0.225,0.727,0.661
23195,1755601770706,13.55,47.59,14.78,784,847,833,319,877,34.48275862068966,-0.224,0.727,0.661
23225,1755601770735,13.55,47.61,14.8,779,839,831,415,881,33.333333333333336,-0.222,0.728,0.658
23254,1755601770765,13.54,47.59,14.79,788,849,828,437,872,34.48275862068966,-0.221,0.726,0.658
23284,1755601770795,13.52,47.59,14.77,780,849,833,367,872,33.333333333333336,-0.222,0.726,0.66
23313,1755601770824,13.51,47.61,14.75,784,852,836,317,879,34.48275862068966,-0.223,0.728,0.662
23343,1755601770853,13.5,47.63,14.76,781,849,822,357,876,33.333333333333336,-0.224,0.728,0.661
23372,1755601770883,13.5,47.65,14.76,788,846,830,435,885,34.48275862068966,-0.222,0.727,0.659
23402,1755601770912,13.46,47.67,14.77,785,860,824,411,884,33.333333333333336,-0.222,0.728,0.66
23431,1755601770941,13.44,47.67,14.76,779,849,837,320,878,34.48275862068966,-0.222,0.729,0.66
23460,1755601770971,13.42,47.68,14.75,785,850,827,351,880,34.48275862068966,-0.222,0.728,0.66
23490,1755601771000,13.43,47.7,14.73,785,845,827,447,878,33.333333333333336,-0.223,0.728,0.66
23519,1755601771030,13.43,47.69,14.72,779,843,832,415,872,34.48275862068966,-0.225,0.728,0.66
23549,1755601771059,13.42,47.68,14.74,777,845,814,320,875,33.333333333333336,-0.225,0.726,0.66
23578,1755601771089,13.41,47.69,14.76,776,842,833,336,878,34.48275862068966,-0.225,0.728,0.66
23607,1755601771118,13.42,47.7,14.77,779,854,829,433,874,34.48275862068966,-0.223,0.729,0.66
23637,1755601771147,13.41,47.74,14.78,777,853,827,440,887,33.333333333333336,-0.222,0.729,0.66
23666,1755601771177,13.41,47.75,14.79,781,843,826,361,869,34.48275862068966,-0.221,0.729,0.658
23696,1755601771206,13.39,47.72,14.78,786,842,831,332,879,33.333333333333336,-0.222,0.728,0.658
23725,1755601771235,13.39,47.69,14.78,783,854,832,397,875,34.48275862068966,-0.223,0.727,0.659
23754,1755601771265,13.38,47.73,14.79,780,854,830,433,880,34.48275862068966,-0.224,0.73,0.661
23774,1755601771285,13.38,47.75,14.81,775,849,821,386,883,50.0,-0.224,0.728,0.662
23803,1755601771314,13.37,47.81,14.83,781,841,828,422,881,34.48275862068966,-0.223,0.729,0.659
23833,1755601771343,13.36,47.81,14.84,780,847,837,347,878,33.333333333333336,-0.222,0.728,0.657
23863,1755601771373,13.34,47.8,14.84,780,850,817,321,874,33.333333333333336,-0.221,0.73,0.657
23892,1755601771402,13.34,47.81,14.83,781,848,829,389,884,34.48275862068966,-0.221,0.731,0.658
23921,1755601771432,13.33,47.82,14.83,785,851,825,434,880,34.48275862068966,-0.22,0.73,0.657
23951,1755601771462,13.32,47.8,14.8,776,848,822,397,875,33.333333333333336,-0.22,0.729,0.656
23981,1755601771491,13.3,47.75,14.79,776,845,830,332,879,33.333333333333336,-0.221,0.729,0.657
24010,1755601771521,13.28,47.75,14.79,780,843,830,367,877,34.48275862068966,-0.221,0.728,0.659
24040,1755601771551,13.3,47.79,14.77,776,843,821,430,877,33.333333333333336,-0.223,0.73,0.66
24060,1755601771570,13.3,47.81,14.77,779,851,832,332,878,50.0,-0.223,0.729,0.658
24090,1755601771600,13.29,47.8,14.77,782,849,831,434,869,33.333333333333336,-0.221,0.728,0.656
24119,1755601771629,13.27,47.79,14.76,788,851,832,409,884,34.48275862068966,-0.22,0.73,0.656
24148,1755601771658,13.27,47.78,14.73,781,858,826,329,878,34.48275862068966,-0.22,0.731,0.657
24177,1755601771688,13.25,47.8,14.72,782,846,841,338,867,34.48275862068966,-0.221,0.731,0.657
24207,1755601771718,13.26,47.77,14.7,784,847,833,435,879,33.333333333333336,-0.222,0.729,0.658
24227,1755601771738,13.26,47.79,14.68,779,848,832,338,881,50.0,-0.223,0.729,0.66
24257,1755601771767,13.26,47.79,14.69,783,846,835,448,876,33.333333333333336,-0.222,0.729,0.659
24286,1755601771797,13.25,47.79,14.68,781,860,824,431,884,34.48275862068966,-0.221,0.73,0.656
24316,1755601771826,13.23,47.74,14.67,779,854,826,306,883,33.333333333333336,-0.22,0.729,0.654
24345,1755601771856,13.2,47.71,14.66,781,856,822,318,883,34.48275862068966,-0.221,0.727,0.658
24375,1755601771885,13.21,47.74,14.65,782,851,817,395,872,33.333333333333336,-0.223,0.729,0.663
24404,1755601771914,13.21,47.81,14.67,783,850,835,409,886,34.48275862068966,-0.223,0.729,0.662
24433,1755601771944,13.24,47.85,14.67,779,852,827,355,872,34.48275862068966,-0.221,0.727,0.657
24453,1755601771964,13.24,47.83,14.67,779,851,823,427,877,50.0,-0.221,0.727,0.654
24483,1755601771994,13.23,47.82,14.66,785,841,836,338,874,33.333333333333336,-0.221,0.729,0.655
24513,1755601772024,13.24,47.84,14.65,782,854,829,339,876,33.333333333333336,-0.221,0.729,0.659
24542,1755601772053,13.25,47.87,14.64,782,841,825,386,876,34.48275862068966,-0.221,0.729,0.656
24571,1755601772082,13.23,47.84,14.64,780,851,823,429,876,34.48275862068966,-0.221,0.727,0.653
24601,1755601772111,13.23,47.77,14.61,778,853,828,388,872,33.333333333333336,-0.222,0.728,0.654
24630,1755601772140,13.23,47.77,14.6,781,848,828,322,882,34.48275862068966,-0.224,0.729,0.658
24659,1755601772170,13.23,47.84,14.6,781,853,829,362,883,34.48275862068966,-0.224,0.728,0.659
24689,1755601772199,13.24,47.85,14.6,783,849,830,440,880,33.333333333333336,-0.222,0.727,0.656
24718,1755601772228,13.23,47.8,14.59,780,843,827,399,871,34.48275862068966,-0.222,0.727,0.654
24747,1755601772258,13.21,47.79,14.59,777,843,828,322,871,34.48275862068966,-0.222,0.728,0.656
24777,1755601772287,13.22,47.79,14.56,782,851,831,349,884,33.333333333333336,-0.222,0.729,0.659
24806,1755601772317,13.22,47.84,14.56,783,850,829,442,871,34.48275862068966,-0.223,0.729,0.659
24836,1755601772346,13.22,47.83,14.57,785,852,836,407,875,33.333333333333336,-0.222,0.727,0.656
24865,1755601772376,13.22,47.77,14.54,779,853,825,322,878,34.48275862068966,-0.221,0.728,0.654
24895,1755601772405,13.21,47.73,14.52,779,853,848,323,881,33.333333333333336,-0.222,0.73,0.656
24925,1755601772435,13.2,47.69,14.51,781,847,830,422,882,33.333333333333336,-0.222,0.728,0.658
24954,1755601772465,13.19,47.68,14.5,777,850,828,434,877,34.48275862068966,-0.222,0.727,0.658
24983,1755601772494,13.19,47.71,14.48,783,853,825,361,876,34.48275862068966,-0.222,0.728,0.658
25013,1755601772523,13.21,47.74,14.45,779,847,819,330,878,33.333333333333336,-0.222,0.728,0.659
25042,1755601772553,13.21,47.76,14.44,782,850,827,374,867,34.48275862068966,-0.223,0.732,0.66
25072,1755601772582,13.23,47.8,14.44,785,848,830,442,867,33.333333333333336,-0.225,0.732,0.66
25101,1755601772611,13.26,47.84,14.44,780,854,829,397,881,34.48275862068966,-0.225,0.73,0.659
25130,1755601772641,13.27,47.86,14.46,780,852,819,310,876,34.48275862068966,-0.225,0.729,0.658
25160,1755601772670,13.28,47.85,14.47,783,850,824,355,879,33.333333333333336,-0.225,0.728,0.657
25189,1755601772699,13.27,47.86,14.5,779,847,821,429,874,34.48275862068966,-0.225,0.73,0.657
25218,1755601772729,13.27,47.89,14.49,776,852,823,419,877,34.48275862068966,-0.223,0.73,0.657
25248,1755601772758,13.29,47.88,14.46,783,851,821,329,880,33.333333333333336,-0.223,0.73,0.656
25277,1755601772788,13.28,47.84,14.45,780,841,823,359,878,34.48275862068966,-0.224,0.729,0.655
25307,1755601772817,13.27,47.77,14.44,781,846,827,431,876,33.333333333333336,-0.225,0.728,0.655
25336,1755601772847,13.24,47.75,14.46,777,851,831,436,878,34.48275862068966,-0.225,0.728,0.658
25366,1755601772876,13.25,47.78,14.46,782,852,829,358,874,33.333333333333336,-0.226,0.729,0.658
25395,1755601772905,13.24,47.79,14.46,783,854,829,340,876,34.48275862068966,-0.225,0.727,0.657
25424,1755601772935,13.23,47.78,14.46,783,850,826,409,874,34.48275862068966,-0.223,0.727,0.656
25454,1755601772964,13.23,47.75,14.45,778,848,826,439,871,33.333333333333336,-0.223,0.728,0.657
25483,1755601772994,13.22,47.72,14.44,783,847,829,361,878,34.48275862068966,-0.224,0.728,0.658
25513,1755601773023,13.2,47.71,14.44,784,842,825,342,873,33.333333333333336,-0.224,0.727,0.659
25542,1755601773052,13.2,47.7,14.43,783,852,828,387,876,34.48275862068966,-0.224,0.728,0.659
25572,1755601773082,13.19,47.67,14.43,781,851,820,443,867,33.333333333333336,-0.224,0.728,0.658
25601,1755601773111,13.16,47.6,14.44,783,848,822,397,886,34.48275862068966,-0.224,0.726,0.658
25631,1755601773141,13.14,47.57,14.44,784,848,831,284,879,33.333333333333336,-0.225,0.726,0.661
25660,1755601773171,13.15,47.6,14.44,779,852,823,321,877,34.48275862068966,-0.225,0.726,0.664
25690,1755601773200,13.16,47.64,14.45,783,847,824,432,876,33.333333333333336,-0.224,0.725,0.663
25719,1755601773230,13.17,47.61,14.44,785,849,830,424,874,34.48275862068966,-0.223,0.725,0.659
25749,1755601773259,13.16,47.59,14.43,781,843,822,342,877,33.333333333333336,-0.222,0.726,0.659
25778,1755601773288,13.15,47.6,14.4,779,847,834,347,878,34.48275862068966,-0.222,0.726,0.662
25807,1755601773318,13.16,47.63,14.4,776,855,823,421,879,34.48275862068966,-0.223,0.727,0.663
25837,1755601773347,13.15,47.65,14.4,782,844,826,433,871,33.333333333333336,-0.223,0.726,0.661
25866,1755601773377,13.15,47.59,14.39,784,858,826,343,875,34.48275862068966,-0.222,0.724,0.659
25896,1755601773406,13.16,47.58,14.38,782,853,830,297,880,33.333333333333336,-0.223,0.726,0.66
25925,1755601773436,13.14,47.59,14.39,783,850,825,387,874,34.48275862068966,-0.223,0.724,0.663
