timestamp_ms,recv_timestamp_ms,pitch,roll,yaw,flex1,flex2,flex3,flex4,flex5,sampling_hz,accel_x,accel_y,accel_z
188249,1755608362515,70.84,-91.84,-21.72,804,774,892,359,919,50.0,-0.946,-0.336,-0.012
188279,1755608362517,70.83,-91.84,-21.72,806,767,890,415,923,33.333333333333336,-0.943,-0.336,-0.014
188308,1755608362519,70.86,-91.88,-21.73,806,777,893,387,909,34.48275862068966,-0.944,-0.337,-0.016
188338,1755608362521,70.82,-91.88,-21.72,806,771,891,331,919,33.333333333333336,-0.945,-0.338,-0.016
188368,1755608362523,70.82,-91.87,-21.72,807,768,892,339,918,33.333333333333336,-0.945,-0.337,-0.015
188388,1755608362525,70.8,-91.85,-21.72,804,778,891,382,924,50.0,-0.945,-0.336,-0.012
188418,1755608362528,70.84,-91.85,-21.73,806,773,890,354,908,33.333333333333336,-0.945,-0.336,-0.013
188448,1755608362530,70.82,-91.87,-21.73,808,773,892,396,919,33.333333333333336,-0.946,-0.337,-0.014
188468,1755608362532,70.81,-91.88,-21.73,802,775,890,365,918,50.0,-0.945,-0.337,-0.015
188488,1755608362534,70.8,-91.89,-21.73,806,770,893,382,916,50.0,-0.946,-0.338,-0.016
188518,1755608362536,70.8,-91.9,-21.72,804,767,893,355,917,33.333333333333336,-0.947,-0.337,-0.016
188548,1755608362538,70.79,-91.9,-21.7,803,778,888,407,919,33.333333333333336,-0.948,-0.338,-0.016
188578,1755608362540,70.82,-91.88,-21.66,803,776,886,432,921,33.333333333333336,-0.948,-0.338,-0.013
188598,1755608362542,70.81,-91.84,-21.64,805,778,892,382,919,50.0,-0.944,-0.335,-0.012
188618,1755608362544,70.78,-91.82,-21.64,806,774,892,336,917,50.0,-0.941,-0.334,-0.011
188648,1755608362547,70.77,-91.83,-21.64,799,774,888,385,919,33.333333333333336,-0.942,-0.335,-0.014
188678,1755608362549,70.79,-91.89,-21.65,803,772,893,395,915,33.333333333333336,-0.945,-0.337,-0.015
188698,1755608362551,70.79,-91.91,-21.64,800,769,892,367,953,50.0,-0.945,-0.336,-0.013
188728,1755608362553,70.8,-91.89,-21.64,804,773,893,391,924,33.333333333333336,-0.945,-0.335,-0.011
188748,1755608362555,70.8,-91.89,-21.64,803,775,891,363,921,50.0,-0.946,-0.335,-0.012
188778,1755608362557,70.79,-91.87,-21.64,805,774,891,397,920,33.333333333333336,-0.945,-0.335,-0.013
188808,1755608362559,70.8,-91.88,-21.66,802,773,888,376,919,33.333333333333336,-0.945,-0.335,-0.015
188838,1755608362561,70.77,-91.93,-21.71,799,772,894,296,916,33.333333333333336,-0.943,-0.335,-0.017
188858,1755608362563,70.75,-91.95,-21.74,801,775,900,358,922,50.0,-0.942,-0.336,-0.016
188878,1755608362565,70.73,-91.96,-21.79,806,770,893,387,914,50.0,-0.943,-0.335,-0.014
188908,1755608362567,70.69,-92.01,-21.81,806,772,889,375,918,33.333333333333336,-0.945,-0.336,-0.013
188938,1755608362569,70.72,-91.97,-21.79,802,767,891,335,912,33.333333333333336,-0.948,-0.337,-0.013
188968,1755608362572,70.72,-91.95,-21.76,807,776,891,345,951,33.333333333333336,-0.945,-0.337,-0.015
188988,1755608362574,70.73,-91.98,-21.75,802,773,893,364,917,50.0,-0.943,-0.339,-0.016
189018,1755608362575,70.7,-91.99,-21.74,801,767,891,354,919,33.333333333333336,-0.943,-0.338,-0.016
189038,1755608362577,70.69,-92.0,-21.74,804,774,891,388,914,50.0,-0.943,-0.336,-0.015
189058,1755608362580,70.67,-92.02,-21.74,804,768,892,442,916,50.0,-0.943,-0.336,-0.015
189088,1755608362582,70.7,-92.0,-21.73,806,776,886,373,913,33.333333333333336,-0.947,-0.337,-0.014
189118,1755608362584,70.66,-91.97,-21.7,804,773,889,367,917,33.333333333333336,-0.946,-0.338,-0.013
189148,1755608362587,70.59,-91.94,-21.68,801,774,887,421,916,33.333333333333336,-0.944,-0.338,-0.014
189177,1755608362588,70.5,-91.93,-21.66,804,770,891,411,923,34.48275862068966,-0.945,-0.337,-0.015
189207,1755608362591,70.49,-91.98,-21.68,805,777,886,386,922,33.333333333333336,-0.945,-0.337,-0.017
189228,1755608362593,70.51,-92.0,-21.69,804,773,892,414,926,47.61904761904762,-0.945,-0.336,-0.015
189257,1755608362595,70.53,-92.0,-21.69,799,772,889,389,918,34.48275862068966,-0.943,-0.335,-0.011
189287,1755608362596,70.52,-91.96,-21.7,806,778,893,336,921,33.333333333333336,-0.943,-0.335,-0.01
189317,1755608362599,70.55,-91.92,-21.69,802,773,892,349,923,33.333333333333336,-0.946,-0.336,-0.011
189347,1755608362601,70.5,-91.9,-21.66,806,780,889,413,914,33.333333333333336,-0.945,-0.336,-0.012
189367,1755608362603,70.51,-91.9,-21.66,800,776,891,348,919,50.0,-0.943,-0.336,-0.013
189387,1755608362605,70.53,-91.9,-21.66,806,772,886,374,917,50.0,-0.943,-0.337,-0.013
189417,1755608362607,70.55,-91.92,-21.66,806,773,898,355,916,33.333333333333336,-0.944,-0.337,-0.012
189447,1755608362609,70.52,-91.9,-21.65,805,766,890,398,921,33.333333333333336,-0.943,-0.336,-0.011
189477,1755608362612,70.57,-91.87,-21.64,807,773,893,404,918,33.333333333333336,-0.944,-0.336,-0.012
189507,1755608362614,70.59,-91.9,-21.64,805,778,892,384,924,33.333333333333336,-0.945,-0.335,-0.012
189527,1755608362616,70.59,-91.92,-21.64,800,776,894,414,924,50.0,-0.944,-0.335,-0.013
189557,1755608362618,70.53,-91.91,-21.63,803,773,893,364,912,33.333333333333336,-0.944,-0.336,-0.013
189577,1755608362620,70.53,-91.9,-21.63,805,773,884,413,918,50.0,-0.945,-0.335,-0.012
189607,1755608362622,70.55,-91.95,-21.65,806,766,884,370,920,33.333333333333336,-0.945,-0.335,-0.012
189637,1755608362624,70.54,-91.97,-21.66,799,776,891,327,925,33.333333333333336,-0.944,-0.336,-0.013
189667,1755608362626,70.55,-91.96,-21.65,804,776,896,365,917,33.333333333333336,-0.947,-0.337,-0.012
189697,1755608362628,70.55,-91.96,-21.64,801,776,897,397,917,33.333333333333336,-0.947,-0.337,-0.012
189727,1755608362630,70.56,-91.98,-21.65,804,770,891,396,914,33.333333333333336,-0.945,-0.338,-0.012
189757,1755608362632,70.54,-91.99,-21.67,802,770,887,349,919,33.333333333333336,-0.942,-0.337,-0.012
189777,1755608362634,70.57,-91.98,-21.68,802,774,890,401,919,50.0,-0.944,-0.337,-0.012
189797,1755608362636,70.57,-91.99,-21.68,804,777,887,362,918,50.0,-0.946,-0.337,-0.013
189817,1755608362638,70.58,-91.99,-21.69,807,778,888,325,917,50.0,-0.948,-0.336,-0.012
189838,1755608362640,70.28,-91.95,-21.67,804,773,887,364,915,47.61904761904762,-0.947,-0.336,-0.011
189858,1755608362642,70.27,-91.92,-21.66,806,776,894,416,921,50.0,-0.945,-0.335,-0.013
189878,1755608362645,70.27,-91.92,-21.67,804,770,890,419,920,50.0,-0.942,-0.334,-0.014
189898,1755608362647,70.26,-91.94,-21.69,806,773,893,367,921,50.0,-0.941,-0.334,-0.013
189918,1755608362649,70.26,-91.96,-21.72,806,772,893,344,916,50.0,-0.941,-0.334,-0.014
189939,1755608362651,70.28,-91.98,-21.74,804,769,890,392,912,47.61904761904762,-0.944,-0.336,-0.014
189959,1755608362654,70.28,-92.0,-21.75,801,776,886,430,916,50.0,-0.947,-0.337,-0.014
189989,1755608362655,70.28,-91.96,-21.74,804,778,892,356,914,33.333333333333336,-0.945,-0.336,-0.013
190018,1755608362657,70.27,-91.96,-21.75,805,774,889,349,918,34.48275862068966,-0.944,-0.336,-0.013
190039,1755608362660,70.28,-91.95,-21.75,800,774,895,397,914,47.61904761904762,-0.946,-0.337,-0.013
190069,1755608362662,70.26,-91.93,-21.74,801,772,891,321,920,33.333333333333336,-0.946,-0.338,-0.013
190089,1755608362664,70.28,-91.92,-21.74,804,765,889,383,918,50.0,-0.947,-0.338,-0.014
190119,1755608362666,70.25,-91.93,-21.73,803,767,892,351,917,33.333333333333336,-0.945,-0.338,-0.013
190149,1755608362668,70.25,-91.92,-21.73,800,771,890,399,916,33.333333333333336,-0.946,-0.338,-0.013
190169,1755608362670,70.25,-91.93,-21.73,805,766,889,352,918,50.0,-0.945,-0.338,-0.014
190199,1755608362672,70.27,-91.92,-21.72,804,775,890,382,920,33.333333333333336,-0.946,-0.339,-0.014
190229,1755608362675,70.21,-91.93,-21.71,804,778,894,427,917,33.333333333333336,-0.944,-0.338,-0.014
190249,1755608362677,70.22,-91.93,-21.71,806,768,892,359,919,50.0,-0.942,-0.337,-0.013
190279,1755608362679,70.23,-91.95,-21.72,801,769,893,402,915,33.333333333333336,-0.943,-0.338,-0.012
190299,1755608362681,70.25,-91.92,-21.72,805,773,889,349,925,50.0,-0.945,-0.338,-0.011
190329,1755608362683,70.13,-91.86,-21.71,806,774,897,400,918,33.333333333333336,-0.943,-0.336,-0.012
190349,1755608362685,70.1,-91.88,-21.73,805,767,888,305,920,50.0,-0.94,-0.334,-0.014
190379,1755608362688,70.13,-91.88,-21.75,807,778,888,383,918,33.333333333333336,-0.943,-0.336,-0.013
190400,1755608362690,70.15,-91.88,-21.73,802,766,892,322,918,47.61904761904762,-0.948,-0.338,-0.011
190420,1755608362692,70.13,-91.87,-21.72,799,773,892,355,921,50.0,-0.946,-0.338,-0.011
190440,1755608362694,70.1,-91.87,-21.72,804,773,897,408,914,50.0,-0.943,-0.338,-0.012
190470,1755608362696,70.15,-91.87,-21.72,804,772,890,365,919,33.333333333333336,-0.944,-0.339,-0.01
190500,1755608362698,70.15,-91.88,-21.71,800,773,886,369,918,33.333333333333336,-0.946,-0.338,-0.01
190520,1755608362700,70.15,-91.86,-21.71,806,766,886,374,917,50.0,-0.943,-0.338,-0.01
190550,1755608362702,70.13,-91.85,-21.71,805,773,888,366,916,33.333333333333336,-0.942,-0.338,-0.01
190570,1755608362704,70.14,-91.86,-21.71,804,776,891,382,913,50.0,-0.944,-0.338,-0.011
190600,1755608362706,70.16,-91.87,-21.71,803,776,890,364,917,33.333333333333336,-0.946,-0.338,-0.01
190621,1755608362708,70.15,-91.86,-21.7,804,775,889,367,922,47.61904761904762,-0.946,-0.337,-0.01
190641,1755608362710,70.15,-91.87,-21.7,799,775,884,435,917,50.0,-0.945,-0.337,-0.009
190661,1755608362712,70.17,-91.84,-21.7,801,775,891,433,919,50.0,-0.944,-0.337,-0.009
190691,1755608362714,70.2,-91.84,-21.68,809,774,887,387,912,33.333333333333336,-0.944,-0.337,-0.009
190711,1755608362716,70.19,-91.83,-21.68,804,773,886,405,919,50.0,-0.943,-0.336,-0.009
190741,1755608362718,70.16,-91.8,-21.68,799,774,893,379,920,33.333333333333336,-0.943,-0.336,-0.009
190761,1755608362721,70.16,-91.79,-21.68,804,770,889,393,919,50.0,-0.946,-0.337,-0.01
190781,1755608362722,70.17,-91.79,-21.67,800,775,898,383,916,50.0,-0.946,-0.338,-0.011
190801,1755608362724,70.21,-91.8,-21.66,800,774,888,333,920,50.0,-0.945,-0.338,-0.01
190831,1755608362726,70.19,-91.79,-21.66,804,775,887,381,919,33.333333333333336,-0.943,-0.338,-0.009
190852,1755608362729,70.21,-91.79,-21.67,805,778,890,340,922,47.61904761904762,-0.943,-0.338,-0.01
190882,1755608362730,70.22,-91.79,-21.65,806,777,893,383,916,33.333333333333336,-0.945,-0.337,-0.011
190902,1755608362732,70.24,-91.78,-21.64,806,772,897,367,915,50.0,-0.946,-0.336,-0.01
190932,1755608362734,70.19,-91.72,-21.62,804,785,891,381,916,33.333333333333336,-0.945,-0.336,-0.01
190962,1755608362736,70.21,-91.74,-21.64,802,775,889,424,919,33.333333333333336,-0.944,-0.337,-0.012
190982,1755608362738,70.22,-91.76,-21.64,801,771,889,372,914,50.0,-0.943,-0.338,-0.013
191002,1755608362740,70.22,-91.79,-21.64,804,774,889,353,921,50.0,-0.943,-0.339,-0.012
191032,1755608362743,70.23,-91.77,-21.63,804,776,893,376,919,33.333333333333336,-0.946,-0.337,-0.012
191062,1755608362744,70.25,-91.76,-21.62,804,773,892,430,917,33.333333333333336,-0.945,-0.337,-0.012
191082,1755608362747,70.29,-91.77,-21.62,804,780,894,374,918,50.0,-0.945,-0.336,-0.011
191102,1755608362749,70.29,-91.77,-21.61,800,773,888,358,919,50.0,-0.944,-0.336,-0.011
191123,1755608362751,70.27,-91.77,-21.62,802,778,888,394,921,47.61904761904762,-0.941,-0.336,-0.011
191152,1755608362753,70.28,-91.78,-21.64,802,771,889,362,917,34.48275862068966,-0.944,-0.337,-0.012
191182,1755608362755,70.29,-91.79,-21.63,803,768,888,377,920,33.333333333333336,-0.945,-0.338,-0.013
191203,1755608362757,70.31,-91.79,-21.62,804,771,887,362,919,47.61904761904762,-0.948,-0.338,-0.012
191223,1755608362758,70.3,-91.76,-21.6,806,766,888,401,923,50.0,-0.947,-0.336,-0.01
191243,1755608362761,70.3,-91.75,-21.6,804,776,894,433,920,50.0,-0.945,-0.335,-0.009
191273,1755608362763,70.32,-91.72,-21.6,801,775,908,376,919,33.333333333333336,-0.944,-0.335,-0.01
191303,1755608362765,70.33,-91.75,-21.61,805,771,889,308,913,33.333333333333336,-0.946,-0.335,-0.013
191323,1755608362768,70.32,-91.77,-21.61,797,777,901,394,911,50.0,-0.946,-0.336,-0.013
191343,1755608362770,70.35,-91.77,-21.61,804,774,885,409,914,50.0,-0.946,-0.335,-0.011
191363,1755608362772,70.34,-91.75,-21.61,804,775,899,381,914,50.0,-0.945,-0.335,-0.01
191383,1755608362774,70.34,-91.75,-21.62,799,769,889,340,915,50.0,-0.944,-0.336,-0.011
191403,1755608362776,70.36,-91.75,-21.63,801,773,887,349,918,50.0,-0.944,-0.335,-0.012
191433,1755608362778,70.36,-91.75,-21.63,801,773,889,349,918,33.333333333333336,-0.946,-0.335,-0.012
191463,1755608362780,70.37,-91.72,-21.63,806,765,889,400,928,33.333333333333336,-0.945,-0.336,-0.012
191493,1755608362782,70.4,-91.74,-21.64,804,768,890,414,917,33.333333333333336,-0.946,-0.339,-0.014
191523,1755608362784,70.46,-91.84,-21.66,806,781,891,376,917,33.333333333333336,-0.943,-0.339,-0.013
191553,1755608362786,70.59,-91.88,-21.71,801,773,889,330,917,33.333333333333336,-0.944,-0.338,-0.009
191583,1755608362789,70.63,-91.49,-21.75,807,768,889,340,920,33.333333333333336,-0.94,-0.337,-0.009
191613,1755608362790,70.87,-91.46,-21.82,805,774,890,415,920,33.333333333333336,-0.955,-0.34,-0.02
191643,1755608362792,69.99,-91.41,-22.19,799,776,889,422,919,33.333333333333336,-0.931,-0.344,-0.023
191663,1755608362794,70.05,-91.7,-22.39,806,772,890,382,920,50.0,-0.937,-0.345,-0.015
191693,1755608362797,70.26,-92.5,-23.03,805,776,886,393,921,33.333333333333336,-0.92,-0.335,-0.025
191713,1755608362799,70.22,-93.24,-23.49,800,771,889,373,920,50.0,-0.912,-0.339,-0.029
191743,1755608362801,70.38,-95.1,-24.54,809,771,888,388,919,33.333333333333336,-0.916,-0.353,-0.044
191773,1755608362803,70.12,-96.8,-25.85,807,767,887,354,921,33.333333333333336,-0.922,-0.364,-0.044
191803,1755608362805,69.76,-97.59,-26.62,806,770,890,335,908,33.333333333333336,-0.937,-0.381,-0.037
191833,1755608362807,68.94,-97.46,-26.88,807,769,882,365,909,33.333333333333336,-0.925,-0.393,-0.045
191863,1755608362809,68.52,-97.6,-27.13,809,774,900,407,918,33.333333333333336,-0.932,-0.406,-0.041
191883,1755608362811,68.45,-97.58,-27.17,807,774,890,357,908,50.0,-0.943,-0.408,-0.031
191913,1755608362813,68.04,-98.01,-27.36,810,773,895,388,929,33.333333333333336,-0.933,-0.411,-0.023
191933,1755608362815,67.72,-98.33,-27.58,809,776,899,354,911,50.0,-0.913,-0.411,-0.017
191953,1755608362817,67.46,-98.65,-27.78,807,770,898,376,917,50.0,-0.902,-0.404,-0.006
191983,1755608362819,67.88,-99.34,-27.85,806,778,896,372,914,33.333333333333336,-0.908,-0.408,0.019
192013,1755608362821,68.48,-98.05,-27.27,809,774,901,417,917,33.333333333333336,-0.928,-0.425,0.008
192043,1755608362823,68.3,-97.11,-26.91,808,772,895,401,929,33.333333333333336,-0.899,-0.429,-0.029
192073,1755608362825,68.07,-96.69,-26.78,805,769,897,359,931,33.333333333333336,-0.889,-0.428,-0.059
192093,1755608362828,67.86,-96.52,-26.73,805,777,899,405,922,50.0,-0.88,-0.429,-0.071
192113,1755608362830,67.92,-96.67,-26.81,810,776,892,382,928,50.0,-0.875,-0.426,-0.08
192143,1755608362832,68.9,-97.17,-26.92,811,774,898,391,923,33.333333333333336,-0.897,-0.43,-0.072
192173,1755608362834,69.46,-98.01,-26.85,808,773,896,362,926,33.333333333333336,-0.918,-0.433,-0.074
192203,1755608362836,69.79,-99.76,-26.99,805,775,892,298,924,33.333333333333336,-0.909,-0.433,-0.084
192232,1755608362838,70.78,-101.82,-27.57,807,778,897,328,916,34.48275862068966,-0.881,-0.429,-0.086
192262,1755608362840,72.02,-103.03,-28.13,808,773,896,376,916,33.333333333333336,-0.883,-0.425,-0.085
192292,1755608362842,72.28,-103.88,-28.56,803,767,895,383,919,33.333333333333336,-0.896,-0.432,-0.109
192322,1755608362844,71.97,-104.32,-28.85,810,769,894,310,913,33.333333333333336,-0.888,-0.438,-0.152
192342,1755608362847,72.05,-104.72,-29.08,805,778,898,349,915,50.0,-0.886,-0.45,-0.19
192362,1755608362849,72.34,-105.38,-29.47,810,772,897,344,919,50.0,-0.877,-0.448,-0.202
192392,1755608362852,71.78,-105.47,-29.79,808,780,904,335,918,33.333333333333336,-0.88,-0.443,-0.182
192422,1755608362854,71.07,-105.69,-29.95,809,779,902,325,920,33.333333333333336,-0.873,-0.447,-0.198
192442,1755608362856,70.45,-106.02,-30.15,809,778,899,382,923,50.0,-0.87,-0.448,-0.205
192472,1755608362859,69.86,-107.33,-30.69,808,772,901,349,925,33.333333333333336,-0.875,-0.443,-0.195
192502,1755608362860,69.34,-108.35,-30.98,803,777,900,353,925,33.333333333333336,-0.854,-0.437,-0.189
192522,1755608362863,69.3,-109.19,-31.23,806,776,897,399,931,50.0,-0.855,-0.442,-0.185
192552,1755608362865,69.11,-109.54,-31.37,809,771,905,383,923,33.333333333333336,-0.871,-0.462,-0.173
192572,1755608362866,68.86,-109.62,-31.35,808,778,901,391,931,50.0,-0.886,-0.47,-0.162
192602,1755608362868,69.05,-109.39,-30.96,807,774,899,331,936,33.333333333333336,-0.898,-0.479,-0.174
192632,1755608362870,69.35,-109.46,-30.62,808,774,900,367,936,33.333333333333336,-0.885,-0.475,-0.194
192652,1755608362872,69.28,-109.1,-30.28,804,775,898,363,938,50.0,-0.875,-0.465,-0.186
192682,1755608362875,69.46,-108.31,-29.86,808,773,899,367,941,33.333333333333336,-0.855,-0.441,-0.201
192712,1755608362877,69.45,-108.43,-29.55,807,770,899,411,951,33.333333333333336,-0.857,-0.429,-0.266
192742,1755608362878,68.68,-107.68,-29.14,804,775,894,427,954,33.333333333333336,-0.856,-0.441,-0.237
192772,1755608362880,68.36,-106.23,-28.75,808,769,899,384,948,33.333333333333336,-0.861,-0.445,-0.191
192792,1755608362882,68.39,-105.43,-28.55,806,776,893,406,946,50.0,-0.894,-0.455,-0.148
192812,1755608362885,68.52,-104.69,-28.22,802,774,892,386,953,50.0,-0.898,-0.469,-0.137
192832,1755608362887,68.84,-103.99,-27.9,801,776,892,340,951,50.0,-0.888,-0.468,-0.148
192852,1755608362889,69.08,-103.52,-27.56,807,775,893,336,947,50.0,-0.886,-0.464,-0.167
192882,1755608362891,69.58,-103.19,-27.3,801,777,890,367,949,33.333333333333336,-0.872,-0.442,-0.168
192902,1755608362893,69.87,-103.56,-27.37,807,776,892,369,951,50.0,-0.864,-0.431,-0.177
192932,1755608362895,69.95,-104.17,-27.6,806,770,892,369,945,33.333333333333336,-0.861,-0.436,-0.187
192962,1755608362897,70.48,-104.87,-27.67,806,777,897,412,948,33.333333333333336,-0.865,-0.437,-0.216
192992,1755608362900,71.17,-106.08,-27.8,802,775,891,417,948,33.333333333333336,-0.872,-0.437,-0.24
193022,1755608362902,71.68,-106.8,-27.61,805,778,890,363,952,33.333333333333336,-0.881,-0.452,-0.256
193052,1755608362904,71.86,-107.79,-27.41,804,777,888,355,941,33.333333333333336,-0.891,-0.447,-0.271
193082,1755608362906,71.86,-108.36,-27.05,801,767,894,371,944,33.333333333333336,-0.892,-0.437,-0.259
193112,1755608362909,71.57,-108.82,-26.94,799,779,893,418,940,33.333333333333336,-0.866,-0.42,-0.26
193142,1755608362911,71.18,-109.32,-27.04,803,777,894,417,941,33.333333333333336,-0.847,-0.407,-0.285
193172,1755608362913,70.27,-109.53,-27.15,804,776,890,356,941,33.333333333333336,-0.86,-0.4,-0.319
193192,1755608362915,69.75,-110.1,-27.2,801,774,895,407,937,50.0,-0.88,-0.4,-0.326
193222,1755608362916,68.87,-110.05,-26.96,806,773,888,342,943,33.333333333333336,-0.879,-0.398,-0.298
193242,1755608362918,68.37,-109.76,-26.68,806,767,890,411,941,50.0,-0.861,-0.394,-0.25
193272,1755608362921,67.64,-109.02,-26.66,804,773,895,364,944,33.333333333333336,-0.845,-0.396,-0.235
193302,1755608362924,67.49,-109.31,-27.11,800,778,888,334,945,33.333333333333336,-0.863,-0.425,-0.235
193322,1755608362926,67.69,-109.5,-27.16,804,774,896,372,946,50.0,-0.891,-0.451,-0.217
193352,1755608362928,67.65,-109.3,-27.15,803,767,890,350,956,33.333333333333336,-0.885,-0.447,-0.215
193382,1755608362930,68.11,-109.02,-26.97,804,767,894,373,949,33.333333333333336,-0.906,-0.451,-0.216
193412,1755608362932,68.46,-109.02,-26.8,804,775,893,389,951,33.333333333333336,-0.895,-0.435,-0.235
193432,1755608362934,68.58,-109.33,-26.7,803,779,893,346,951,50.0,-0.876,-0.423,-0.264
193462,1755608362937,68.43,-110.01,-26.63,805,779,886,397,951,33.333333333333336,-0.877,-0.407,-0.281
193492,1755608362939,67.91,-110.49,-26.59,804,772,889,409,953,33.333333333333336,-0.876,-0.394,-0.284
193522,1755608362940,67.37,-111.37,-26.83,805,773,887,377,945,33.333333333333336,-0.871,-0.392,-0.277
193542,1755608362943,67.04,-112.12,-27.05,804,772,887,409,953,50.0,-0.847,-0.395,-0.273
193572,1755608362944,67.32,-113.25,-27.35,799,767,898,382,946,33.333333333333336,-0.853,-0.408,-0.264
193592,1755608362946,67.29,-114.11,-27.59,802,772,896,405,947,50.0,-0.863,-0.405,-0.266
193622,1755608362948,67.18,-115.48,-27.93,800,778,892,368,945,33.333333333333336,-0.883,-0.399,-0.267
193652,1755608362951,66.82,-116.44,-28.05,801,778,892,358,946,33.333333333333336,-0.873,-0.4,-0.288
193682,1755608362953,67.31,-117.59,-28.15,806,773,891,337,935,33.333333333333336,-0.872,-0.41,-0.287
193702,1755608362955,67.55,-118.38,-28.24,799,776,894,354,951,50.0,-0.863,-0.41,-0.296
193732,1755608362957,67.62,-119.13,-28.26,806,776,891,382,946,33.333333333333336,-0.868,-0.406,-0.315
193752,1755608362960,67.45,-119.48,-28.18,802,773,896,362,942,50.0,-0.883,-0.405,-0.328
193782,1755608362961,67.52,-119.5,-27.7,802,776,891,377,946,33.333333333333336,-0.896,-0.402,-0.31
193812,1755608362963,67.28,-118.79,-27.06,797,776,901,434,946,33.333333333333336,-0.89,-0.399,-0.29
193842,1755608362965,67.1,-118.27,-26.5,802,773,883,401,943,33.333333333333336,-0.878,-0.395,-0.305
193862,1755608362968,66.85,-118.15,-26.31,802,772,892,400,943,50.0,-0.868,-0.392,-0.314
193882,1755608362970,66.53,-118.23,-26.34,801,770,884,334,942,50.0,-0.847,-0.378,-0.328
193912,1755608362972,66.13,-118.57,-26.51,799,775,884,396,943,33.333333333333336,-0.844,-0.373,-0.347
193932,1755608362974,65.65,-118.89,-26.66,800,775,885,342,943,50.0,-0.855,-0.38,-0.341
193962,1755608362976,65.43,-119.16,-26.75,804,775,889,395,945,33.333333333333336,-0.867,-0.388,-0.302
193992,1755608362979,65.46,-119.35,-26.67,805,770,898,407,962,33.333333333333336,-0.842,-0.393,-0.323
194012,1755608362981,65.37,-119.78,-26.67,802,772,889,392,941,50.0,-0.822,-0.391,-0.355
194032,1755608362983,65.03,-120.09,-26.8,808,767,887,336,942,50.0,-0.836,-0.38,-0.356
194062,1755608362985,64.67,-120.1,-26.94,803,772,890,380,948,33.333333333333336,-0.873,-0.38,-0.325
194083,1755608362987,64.4,-119.9,-26.94,799,776,883,331,947,47.61904761904762,-0.886,-0.391,-0.305
194103,1755608362989,64.45,-119.77,-26.85,804,776,887,350,943,50.0,-0.874,-0.409,-0.291
194133,1755608362992,65.17,-119.14,-26.53,798,776,881,350,940,33.333333333333336,-0.869,-0.402,-0.277
194153,1755608362993,65.61,-119.14,-26.6,804,778,882,352,937,50.0,-0.871,-0.383,-0.273
194183,1755608362996,65.18,-118.89,-26.74,802,772,882,362,942,33.333333333333336,-0.881,-0.379,-0.31
194203,1755608362998,64.96,-119.05,-26.76,805,778,874,387,941,50.0,-0.877,-0.378,-0.342
194233,1755608363000,64.29,-119.62,-26.96,801,777,874,392,941,33.333333333333336,-0.887,-0.382,-0.355
194263,1755608363002,64.0,-120.33,-26.91,804,768,871,420,938,33.333333333333336,-0.895,-0.391,-0.331
194283,1755608363004,63.73,-120.63,-26.85,799,767,864,354,946,50.0,-0.869,-0.381,-0.316
194303,1755608363006,63.58,-120.99,-26.97,799,769,866,369,941,50.0,-0.838,-0.373,-0.317
194333,1755608363009,63.47,-121.41,-27.11,796,769,871,374,944,33.333333333333336,-0.86,-0.386,-0.305
194353,1755608363011,63.42,-121.69,-27.18,802,778,867,381,940,50.0,-0.875,-0.389,-0.3
194383,1755608363012,63.79,-122.18,-26.99,802,774,868,390,940,33.333333333333336,-0.874,-0.386,-0.291
194413,1755608363015,64.81,-123.07,-26.77,801,773,867,414,942,33.333333333333336,-0.872,-0.385,-0.292
194443,1755608363017,66.46,-124.68,-26.63,802,775,862,409,944,33.333333333333336,-0.894,-0.4,-0.323
194473,1755608363020,67.9,-126.45,-26.12,802,774,859,369,956,33.333333333333336,-0.898,-0.402,-0.322
194493,1755608363022,68.98,-127.27,-25.67,807,770,863,402,947,50.0,-0.875,-0.396,-0.333
194523,1755608363024,69.79,-128.09,-25.22,799,781,857,360,952,33.333333333333336,-0.859,-0.381,-0.37
194543,1755608363026,69.66,-128.38,-24.98,800,776,861,389,945,50.0,-0.841,-0.362,-0.395
194573,1755608363028,69.48,-128.58,-24.78,804,775,869,376,950,33.333333333333336,-0.837,-0.341,-0.423
194603,1755608363030,69.36,-129.28,-24.81,803,774,858,346,947,33.333333333333336,-0.831,-0.329,-0.443
194623,1755608363032,69.12,-129.92,-24.98,798,774,867,377,945,50.0,-0.829,-0.32,-0.438
194644,1755608363034,68.81,-130.32,-25.05,804,773,857,410,949,47.61904761904762,-0.83,-0.318,-0.409
194674,1755608363036,68.49,-129.78,-24.76,801,776,861,385,947,33.333333333333336,-0.818,-0.315,-0.408
194694,1755608363038,68.47,-129.97,-24.76,800,772,864,388,950,50.0,-0.832,-0.315,-0.439
194714,1755608363040,68.26,-130.39,-24.78,798,771,863,307,943,50.0,-0.836,-0.318,-0.463
194744,1755608363042,67.75,-130.7,-24.79,803,770,867,370,948,33.333333333333336,-0.832,-0.316,-0.475
194764,1755608363044,67.23,-130.93,-24.84,799,770,874,336,948,50.0,-0.817,-0.308,-0.463
194784,1755608363046,66.92,-131.35,-24.99,800,771,875,324,960,50.0,-0.795,-0.302,-0.469
194814,1755608363048,66.66,-131.94,-25.25,802,774,880,385,947,33.333333333333336,-0.815,-0.311,-0.481
194834,1755608363050,66.19,-132.5,-25.43,803,769,879,354,945,50.0,-0.822,-0.313,-0.497
194864,1755608363052,65.41,-133.38,-25.81,802,767,885,405,945,33.333333333333336,-0.819,-0.305,-0.52
194894,1755608363054,64.84,-134.58,-26.29,802,782,895,416,945,33.333333333333336,-0.837,-0.317,-0.487
194924,1755608363057,64.54,-135.02,-26.43,802,771,899,395,946,33.333333333333336,-0.844,-0.321,-0.435
194954,1755608363059,64.38,-135.21,-26.45,803,777,899,346,952,33.333333333333336,-0.828,-0.315,-0.463
194974,1755608363062,64.09,-135.66,-26.58,801,771,898,431,949,50.0,-0.825,-0.31,-0.475
195004,1755608363065,63.65,-135.84,-26.74,801,772,899,343,941,33.333333333333336,-0.826,-0.304,-0.485
195025,1755608363067,63.03,-136.07,-26.92,802,766,906,417,945,47.61904761904762,-0.824,-0.301,-0.508
195055,1755608363069,62.24,-136.1,-27.22,802,772,917,370,945,33.333333333333336,-0.824,-0.303,-0.466
195084,1755608363071,61.83,-135.48,-27.17,801,778,918,360,946,34.48275862068966,-0.843,-0.312,-0.433
195114,1755608363072,61.54,-135.29,-26.95,802,776,941,407,943,33.333333333333336,-0.862,-0.317,-0.457
195144,1755608363074,61.4,-135.49,-26.82,801,778,930,439,947,33.333333333333336,-0.849,-0.324,-0.442
195164,1755608363077,61.14,-135.34,-26.81,796,767,935,372,947,50.0,-0.813,-0.317,-0.435
195184,1755608363079,61.11,-135.43,-26.83,802,773,941,330,945,50.0,-0.8,-0.317,-0.45
195214,1755608363081,61.18,-135.63,-26.73,797,774,938,349,945,33.333333333333336,-0.829,-0.336,-0.426
195234,1755608363083,61.45,-135.93,-26.56,799,774,933,289,942,50.0,-0.845,-0.34,-0.402
195264,1755608363085,61.89,-136.26,-26.19,802,777,936,357,947,33.333333333333336,-0.82,-0.329,-0.389
195284,1755608363088,62.39,-136.34,-25.95,803,774,936,343,945,50.0,-0.82,-0.324,-0.381
195314,1755608363090,62.76,-136.25,-25.69,802,766,931,386,948,33.333333333333336,-0.824,-0.319,-0.409
195344,1755608363092,62.78,-136.58,-25.64,798,775,936,426,947,33.333333333333336,-0.826,-0.31,-0.452
195374,1755608363093,62.76,-137.4,-25.72,801,772,936,403,943,33.333333333333336,-0.83,-0.31,-0.478
195404,1755608363095,62.97,-138.32,-25.64,796,775,932,358,948,33.333333333333336,-0.84,-0.312,-0.471
195424,1755608363097,62.74,-138.79,-25.63,804,771,931,427,946,50.0,-0.829,-0.311,-0.455
195454,1755608363100,62.77,-139.79,-25.83,800,768,934,348,949,33.333333333333336,-0.82,-0.312,-0.455
195484,1755608363101,62.49,-140.36,-25.82,799,777,935,344,943,33.333333333333336,-0.804,-0.297,-0.475
195514,1755608363103,62.28,-140.71,-26.01,830,768,935,380,942,33.333333333333336,-0.82,-0.291,-0.511
195544,1755608363106,61.51,-141.82,-26.23,849,770,940,401,947,33.333333333333336,-0.868,-0.294,-0.507
195564,1755608363108,61.08,-142.68,-26.4,856,774,932,366,946,50.0,-0.841,-0.303,-0.522
195584,1755608363110,60.88,-143.44,-26.47,861,777,933,321,943,50.0,-0.811,-0.297,-0.504
195604,1755608363112,60.62,-143.98,-26.65,862,773,932,324,945,50.0,-0.808,-0.287,-0.485
195634,1755608363114,60.36,-144.33,-26.87,862,773,922,352,942,33.333333333333336,-0.827,-0.28,-0.464
195664,1755608363116,59.96,-143.77,-26.75,869,772,919,402,944,33.333333333333336,-0.83,-0.275,-0.45
195684,1755608363118,59.95,-143.61,-26.71,868,775,916,370,944,50.0,-0.84,-0.279,-0.448
195714,1755608363120,59.95,-143.46,-26.64,870,772,923,405,946,33.333333333333336,-0.845,-0.287,-0.455
195744,1755608363122,59.98,-143.1,-26.45,869,773,919,414,941,33.333333333333336,-0.834,-0.275,-0.464
195774,1755608363124,59.84,-142.82,-26.65,872,774,917,389,941,33.333333333333336,-0.819,-0.269,-0.475
195804,1755608363126,59.75,-142.48,-26.96,868,774,916,341,945,33.333333333333336,-0.798,-0.262,-0.463
195834,1755608363128,59.85,-142.05,-27.26,874,766,913,347,947,33.333333333333336,-0.814,-0.269,-0.447
195855,1755608363130,59.84,-141.81,-27.43,874,772,903,383,946,47.61904761904762,-0.839,-0.277,-0.453
195885,1755608363133,59.59,-141.58,-27.6,870,782,913,340,945,33.333333333333336,-0.864,-0.295,-0.472
195915,1755608363134,59.41,-141.34,-27.51,877,778,908,391,964,33.333333333333336,-0.865,-0.308,-0.462
195944,1755608363136,59.45,-140.73,-27.27,871,777,911,406,942,34.48275862068966,-0.855,-0.314,-0.436
195974,1755608363139,59.57,-140.61,-27.25,874,768,912,385,946,33.333333333333336,-0.85,-0.318,-0.462
195995,1755608363141,59.58,-140.78,-27.28,871,778,912,399,946,47.61904761904762,-0.84,-0.32,-0.45
196024,1755608363143,59.81,-140.93,-26.95,870,775,908,379,939,34.48275862068966,-0.843,-0.32,-0.44
