timestamp_ms,recv_timestamp_ms,pitch,roll,yaw,flex1,flex2,flex3,flex4,flex5,sampling_hz,accel_x,accel_y,accel_z
56354,1755608475418,10.03,64.97,-18.02,811,870,816,422,810,34.48275862068966,-0.174,0.923,0.354
56384,1755608475419,10.02,64.96,-18.06,813,868,818,430,817,33.333333333333336,-0.175,0.924,0.356
56413,1755608475422,10.02,64.98,-18.09,807,862,804,363,829,34.48275862068966,-0.176,0.924,0.356
56443,1755608475424,10.01,65.04,-18.11,813,874,817,329,817,33.333333333333336,-0.176,0.923,0.353
56472,1755608475425,9.98,65.06,-18.11,805,865,819,395,819,34.48275862068966,-0.178,0.922,0.353
56501,1755608475428,9.97,65.02,-18.12,809,861,815,445,814,34.48275862068966,-0.178,0.924,0.353
56531,1755608475430,9.97,65.04,-18.1,808,864,815,400,813,33.333333333333336,-0.178,0.923,0.355
56560,1755608475432,9.97,65.04,-18.12,810,871,810,326,820,34.48275862068966,-0.175,0.924,0.353
56590,1755608475434,9.95,65.08,-18.17,811,867,817,362,821,33.333333333333336,-0.175,0.925,0.352
56619,1755608475436,9.94,65.08,-18.16,808,860,818,448,817,34.48275862068966,-0.177,0.923,0.355
56649,1755608475438,9.91,65.16,-18.14,811,862,815,416,818,33.333333333333336,-0.177,0.924,0.355
56678,1755608475440,9.94,65.19,-18.2,813,864,817,326,817,34.48275862068966,-0.176,0.926,0.353
56708,1755608475442,9.95,65.14,-18.2,812,866,816,333,820,33.333333333333336,-0.175,0.925,0.348
56738,1755608475444,9.94,65.07,-18.2,812,863,816,430,827,33.333333333333336,-0.175,0.92,0.352
56767,1755608475446,9.95,65.05,-18.24,809,865,814,420,817,34.48275862068966,-0.175,0.926,0.354
56797,1755608475448,9.98,65.06,-18.25,815,867,815,364,814,33.333333333333336,-0.176,0.926,0.355
56826,1755608475450,9.98,65.1,-18.27,804,868,813,323,818,34.48275862068966,-0.174,0.923,0.351
56856,1755608475452,9.97,65.12,-18.32,811,868,818,371,815,33.333333333333336,-0.176,0.924,0.351
56885,1755608475454,9.97,65.07,-18.32,810,871,814,444,819,34.48275862068966,-0.178,0.923,0.352
56915,1755608475456,9.99,65.08,-18.32,813,864,823,407,816,33.333333333333336,-0.178,0.923,0.353
56944,1755608475458,9.99,65.1,-18.34,806,865,817,330,815,34.48275862068966,-0.176,0.924,0.354
56974,1755608475460,9.98,65.12,-18.35,813,864,816,363,820,33.333333333333336,-0.175,0.924,0.353
57003,1755608475462,9.98,65.11,-18.38,807,865,819,430,810,34.48275862068966,-0.176,0.923,0.352
57033,1755608475464,9.96,65.14,-18.37,814,867,817,377,818,33.333333333333336,-0.177,0.924,0.354
57062,1755608475465,9.95,65.14,-18.39,811,863,812,310,819,34.48275862068966,-0.176,0.924,0.352
57092,1755608475467,9.95,65.17,-18.4,814,868,814,314,812,33.333333333333336,-0.176,0.925,0.352
57121,1755608475469,9.94,65.17,-18.4,811,858,814,401,824,34.48275862068966,-0.175,0.925,0.351
57151,1755608475471,9.95,65.13,-18.44,813,870,817,422,817,33.333333333333336,-0.172,0.925,0.349
57180,1755608475473,9.92,65.13,-18.45,812,866,816,363,817,34.48275862068966,-0.174,0.924,0.352
57210,1755608475475,9.9,65.14,-18.48,811,865,807,319,819,33.333333333333336,-0.174,0.925,0.352
57239,1755608475477,9.91,65.17,-18.51,810,863,816,360,819,34.48275862068966,-0.176,0.925,0.352
57269,1755608475479,9.92,65.15,-18.51,810,857,818,430,817,33.333333333333336,-0.177,0.923,0.352
57298,1755608475481,9.91,65.16,-18.52,812,864,812,398,813,34.48275862068966,-0.175,0.924,0.351
57328,1755608475483,9.9,65.13,-18.53,808,862,816,314,818,33.333333333333336,-0.175,0.924,0.352
57358,1755608475485,9.91,65.13,-18.56,812,866,814,302,818,33.333333333333336,-0.174,0.924,0.353
57387,1755608475487,9.88,65.2,-18.57,811,868,818,425,815,34.48275862068966,-0.176,0.925,0.353
57416,1755608475489,9.87,65.22,-18.57,813,869,814,425,818,34.48275862068966,-0.175,0.925,0.352
57446,1755608475491,9.85,65.28,-18.57,813,864,816,332,817,33.333333333333336,-0.174,0.924,0.353
57475,1755608475493,9.85,65.22,-18.59,811,865,812,337,814,34.48275862068966,-0.174,0.925,0.351
57505,1755608475495,9.86,65.22,-18.61,812,867,819,399,815,33.333333333333336,-0.173,0.924,0.352
57534,1755608475497,9.87,65.18,-18.64,810,865,817,422,813,34.48275862068966,-0.174,0.925,0.352
57564,1755608475499,9.89,65.16,-18.65,807,861,821,363,821,33.333333333333336,-0.174,0.925,0.352
57593,1755608475501,9.9,65.17,-18.68,813,863,815,307,818,34.48275862068966,-0.175,0.926,0.351
57623,1755608475503,9.92,65.13,-18.71,812,867,818,364,823,33.333333333333336,-0.175,0.925,0.351
57652,1755608475505,9.89,65.12,-18.74,812,860,819,431,814,34.48275862068966,-0.174,0.925,0.351
57682,1755608475507,9.89,65.12,-18.76,824,861,811,407,817,33.333333333333336,-0.174,0.926,0.352
57711,1755608475510,9.9,65.11,-18.8,812,859,815,315,815,34.48275862068966,-0.175,0.926,0.352
57741,1755608475511,9.9,65.13,-18.83,810,867,812,335,818,33.333333333333336,-0.175,0.925,0.353
57770,1755608475513,9.9,65.1,-18.86,807,865,821,435,816,34.48275862068966,-0.174,0.924,0.352
57799,1755608475515,9.89,65.08,-18.89,806,862,815,423,816,34.48275862068966,-0.175,0.924,0.353
57820,1755608475518,9.9,65.09,-18.91,809,869,816,397,816,47.61904761904762,-0.178,0.924,0.355
57849,1755608475520,9.93,65.09,-18.9,813,861,816,396,810,34.48275862068966,-0.178,0.924,0.355
57879,1755608475521,9.94,65.06,-18.9,809,861,817,321,819,33.333333333333336,-0.175,0.924,0.353
57908,1755608475524,9.94,65.03,-18.93,812,867,818,325,821,34.48275862068966,-0.172,0.925,0.353
57938,1755608475526,9.93,65.0,-18.96,810,865,818,405,819,33.333333333333336,-0.172,0.925,0.356
57968,1755608475528,9.94,64.99,-18.98,806,864,817,430,819,33.333333333333336,-0.174,0.925,0.358
57997,1755608475530,9.96,65.05,-19.03,813,860,818,402,814,34.48275862068966,-0.174,0.926,0.358
58027,1755608475532,9.98,65.1,-19.03,806,868,817,279,844,33.333333333333336,-0.175,0.924,0.357
58056,1755608475534,10.01,65.08,-19.07,810,858,834,337,823,34.48275862068966,-0.175,0.922,0.353
58086,1755608475536,10.02,65.07,-19.07,813,866,819,435,820,33.333333333333336,-0.178,0.923,0.354
58115,1755608475538,10.05,65.09,-19.02,810,859,816,411,818,34.48275862068966,-0.178,0.924,0.358
58145,1755608475540,10.07,65.13,-19.06,813,865,816,318,818,33.333333333333336,-0.172,0.926,0.352
58175,1755608475542,10.05,65.12,-19.1,811,862,814,324,820,33.333333333333336,-0.171,0.925,0.349
58204,1755608475544,10.03,65.1,-19.13,810,863,813,429,820,34.48275862068966,-0.173,0.924,0.35
58233,1755608475546,10.03,65.1,-19.13,805,870,813,431,819,34.48275862068966,-0.176,0.925,0.353
58263,1755608475548,10.02,65.13,-19.11,807,850,816,341,818,33.333333333333336,-0.176,0.924,0.351
58292,1755608475551,10.01,65.12,-19.11,807,864,814,319,816,34.48275862068966,-0.174,0.923,0.347
58322,1755608475552,10.0,65.05,-19.11,808,869,816,402,817,33.333333333333336,-0.173,0.924,0.35
58351,1755608475554,10.0,65.03,-19.12,811,866,818,428,815,34.48275862068966,-0.171,0.925,0.354
58381,1755608475557,9.97,65.11,-19.15,811,866,820,376,820,33.333333333333336,-0.17,0.926,0.354
58410,1755608475558,9.95,65.17,-19.2,806,864,819,313,817,34.48275862068966,-0.17,0.925,0.354
58440,1755608475561,9.9,65.25,-19.21,808,867,812,337,812,33.333333333333336,-0.17,0.926,0.354
58470,1755608475563,9.89,65.26,-19.29,809,867,815,433,813,33.333333333333336,-0.17,0.925,0.352
58499,1755608475565,9.88,65.23,-19.36,809,864,816,402,819,34.48275862068966,-0.173,0.924,0.348
58528,1755608475567,9.86,65.16,-19.33,806,868,817,314,821,34.48275862068966,-0.177,0.923,0.35
58558,1755608475569,9.85,65.15,-19.34,813,863,811,333,818,33.333333333333336,-0.177,0.926,0.352
58587,1755608475571,9.88,65.16,-19.39,809,864,814,418,832,34.48275862068966,-0.176,0.926,0.352
58617,1755608475573,9.87,65.16,-19.4,808,868,817,432,818,33.333333333333336,-0.175,0.925,0.35
58646,1755608475574,9.87,65.18,-19.42,807,857,820,346,816,34.48275862068966,-0.176,0.923,0.353
58676,1755608475576,9.86,65.2,-19.45,809,864,818,323,816,33.333333333333336,-0.176,0.924,0.354
58705,1755608475579,9.88,65.21,-19.5,808,866,810,374,817,34.48275862068966,-0.176,0.925,0.354
58735,1755608475581,9.88,65.23,-19.51,808,867,816,443,811,33.333333333333336,-0.174,0.925,0.353
58765,1755608475583,9.88,65.25,-19.54,808,868,817,403,811,33.333333333333336,-0.174,0.926,0.351
58794,1755608475585,9.9,65.24,-19.59,810,865,813,316,816,34.48275862068966,-0.174,0.925,0.35
58823,1755608475587,9.9,65.2,-19.62,811,861,818,349,820,34.48275862068966,-0.175,0.923,0.35
58853,1755608475589,9.88,65.21,-19.63,812,867,815,443,814,33.333333333333336,-0.176,0.925,0.35
58882,1755608475591,9.9,65.18,-19.68,805,865,818,416,820,34.48275862068966,-0.177,0.925,0.352
58912,1755608475593,9.9,65.2,-19.69,813,858,816,328,820,33.333333333333336,-0.178,0.925,0.352
58941,1755608475595,9.9,65.18,-19.69,811,871,818,352,821,34.48275862068966,-0.176,0.924,0.35
58970,1755608475597,9.9,65.13,-19.72,814,862,819,428,810,34.48275862068966,-0.174,0.924,0.35
59000,1755608475599,9.88,65.13,-19.78,813,862,811,406,820,33.333333333333336,-0.174,0.926,0.352
59029,1755608475601,9.86,65.15,-19.81,810,864,811,338,813,34.48275862068966,-0.177,0.925,0.354
59059,1755608475603,9.87,65.16,-19.84,812,864,819,331,817,33.333333333333336,-0.179,0.923,0.353
59088,1755608475605,9.87,65.15,-19.83,808,855,819,397,848,34.48275862068966,-0.179,0.923,0.35
59118,1755608475606,9.85,65.14,-19.84,812,867,817,429,821,33.333333333333336,-0.178,0.924,0.348
59147,1755608475608,9.84,65.16,-19.85,804,864,815,373,816,34.48275862068966,-0.178,0.924,0.35
59177,1755608475611,9.86,65.14,-19.88,808,865,814,313,817,33.333333333333336,-0.178,0.924,0.352
59206,1755608475613,9.85,65.1,-19.88,809,857,819,354,817,34.48275862068966,-0.178,0.922,0.353
59236,1755608475615,9.87,65.08,-19.91,805,859,815,440,814,33.333333333333336,-0.176,0.923,0.354
59265,1755608475617,9.86,65.08,-19.96,811,860,821,392,819,34.48275862068966,-0.177,0.924,0.353
59286,1755608475619,9.85,65.1,-19.97,809,856,812,387,817,47.61904761904762,-0.179,0.924,0.352
59315,1755608475621,9.85,65.11,-19.98,813,856,812,379,810,34.48275862068966,-0.18,0.923,0.356
59345,1755608475623,9.87,65.14,-20.02,811,868,814,295,822,33.333333333333336,-0.178,0.925,0.354
59375,1755608475625,9.88,65.13,-20.05,810,859,818,322,817,33.333333333333336,-0.177,0.923,0.353
59404,1755608475627,9.86,65.09,-20.06,807,864,812,422,843,34.48275862068966,-0.178,0.922,0.351
59424,1755608475629,9.88,65.08,-20.07,809,863,814,333,814,50.0,-0.179,0.922,0.354
59453,1755608475631,9.9,65.08,-20.06,810,858,818,418,813,34.48275862068966,-0.18,0.923,0.356
59483,1755608475633,9.89,65.1,-20.04,815,861,811,393,820,33.333333333333336,-0.178,0.925,0.355
59512,1755608475635,9.91,65.13,-20.09,810,864,811,307,815,34.48275862068966,-0.177,0.924,0.353
59542,1755608475637,9.91,65.09,-20.1,812,866,811,308,818,33.333333333333336,-0.176,0.922,0.353
59571,1755608475639,9.91,65.08,-20.1,812,865,826,412,815,34.48275862068966,-0.176,0.923,0.354
59600,1755608475641,9.94,65.06,-20.13,806,861,813,435,824,34.48275862068966,-0.18,0.924,0.355
59630,1755608475643,9.97,65.05,-20.13,813,865,816,363,813,33.333333333333336,-0.179,0.923,0.354
59659,1755608475645,9.99,65.06,-20.15,811,864,818,336,821,34.48275862068966,-0.177,0.923,0.353
59680,1755608475647,9.97,65.09,-20.14,811,868,816,395,812,47.61904761904762,-0.175,0.924,0.353
59709,1755608475649,9.97,65.07,-20.17,813,866,818,332,817,34.48275862068966,-0.174,0.924,0.355
59739,1755608475651,9.97,65.06,-20.22,812,865,819,382,819,33.333333333333336,-0.175,0.924,0.356
59769,1755608475653,9.98,65.07,-20.21,812,866,816,423,816,33.333333333333336,-0.177,0.923,0.355
59798,1755608475655,9.99,65.14,-20.18,811,865,807,389,816,34.48275862068966,-0.176,0.924,0.354
59828,1755608475656,9.99,65.16,-20.23,811,864,812,314,817,33.333333333333336,-0.173,0.924,0.352
59858,1755608475658,9.97,65.13,-20.28,806,864,816,336,819,33.333333333333336,-0.172,0.923,0.35
59887,1755608475661,9.97,65.08,-20.32,811,862,815,427,815,34.48275862068966,-0.174,0.923,0.353
59917,1755608475662,9.97,65.12,-20.33,809,864,818,423,816,33.333333333333336,-0.175,0.925,0.355
59946,1755608475665,9.96,65.09,-20.35,808,872,819,343,818,34.48275862068966,-0.173,0.923,0.35
59976,1755608475667,9.94,65.04,-20.38,809,858,816,307,818,33.333333333333336,-0.174,0.922,0.347
60006,1755608475668,9.88,64.99,-20.36,812,855,815,357,816,33.333333333333336,-0.177,0.923,0.352
60035,1755608475670,9.88,64.97,-20.35,811,859,816,428,816,34.48275862068966,-0.182,0.926,0.362
60065,1755608475672,10.0,65.03,-20.34,806,865,818,397,819,33.333333333333336,-0.185,0.926,0.365
60094,1755608475674,10.1,65.09,-20.29,809,863,814,312,825,34.48275862068966,-0.178,0.924,0.359
60124,1755608475676,10.14,65.15,-20.29,811,867,816,334,819,33.333333333333336,-0.168,0.924,0.349
60153,1755608475678,10.12,65.1,-20.42,809,866,815,437,818,34.48275862068966,-0.161,0.926,0.345
60183,1755608475680,10.06,65.12,-20.49,811,866,816,410,823,33.333333333333336,-0.165,0.927,0.35
60212,1755608475682,10.06,65.1,-20.57,810,858,807,318,819,34.48275862068966,-0.172,0.926,0.354
60242,1755608475684,10.1,65.15,-20.62,805,864,812,333,817,33.333333333333336,-0.174,0.923,0.35
60271,1755608475686,10.04,65.14,-20.61,813,864,815,397,820,34.48275862068966,-0.177,0.922,0.347
60300,1755608475687,10.03,65.12,-20.61,813,875,817,422,838,34.48275862068966,-0.177,0.923,0.352
60330,1755608475690,10.08,65.14,-20.68,806,861,819,357,820,33.333333333333336,-0.178,0.926,0.357
60359,1755608475692,10.09,65.18,-20.67,811,867,817,312,817,34.48275862068966,-0.18,0.925,0.356
60389,1755608475694,10.11,65.18,-20.68,811,861,816,359,821,33.333333333333336,-0.177,0.923,0.35
60419,1755608475696,10.13,65.14,-20.73,812,864,816,429,816,33.333333333333336,-0.179,0.923,0.349
60439,1755608475698,10.11,65.18,-20.71,812,862,811,341,819,50.0,-0.18,0.924,0.35
60469,1755608475700,10.1,65.17,-20.72,811,865,812,431,817,33.333333333333336,-0.177,0.923,0.352
60498,1755608475702,10.12,65.19,-20.77,807,856,813,403,820,34.48275862068966,-0.175,0.924,0.352
60528,1755608475704,10.1,65.19,-20.8,812,865,817,321,817,33.333333333333336,-0.176,0.924,0.348
60557,1755608475706,10.08,65.15,-20.83,808,863,819,341,816,34.48275862068966,-0.177,0.922,0.349
60586,1755608475708,10.1,65.11,-20.84,814,859,817,431,824,34.48275862068966,-0.185,0.923,0.353
60616,1755608475709,10.14,65.13,-20.81,808,863,816,409,815,33.333333333333336,-0.187,0.923,0.354
60645,1755608475712,10.15,65.23,-20.74,809,868,815,325,815,34.48275862068966,-0.183,0.923,0.354
60675,1755608475714,10.13,65.28,-20.62,812,868,815,323,815,33.333333333333336,-0.179,0.924,0.352
60704,1755608475716,10.1,65.31,-20.58,805,860,819,404,818,34.48275862068966,-0.174,0.923,0.349
60734,1755608475717,10.11,65.33,-20.62,811,863,817,420,819,33.333333333333336,-0.17,0.924,0.347
60763,1755608475719,10.08,65.35,-20.66,809,864,816,358,819,34.48275862068966,-0.168,0.926,0.345
60793,1755608475722,10.01,65.29,-20.7,807,863,818,312,820,33.333333333333336,-0.167,0.924,0.343
60823,1755608475724,10.01,65.23,-20.78,810,864,818,360,818,33.333333333333336,-0.173,0.924,0.35
60852,1755608475726,10.02,65.28,-20.76,810,865,816,442,819,34.48275862068966,-0.18,0.926,0.357
60882,1755608475728,10.08,65.35,-20.76,812,861,818,409,818,33.333333333333336,-0.181,0.924,0.352
60911,1755608475730,10.12,65.32,-20.72,806,867,814,324,821,34.48275862068966,-0.182,0.922,0.346
60941,1755608475732,10.11,65.31,-20.64,810,859,816,343,817,33.333333333333336,-0.18,0.924,0.347
60971,1755608475734,10.17,65.28,-20.63,810,862,818,419,817,33.333333333333336,-0.172,0.926,0.348
61000,1755608475736,10.17,65.28,-20.65,806,860,818,437,815,34.48275862068966,-0.166,0.926,0.346
61030,1755608475739,10.11,65.26,-20.7,810,863,815,347,821,33.333333333333336,-0.163,0.927,0.347
61060,1755608475740,10.05,65.21,-20.77,807,866,819,321,819,33.333333333333336,-0.166,0.926,0.35
61089,1755608475743,10.04,65.24,-20.82,807,869,814,366,817,34.48275862068966,-0.173,0.927,0.352
61118,1755608475745,10.05,65.26,-20.85,813,862,815,434,821,34.48275862068966,-0.175,0.926,0.35
61148,1755608475747,10.07,65.23,-20.89,803,867,812,397,812,33.333333333333336,-0.175,0.925,0.348
61177,1755608475749,10.04,65.23,-20.88,808,869,812,315,813,34.48275862068966,-0.174,0.925,0.349
61207,1755608475751,10.03,65.22,-20.9,809,866,810,349,818,33.333333333333336,-0.174,0.927,0.351
61236,1755608475753,10.03,65.23,-20.91,805,863,818,436,817,34.48275862068966,-0.172,0.927,0.353
61265,1755608475755,10.04,65.21,-20.97,806,864,817,412,818,34.48275862068966,-0.171,0.926,0.351
61295,1755608475757,10.02,65.21,-21.0,807,867,813,328,818,33.333333333333336,-0.172,0.926,0.351
61324,1755608475759,9.99,65.22,-21.01,806,860,814,292,815,34.48275862068966,-0.171,0.926,0.352
61354,1755608475760,10.03,65.19,-21.11,805,870,817,390,818,33.333333333333336,-0.172,0.926,0.353
61383,1755608475763,10.01,65.15,-21.13,811,862,812,406,822,34.48275862068966,-0.172,0.924,0.354
61413,1755608475764,9.97,65.19,-21.15,809,862,815,330,815,33.333333333333336,-0.171,0.925,0.356
61443,1755608475766,9.99,65.19,-21.23,811,866,815,322,817,33.333333333333336,-0.176,0.926,0.356
61472,1755608475768,10.01,65.26,-21.2,804,857,815,388,820,34.48275862068966,-0.178,0.924,0.35
61502,1755608475770,10.05,65.24,-21.24,812,860,817,435,816,33.333333333333336,-0.178,0.922,0.345
61531,1755608475772,10.02,65.2,-21.2,809,863,814,401,819,34.48275862068966,-0.177,0.921,0.346
61561,1755608475774,10.03,65.12,-21.18,807,863,816,320,816,33.333333333333336,-0.178,0.921,0.353
61591,1755608475776,10.04,65.15,-21.17,805,871,816,341,820,33.333333333333336,-0.175,0.926,0.357
61621,1755608475778,10.07,65.22,-21.24,811,866,813,410,817,33.333333333333336,-0.17,0.926,0.354
61650,1755608475780,10.07,65.24,-21.24,810,862,816,419,821,34.48275862068966,-0.172,0.923,0.346
61680,1755608475783,10.05,65.13,-21.27,811,869,817,348,818,33.333333333333336,-0.174,0.922,0.344
61709,1755608475784,10.07,65.08,-21.29,807,860,818,315,815,34.48275862068966,-0.179,0.925,0.35
61739,1755608475786,10.08,65.1,-21.23,811,869,815,358,820,33.333333333333336,-0.182,0.925,0.356
61769,1755608475789,10.12,65.11,-21.25,809,865,816,451,820,33.333333333333336,-0.173,0.924,0.355
61798,1755608475790,10.15,65.05,-21.32,807,867,821,414,815,34.48275862068966,-0.168,0.923,0.354
61828,1755608475792,10.11,65.0,-21.38,811,863,813,317,813,33.333333333333336,-0.166,0.924,0.355
61857,1755608475795,10.1,65.02,-21.47,811,866,816,342,843,34.48275862068966,-0.169,0.926,0.356
61887,1755608475796,10.12,65.01,-21.57,813,869,819,436,820,33.333333333333336,-0.175,0.925,0.355
61916,1755608475799,10.13,64.99,-21.59,805,868,811,424,819,34.48275862068966,-0.18,0.921,0.354
71184,1755608475801,10.62,63.51,-28.69,807,842,810,378,821,0.10789814415192059,-0.185,0.912,0.38
71213,1755608475802,10.55,63.63,-28.62,806,837,806,293,818,34.48275862068966,-0.186,0.917,0.38
71243,1755608475804,10.51,63.71,-28.6,803,844,813,289,815,33.333333333333336,-0.183,0.915,0.376
71272,1755608475806,10.57,63.69,-28.69,804,841,812,360,822,34.48275862068966,-0.185,0.915,0.377
71302,1755608475808,10.6,63.71,-28.7,801,839,813,419,818,33.333333333333336,-0.185,0.917,0.378
71331,1755608475811,10.6,63.77,-28.73,802,837,807,387,816,34.48275862068966,-0.184,0.916,0.376
71361,1755608475812,10.66,63.79,-28.75,806,843,812,305,817,33.333333333333336,-0.185,0.918,0.376
71390,1755608475814,10.67,63.83,-28.77,805,835,812,354,821,34.48275862068966,-0.182,0.917,0.373
71420,1755608475817,10.65,63.76,-28.84,800,837,811,431,818,33.333333333333336,-0.18,0.914,0.371
71449,1755608475819,10.6,63.8,-28.8,806,843,804,408,823,34.48275862068966,-0.181,0.917,0.375
71479,1755608475821,10.63,63.84,-28.85,806,841,808,316,816,33.333333333333336,-0.181,0.918,0.376
71508,1755608475823,10.69,63.85,-28.91,804,835,808,327,820,34.48275862068966,-0.183,0.915,0.374
71538,1755608475825,10.68,63.88,-28.89,805,841,814,420,821,33.333333333333336,-0.181,0.916,0.37
71567,1755608475827,10.68,63.84,-28.94,799,843,810,415,821,34.48275862068966,-0.18,0.916,0.368
71596,1755608475852,10.65,63.78,-28.98,801,840,812,337,815,34.48275862068966,-0.181,0.916,0.368
71626,1755608475881,10.62,63.8,-28.99,807,840,808,328,817,33.333333333333336,-0.183,0.915,0.374
71656,1755608475911,10.63,63.81,-29.02,804,836,808,379,818,33.333333333333336,-0.184,0.916,0.374
71685,1755608475940,10.63,63.82,-29.06,808,840,812,426,819,34.48275862068966,-0.182,0.916,0.372
71715,1755608475970,10.62,63.87,-29.06,804,843,812,405,817,33.333333333333336,-0.182,0.915,0.372
71744,1755608475999,10.59,63.94,-29.08,806,843,810,315,820,34.48275862068966,-0.181,0.918,0.373
71774,1755608476029,10.57,64.01,-29.13,806,835,813,315,819,33.333333333333336,-0.181,0.917,0.372
71803,1755608476059,10.59,63.94,-29.2,805,844,810,425,818,34.48275862068966,-0.182,0.913,0.369
71833,1755608476088,10.58,63.91,-29.24,805,843,813,412,818,33.333333333333336,-0.186,0.915,0.37
71862,1755608476117,10.56,63.91,-29.23,799,846,820,334,819,34.48275862068966,-0.187,0.916,0.373
71892,1755608476147,10.58,63.94,-29.28,805,841,810,324,818,33.333333333333336,-0.187,0.914,0.375
71921,1755608476176,10.58,63.97,-29.28,800,843,812,415,818,34.48275862068966,-0.187,0.914,0.375
71951,1755608476206,10.59,63.97,-29.31,802,852,813,421,817,33.333333333333336,-0.185,0.915,0.371
71980,1755608476235,10.58,63.95,-29.34,805,839,810,366,817,34.48275862068966,-0.184,0.915,0.369
72010,1755608476265,10.57,63.98,-29.34,799,854,807,318,834,33.333333333333336,-0.187,0.916,0.371
72039,1755608476294,10.58,64.0,-29.34,803,844,811,377,820,34.48275862068966,-0.187,0.916,0.372
72069,1755608476324,10.59,64.04,-29.36,805,845,811,443,819,33.333333333333336,-0.186,0.915,0.371
72098,1755608476353,10.59,64.05,-29.32,803,843,821,411,820,34.48275862068966,-0.185,0.916,0.367
72127,1755608476383,10.56,64.05,-29.31,804,844,809,312,817,34.48275862068966,-0.183,0.915,0.367
72157,1755608476412,10.56,64.08,-29.33,800,843,811,349,819,33.333333333333336,-0.182,0.916,0.373
72186,1755608476441,10.59,64.14,-29.39,803,842,814,434,821,34.48275862068966,-0.184,0.919,0.372
72216,1755608476471,10.61,64.21,-29.43,803,846,813,398,821,33.333333333333336,-0.185,0.916,0.369
72245,1755608476500,10.63,64.16,-29.43,798,842,813,273,830,34.48275862068966,-0.185,0.916,0.365
72275,1755608476530,10.62,64.22,-29.44,798,835,810,329,854,33.333333333333336,-0.183,0.918,0.365
72304,1755608476560,10.66,64.17,-29.58,803,836,811,415,818,34.48275862068966,-0.185,0.917,0.365
72334,1755608476589,10.65,64.16,-29.58,803,846,815,429,816,33.333333333333336,-0.188,0.914,0.367
72363,1755608476618,10.68,64.14,-29.61,803,847,815,351,845,34.48275862068966,-0.187,0.917,0.367
72393,1755608476648,10.7,64.15,-29.68,804,844,810,310,821,33.333333333333336,-0.189,0.918,0.366
72422,1755608476677,10.68,64.17,-29.67,801,842,808,371,819,34.48275862068966,-0.188,0.917,0.366
72452,1755608476706,10.7,64.19,-29.69,802,839,809,419,820,33.333333333333336,-0.187,0.917,0.367
72481,1755608476736,10.69,64.19,-29.72,801,845,811,381,823,34.48275862068966,-0.185,0.917,0.367
72510,1755608476766,10.69,64.19,-29.77,798,846,814,323,825,34.48275862068966,-0.185,0.916,0.365
72540,1755608476795,10.67,64.18,-29.79,804,842,812,366,824,33.333333333333336,-0.187,0.916,0.365
72569,1755608476825,10.67,64.19,-29.78,804,841,813,455,817,34.48275862068966,-0.19,0.917,0.366
72599,1755608476854,10.68,64.18,-29.78,807,844,812,410,820,33.333333333333336,-0.189,0.915,0.366
72629,1755608476884,10.69,64.18,-29.81,805,841,811,321,826,33.333333333333336,-0.186,0.917,0.365
72658,1755608476913,10.68,64.21,-29.84,803,842,811,336,820,34.48275862068966,-0.186,0.918,0.365
72688,1755608476943,10.68,64.17,-29.87,804,838,812,428,818,33.333333333333336,-0.186,0.916,0.365
72717,1755608476973,10.66,64.16,-29.89,804,845,811,419,822,34.48275862068966,-0.187,0.915,0.366
72747,1755608477002,10.66,64.17,-29.91,798,835,810,360,814,33.333333333333336,-0.188,0.918,0.368
72777,1755608477032,10.68,64.22,-29.95,804,844,812,314,818,33.333333333333336,-0.188,0.919,0.364
72806,1755608477062,10.68,64.18,-29.98,803,848,812,368,817,34.48275862068966,-0.189,0.916,0.365
72836,1755608477091,10.66,64.17,-29.98,801,841,815,433,822,33.333333333333336,-0.19,0.916,0.367
72865,1755608477120,10.69,64.21,-30.04,803,842,808,414,817,34.48275862068966,-0.189,0.918,0.366
72895,1755608477150,10.7,64.23,-30.05,802,843,811,307,818,33.333333333333336,-0.19,0.917,0.368
72924,1755608477179,10.7,64.18,-30.04,806,843,811,346,821,34.48275862068966,-0.188,0.918,0.365
72954,1755608477208,10.7,64.18,-30.07,801,835,813,442,820,33.333333333333336,-0.188,0.916,0.365
72983,1755608477238,10.69,64.16,-30.05,804,837,809,404,817,34.48275862068966,-0.19,0.916,0.365
73012,1755608477267,10.68,64.21,-30.05,803,842,813,315,817,34.48275862068966,-0.187,0.915,0.367
73042,1755608477297,10.71,64.17,-30.11,802,845,806,323,822,33.333333333333336,-0.187,0.917,0.365
73072,1755608477327,10.68,64.2,-30.13,802,838,810,401,816,33.333333333333336,-0.186,0.917,0.365
73101,1755608477356,10.71,64.2,-30.15,802,854,810,398,818,34.48275862068966,-0.188,0.916,0.366
73131,1755608477386,10.71,64.18,-30.15,805,842,809,352,818,33.333333333333336,-0.189,0.916,0.367
73160,1755608477415,10.71,64.2,-30.14,802,842,812,304,820,34.48275862068966,-0.187,0.917,0.365
73189,1755608477445,10.7,64.2,-30.17,803,843,813,360,816,34.48275862068966,-0.186,0.917,0.363
73219,1755608477474,10.67,64.18,-30.2,802,846,809,425,816,33.333333333333336,-0.186,0.916,0.364
73248,1755608477503,10.67,64.16,-30.2,799,840,811,381,819,34.48275862068966,-0.188,0.916,0.366
73278,1755608477533,10.67,64.15,-30.22,804,836,811,311,817,33.333333333333336,-0.188,0.916,0.365
73307,1755608477562,10.67,64.17,-30.24,797,843,815,338,821,34.48275862068966,-0.187,0.916,0.365
73337,1755608477592,10.66,64.14,-30.25,804,839,811,435,819,33.333333333333336,-0.187,0.916,0.366
73366,1755608477621,10.66,64.13,-30.29,806,835,812,416,818,34.48275862068966,-0.186,0.917,0.366
73395,1755608477651,10.66,64.14,-30.31,804,835,810,338,815,34.48275862068966,-0.187,0.917,0.366
73425,1755608477680,10.64,64.14,-30.34,800,838,810,342,830,33.333333333333336,-0.185,0.916,0.365
73454,1755608477710,10.65,64.07,-30.41,803,844,814,433,821,34.48275862068966,-0.186,0.914,0.365
73484,1755608477739,10.64,64.09,-30.41,798,837,812,440,813,33.333333333333336,-0.189,0.917,0.367
73513,1755608477768,10.63,64.13,-30.43,804,839,810,371,816,34.48275862068966,-0.188,0.916,0.367
73543,1755608477798,10.65,64.12,-30.47,802,842,813,336,817,33.333333333333336,-0.189,0.917,0.366
73572,1755608477827,10.62,64.13,-30.44,799,842,810,382,818,34.48275862068966,-0.186,0.916,0.366
73602,1755608477857,10.65,64.11,-30.49,803,836,811,446,824,33.333333333333336,-0.185,0.917,0.367
73631,1755608477886,10.62,64.1,-30.53,797,848,810,393,814,34.48275862068966,-0.186,0.917,0.369
73660,1755608477915,10.64,64.12,-30.58,800,850,813,324,821,34.48275862068966,-0.188,0.918,0.368
73690,1755608477945,10.67,64.12,-30.62,803,844,807,364,819,33.333333333333336,-0.191,0.915,0.367
73719,1755608477974,10.68,64.11,-30.59,803,840,810,450,817,34.48275862068966,-0.193,0.914,0.366
73749,1755608478004,10.67,64.12,-30.56,803,840,811,408,819,33.333333333333336,-0.19,0.915,0.367
73778,1755608478034,10.7,64.1,-30.62,805,834,813,323,815,34.48275862068966,-0.187,0.917,0.368
73808,1755608478064,10.69,64.09,-30.65,802,842,811,341,820,33.333333333333336,-0.187,0.915,0.367
73838,1755608478093,10.71,64.08,-30.67,802,840,809,416,815,33.333333333333336,-0.19,0.915,0.368
73867,1755608478122,10.73,64.12,-30.65,798,842,810,427,820,34.48275862068966,-0.192,0.916,0.369
73897,1755608478152,10.69,64.15,-30.55,802,838,814,337,822,33.333333333333336,-0.19,0.914,0.366
73926,1755608478181,10.72,64.1,-30.65,805,841,807,302,819,34.48275862068966,-0.185,0.916,0.366
73956,1755608478211,10.74,64.07,-30.73,804,837,814,367,819,33.333333333333336,-0.187,0.916,0.37
73985,1755608478240,10.77,64.06,-30.75,804,835,812,433,817,34.48275862068966,-0.192,0.916,0.37
74015,1755608478270,10.81,64.07,-30.78,801,846,815,378,821,33.333333333333336,-0.191,0.915,0.368
74044,1755608478299,10.81,64.06,-30.75,802,841,813,311,819,34.48275862068966,-0.191,0.915,0.368
74073,1755608478328,10.8,64.06,-30.73,802,835,813,355,821,34.48275862068966,-0.188,0.916,0.368
74103,1755608478358,10.83,64.07,-30.77,801,842,814,446,813,33.333333333333336,-0.186,0.916,0.372
74132,1755608478387,10.82,64.1,-30.79,797,839,813,398,819,34.48275862068966,-0.184,0.917,0.369
74162,1755608478417,10.77,64.11,-30.82,800,842,813,310,818,33.333333333333336,-0.184,0.915,0.366
74191,1755608478446,10.76,64.05,-30.87,800,845,811,327,814,34.48275862068966,-0.187,0.915,0.366
74221,1755608478476,10.75,64.07,-30.84,802,847,807,422,814,33.333333333333336,-0.192,0.917,0.369
74250,1755608478505,10.78,64.07,-30.83,803,845,808,414,839,34.48275862068966,-0.194,0.915,0.37
74280,1755608478535,10.79,64.15,-30.84,800,841,807,328,811,33.333333333333336,-0.188,0.916,0.367
74309,1755608478564,10.78,64.13,-30.88,804,837,813,335,815,34.48275862068966,-0.184,0.916,0.364
74338,1755608478593,10.77,64.06,-30.98,802,838,811,392,824,34.48275862068966,-0.188,0.915,0.368
74368,1755608478623,10.78,64.08,-30.98,798,841,819,419,819,33.333333333333336,-0.193,0.917,0.371
