timestamp_ms,recv_timestamp_ms,pitch,roll,yaw,flex1,flex2,flex3,flex4,flex5,sampling_hz,accel_x,accel_y,accel_z
68326,1755602780529,15.78,13.75,-0.17,787,883,766,386,839,34.48275862068966,-0.267,0.237,0.941
68356,1755602780531,15.76,13.76,-0.19,781,880,779,414,816,33.333333333333336,-0.267,0.235,0.943
68385,1755602780533,15.75,13.77,-0.2,789,884,773,368,815,34.48275862068966,-0.268,0.233,0.944
68406,1755602780535,15.76,13.79,-0.2,786,877,773,356,814,47.61904761904762,-0.269,0.232,0.945
68435,1755602780537,15.76,13.83,-0.19,789,871,779,363,820,34.48275862068966,-0.271,0.232,0.944
68465,1755602780539,15.75,13.85,-0.18,788,882,775,313,813,33.333333333333336,-0.269,0.234,0.942
68495,1755602780541,15.76,13.85,-0.18,790,879,775,334,812,33.333333333333336,-0.269,0.235,0.942
68524,1755602780543,15.76,13.84,-0.18,788,879,777,426,837,34.48275862068966,-0.269,0.235,0.943
68553,1755602780545,15.74,13.86,-0.18,785,876,775,397,820,34.48275862068966,-0.267,0.235,0.943
68583,1755602780547,15.75,13.86,-0.19,783,866,777,327,817,33.333333333333336,-0.266,0.236,0.943
68612,1755602780548,15.72,13.87,-0.19,778,886,772,345,815,34.48275862068966,-0.267,0.237,0.943
68642,1755602780551,15.73,13.87,-0.21,783,882,775,371,816,33.333333333333336,-0.267,0.236,0.943
68671,1755602780552,15.74,13.87,-0.21,784,877,773,399,814,34.48275862068966,-0.268,0.235,0.943
68701,1755602780554,15.73,13.87,-0.21,783,875,773,338,818,33.333333333333336,-0.267,0.236,0.943
68730,1755602780557,15.73,13.86,-0.21,786,886,776,327,817,34.48275862068966,-0.268,0.237,0.942
68760,1755602780558,15.72,13.85,-0.22,787,882,772,384,820,33.333333333333336,-0.268,0.236,0.943
68790,1755602780561,15.73,13.85,-0.22,790,877,773,432,820,33.333333333333336,-0.27,0.235,0.944
68819,1755602780563,15.74,13.85,-0.2,791,876,771,405,816,34.48275862068966,-0.27,0.235,0.945
68849,1755602780565,15.77,13.84,-0.18,781,884,773,323,814,33.333333333333336,-0.268,0.235,0.944
68879,1755602780567,15.74,13.85,-0.17,788,879,770,339,810,33.333333333333336,-0.265,0.236,0.944
68908,1755602780569,15.74,13.84,-0.18,784,876,777,418,818,34.48275862068966,-0.265,0.236,0.945
68938,1755602780571,15.74,13.85,-0.19,785,878,779,403,814,33.333333333333336,-0.266,0.235,0.946
68967,1755602780573,15.75,13.87,-0.18,782,888,772,335,812,34.48275862068966,-0.269,0.235,0.945
68997,1755602780575,15.77,13.88,-0.16,777,881,769,312,810,33.333333333333336,-0.268,0.236,0.943
69026,1755602780577,15.75,13.88,-0.15,787,878,787,383,813,34.48275862068966,-0.266,0.237,0.942
69046,1755602780580,15.74,13.87,-0.15,786,883,774,346,816,50.0,-0.265,0.238,0.942
69076,1755602780581,15.75,13.88,-0.17,780,885,769,412,815,33.333333333333336,-0.265,0.238,0.944
69106,1755602780584,15.72,13.9,-0.17,784,876,773,424,806,33.333333333333336,-0.266,0.237,0.945
69135,1755602780586,15.72,13.9,-0.19,780,877,769,384,812,34.48275862068966,-0.265,0.237,0.943
69155,1755602780588,15.73,13.9,-0.2,786,880,772,429,815,50.0,-0.265,0.237,0.942
69185,1755602780589,15.71,13.9,-0.22,785,878,769,368,813,33.333333333333336,-0.266,0.237,0.942
69214,1755602780592,15.71,13.9,-0.24,785,879,768,320,819,34.48275862068966,-0.266,0.236,0.944
69234,1755602780593,15.71,13.9,-0.24,783,880,774,400,815,50.0,-0.267,0.236,0.945
69264,1755602780595,15.71,13.91,-0.26,789,871,771,342,816,33.333333333333336,-0.267,0.236,0.944
69293,1755602780598,15.7,13.92,-0.26,787,875,776,376,813,34.48275862068966,-0.267,0.236,0.943
69323,1755602780600,15.7,13.92,-0.28,785,871,773,432,811,33.333333333333336,-0.267,0.236,0.944
69352,1755602780602,15.72,13.92,-0.29,784,878,772,354,816,34.48275862068966,-0.267,0.236,0.944
69382,1755602780603,15.72,13.93,-0.3,787,884,772,318,816,33.333333333333336,-0.266,0.237,0.944
69411,1755602780606,15.72,13.92,-0.31,783,881,770,359,814,34.48275862068966,-0.266,0.236,0.943
69441,1755602780608,15.72,13.91,-0.32,785,885,776,421,811,33.333333333333336,-0.266,0.236,0.944
69470,1755602780610,15.72,13.92,-0.34,779,882,771,393,813,34.48275862068966,-0.267,0.236,0.944
69500,1755602780612,15.7,13.95,-0.34,784,880,768,320,815,33.333333333333336,-0.267,0.236,0.943
69520,1755602780614,15.71,13.95,-0.35,785,883,772,406,814,50.0,-0.268,0.235,0.943
69549,1755602780616,15.7,13.94,-0.34,786,887,775,324,815,34.48275862068966,-0.268,0.235,0.943
69578,1755602780618,15.69,13.95,-0.34,784,884,775,345,810,34.48275862068966,-0.267,0.237,0.943
69608,1755602780620,15.69,13.94,-0.35,782,876,771,418,824,33.333333333333336,-0.266,0.237,0.943
69637,1755602780622,15.67,13.95,-0.36,781,880,776,399,813,34.48275862068966,-0.266,0.236,0.943
69667,1755602780624,15.69,13.94,-0.38,783,884,772,342,818,33.333333333333336,-0.267,0.236,0.943
69696,1755602780627,15.69,13.94,-0.38,788,875,773,333,819,34.48275862068966,-0.267,0.236,0.944
69725,1755602780628,15.7,13.95,-0.38,783,880,772,410,812,34.48275862068966,-0.267,0.237,0.943
69755,1755602780631,15.69,13.96,-0.39,780,883,775,419,814,33.333333333333336,-0.267,0.236,0.943
69784,1755602780633,15.69,13.95,-0.39,794,877,773,350,804,34.48275862068966,-0.267,0.235,0.942
69814,1755602780635,15.7,13.95,-0.4,785,877,771,319,822,33.333333333333336,-0.268,0.235,0.943
69843,1755602780637,15.69,13.96,-0.39,787,874,776,371,817,34.48275862068966,-0.268,0.235,0.944
69873,1755602780639,15.71,13.97,-0.39,783,873,774,421,815,33.333333333333336,-0.267,0.235,0.943
69903,1755602780641,15.7,13.97,-0.39,781,881,771,392,812,33.333333333333336,-0.266,0.236,0.943
69932,1755602780643,15.7,13.97,-0.39,785,888,771,329,814,34.48275862068966,-0.266,0.236,0.943
69962,1755602780645,15.7,13.97,-0.4,777,875,772,362,813,33.333333333333336,-0.265,0.236,0.943
69991,1755602780647,15.69,13.97,-0.42,782,880,770,422,825,34.48275862068966,-0.265,0.236,0.943
70021,1755602780649,15.66,13.98,-0.42,781,884,771,400,810,33.333333333333336,-0.266,0.237,0.943
70050,1755602780651,15.65,13.97,-0.43,789,873,777,334,824,34.48275862068966,-0.266,0.236,0.944
70080,1755602780654,15.64,13.97,-0.44,781,885,777,334,812,33.333333333333336,-0.266,0.236,0.944
70109,1755602780655,15.66,13.96,-0.44,782,871,783,411,816,34.48275862068966,-0.267,0.235,0.944
70139,1755602780658,15.67,13.96,-0.44,782,882,775,425,814,33.333333333333336,-0.266,0.236,0.943
70168,1755602780659,15.7,13.95,-0.47,782,881,775,364,815,34.48275862068966,-0.265,0.237,0.943
70198,1755602780661,15.72,13.93,-0.49,781,869,775,323,819,33.333333333333336,-0.266,0.237,0.943
70227,1755602780663,15.74,13.91,-0.51,785,880,768,361,814,34.48275862068966,-0.265,0.237,0.942
70257,1755602780665,15.76,13.88,-0.52,784,870,776,414,811,33.333333333333336,-0.266,0.236,0.943
70277,1755602780667,15.76,13.87,-0.52,785,874,773,342,815,50.0,-0.268,0.236,0.943
70307,1755602780669,15.77,13.85,-0.52,785,868,771,402,811,33.333333333333336,-0.269,0.234,0.944
70336,1755602780672,15.78,13.85,-0.5,783,872,778,379,818,34.48275862068966,-0.27,0.234,0.946
70366,1755602780673,15.76,13.86,-0.48,784,876,773,311,810,33.333333333333336,-0.269,0.234,0.946
70395,1755602780676,15.79,13.87,-0.47,786,872,774,334,811,34.48275862068966,-0.266,0.234,0.946
70425,1755602780678,15.78,13.88,-0.47,788,875,773,423,812,33.333333333333336,-0.265,0.236,0.945
70454,1755602780680,15.76,13.88,-0.49,785,878,775,421,812,34.48275862068966,-0.265,0.236,0.944
70484,1755602780682,15.77,13.88,-0.51,787,883,772,346,816,33.333333333333336,-0.267,0.235,0.946
70514,1755602780683,15.78,13.91,-0.51,787,881,777,320,815,33.333333333333336,-0.268,0.235,0.946
70534,1755602780685,15.78,13.92,-0.51,782,884,777,373,811,50.0,-0.267,0.236,0.945
70563,1755602780687,15.74,13.94,-0.52,787,881,776,362,816,34.48275862068966,-0.266,0.237,0.943
70593,1755602780689,15.74,13.93,-0.53,781,881,773,426,809,33.333333333333336,-0.266,0.235,0.944
70622,1755602780691,15.75,13.94,-0.55,780,876,769,438,819,34.48275862068966,-0.267,0.235,0.945
70652,1755602780693,15.75,13.96,-0.56,782,882,769,363,810,33.333333333333336,-0.267,0.235,0.944
70681,1755602780695,15.74,13.96,-0.56,793,878,774,336,813,34.48275862068966,-0.267,0.236,0.943
70711,1755602780697,15.75,13.95,-0.58,785,881,774,372,814,33.333333333333336,-0.267,0.236,0.943
70740,1755602780700,15.75,13.93,-0.59,783,883,771,434,813,34.48275862068966,-0.268,0.236,0.943
70770,1755602780702,15.75,13.92,-0.6,779,882,776,386,810,33.333333333333336,-0.267,0.235,0.944
70799,1755602780704,15.75,13.94,-0.61,784,883,771,307,816,34.48275862068966,-0.268,0.235,0.945
70829,1755602780706,15.75,13.5,-0.61,787,875,773,342,808,33.333333333333336,-0.268,0.236,0.944
70858,1755602780709,15.76,13.49,-0.62,782,884,792,411,824,34.48275862068966,-0.267,0.236,0.944
70888,1755602780710,15.76,13.49,-0.64,785,879,778,408,812,33.333333333333336,-0.266,0.236,0.944
70917,1755602780712,15.75,13.5,-0.65,784,877,770,350,818,34.48275862068966,-0.267,0.235,0.945
70947,1755602780714,15.75,13.52,-0.65,785,879,775,339,810,33.333333333333336,-0.269,0.234,0.945
70977,1755602780717,15.76,13.53,-0.64,786,882,776,372,819,33.333333333333336,-0.269,0.234,0.945
71006,1755602780719,15.76,13.55,-0.64,785,880,769,414,807,34.48275862068966,-0.268,0.236,0.944
71036,1755602780721,15.78,13.55,-0.64,786,867,775,376,820,33.333333333333336,-0.269,0.236,0.944
71065,1755602780723,15.82,13.55,-0.64,785,872,777,320,810,34.48275862068966,-0.269,0.234,0.945
71094,1755602780724,15.86,13.56,-0.64,790,883,770,362,811,34.48275862068966,-0.27,0.234,0.945
71124,1755602780726,15.91,13.56,-0.65,781,885,770,431,820,33.333333333333336,-0.269,0.236,0.944
71153,1755602780729,15.91,13.57,-0.65,777,868,779,355,812,34.48275862068966,-0.268,0.237,0.943
71183,1755602780731,15.9,13.57,-0.66,783,883,773,294,813,33.333333333333336,-0.268,0.236,0.943
71212,1755602780733,15.89,13.58,-0.66,783,882,775,330,818,34.48275862068966,-0.268,0.236,0.943
71241,1755602780734,15.87,13.59,-0.68,787,883,774,420,821,34.48275862068966,-0.268,0.236,0.943
71271,1755602780736,15.87,13.6,-0.69,787,879,770,405,815,33.333333333333336,-0.268,0.237,0.943
71300,1755602780738,15.87,13.6,-0.71,783,878,769,333,815,34.48275862068966,-0.268,0.237,0.942
71330,1755602780741,15.85,13.61,-0.71,786,871,774,329,813,33.333333333333336,-0.268,0.237,0.942
71359,1755602780742,15.84,13.61,-0.71,784,878,770,420,810,34.48275862068966,-0.269,0.236,0.942
71389,1755602780744,15.85,13.6,-0.71,782,874,771,413,821,33.333333333333336,-0.269,0.235,0.943
71419,1755602780747,15.86,13.6,-0.72,784,886,775,367,809,33.333333333333336,-0.27,0.234,0.943
71448,1755602780748,15.86,13.61,-0.72,785,865,775,312,815,34.48275862068966,-0.271,0.235,0.943
71478,1755602780750,15.88,13.61,-0.72,782,880,775,352,814,33.333333333333336,-0.271,0.235,0.943
71507,1755602780752,15.87,13.63,-0.73,782,883,774,432,827,34.48275862068966,-0.269,0.236,0.942
71537,1755602780754,15.88,13.62,-0.75,778,884,768,414,816,33.333333333333336,-0.27,0.235,0.942
71566,1755602780756,15.88,13.62,-0.75,789,882,772,314,824,34.48275862068966,-0.271,0.234,0.944
71596,1755602780758,15.88,13.65,-0.75,788,878,773,346,816,33.333333333333336,-0.271,0.234,0.944
71625,1755602780760,15.89,13.67,-0.75,788,879,772,441,811,34.48275862068966,-0.27,0.235,0.943
71655,1755602780762,15.9,13.68,-0.76,787,881,780,412,816,33.333333333333336,-0.269,0.235,0.942
71684,1755602780764,15.9,13.67,-0.77,781,873,769,353,817,34.48275862068966,-0.269,0.235,0.942
71714,1755602780766,15.89,13.69,-0.78,787,885,772,293,816,33.333333333333336,-0.269,0.235,0.942
71743,1755602780768,15.91,13.69,-0.78,781,875,772,387,819,34.48275862068966,-0.271,0.234,0.943
71773,1755602780770,15.91,13.71,-0.77,781,880,773,414,809,33.333333333333336,-0.27,0.235,0.942
71802,1755602780772,15.94,13.71,-0.77,789,890,774,381,810,34.48275862068966,-0.27,0.235,0.941
71832,1755602780774,15.94,13.71,-0.76,787,875,774,331,815,33.333333333333336,-0.27,0.236,0.941
71861,1755602780776,15.93,13.71,-0.76,786,879,773,363,811,34.48275862068966,-0.269,0.237,0.941
71890,1755602780778,15.94,13.7,-0.78,780,884,774,427,809,34.48275862068966,-0.269,0.236,0.942
71920,1755602780780,15.93,13.7,-0.79,785,873,784,396,817,33.333333333333336,-0.268,0.236,0.941
71949,1755602780782,15.94,13.69,-0.8,791,878,772,345,824,34.48275862068966,-0.27,0.235,0.941
71979,1755602780784,15.92,13.71,-0.8,787,879,767,317,812,33.333333333333336,-0.27,0.235,0.942
72009,1755602780786,15.92,13.72,-0.81,783,876,775,397,814,33.333333333333336,-0.27,0.235,0.941
72038,1755602780787,15.93,13.73,-0.84,783,882,771,386,816,34.48275862068966,-0.27,0.235,0.942
72068,1755602780790,15.94,13.74,-0.87,790,874,779,332,822,33.333333333333336,-0.27,0.234,0.942
72089,1755602780792,15.95,13.75,-0.89,784,875,773,405,822,47.61904761904762,-0.27,0.234,0.943
72118,1755602780794,15.95,13.79,-0.91,786,885,776,353,811,34.48275862068966,-0.27,0.234,0.943
72148,1755602780796,16.02,13.79,-0.95,783,877,772,325,810,33.333333333333336,-0.271,0.234,0.942
72177,1755602780798,16.0,13.81,-0.96,780,887,772,364,813,34.48275862068966,-0.271,0.235,0.94
72207,1755602780800,16.0,13.8,-0.98,785,880,770,428,812,33.333333333333336,-0.273,0.234,0.941
72237,1755602780802,16.0,13.81,-0.97,782,878,776,390,811,33.333333333333336,-0.274,0.235,0.941
72266,1755602780804,16.0,13.81,-0.98,787,886,773,305,817,34.48275862068966,-0.272,0.236,0.94
72296,1755602780805,15.99,13.81,-1.0,788,878,776,289,813,33.333333333333336,-0.27,0.236,0.94
72325,1755602780807,15.98,13.79,-1.02,780,882,777,395,812,34.48275862068966,-0.27,0.236,0.94
72355,1755602780810,15.98,13.78,-1.04,781,880,773,399,812,33.333333333333336,-0.272,0.235,0.942
72384,1755602780813,15.97,13.81,-1.04,783,881,768,344,810,34.48275862068966,-0.274,0.234,0.943
72414,1755602780815,15.98,13.82,-1.04,790,871,777,337,819,33.333333333333336,-0.276,0.234,0.941
72443,1755602780817,15.99,13.82,-1.03,788,878,775,404,808,34.48275862068966,-0.275,0.234,0.94
72472,1755602780819,15.99,13.81,-1.03,783,887,774,424,816,34.48275862068966,-0.273,0.235,0.941
72502,1755602780821,15.97,13.83,-1.04,784,888,767,362,812,33.333333333333336,-0.271,0.236,0.942
72531,1755602780823,15.97,13.84,-1.07,779,878,774,326,809,34.48275862068966,-0.27,0.237,0.942
72561,1755602780825,15.98,13.85,-1.1,782,882,776,353,814,33.333333333333336,-0.27,0.235,0.942
72591,1755602780827,15.96,13.86,-1.1,788,889,776,436,813,33.333333333333336,-0.271,0.234,0.942
72620,1755602780829,15.97,13.84,-1.12,775,882,779,402,812,34.48275862068966,-0.272,0.234,0.941
72650,1755602780831,15.96,13.82,-1.13,783,881,782,319,812,33.333333333333336,-0.273,0.234,0.942
72680,1755602780833,15.96,13.8,-1.14,789,875,776,326,818,33.333333333333336,-0.275,0.234,0.942
72709,1755602780835,15.96,13.79,-1.13,784,890,774,422,811,34.48275862068966,-0.274,0.233,0.941
72739,1755602780837,15.94,13.79,-1.13,785,876,769,432,820,33.333333333333336,-0.274,0.232,0.943
72768,1755602780839,15.94,13.8,-1.11,785,875,773,352,818,34.48275862068966,-0.275,0.233,0.943
72797,1755602780841,15.92,13.81,-1.1,785,874,772,329,809,34.48275862068966,-0.275,0.233,0.942
72827,1755602780843,15.88,13.82,-1.07,788,879,770,399,810,33.333333333333336,-0.273,0.232,0.944
72856,1755602780845,15.87,13.85,-1.06,780,887,775,395,814,34.48275862068966,-0.27,0.236,0.943
72886,1755602780847,15.83,13.84,-1.05,790,889,773,366,818,33.333333333333336,-0.268,0.238,0.94
72916,1755602780849,15.76,13.78,-1.06,788,879,777,313,812,33.333333333333336,-0.267,0.237,0.94
72945,1755602780851,15.69,13.71,-1.06,786,878,775,345,814,34.48275862068966,-0.266,0.233,0.942
72975,1755602780853,15.66,13.66,-1.07,785,876,772,408,806,33.333333333333336,-0.268,0.233,0.945
73004,1755602780856,15.62,13.68,-1.05,791,885,778,406,813,34.48275862068966,-0.269,0.233,0.946
73034,1755602780857,15.58,13.68,-1.04,789,885,778,340,812,33.333333333333336,-0.267,0.233,0.944
73063,1755602780860,15.6,13.67,-1.05,783,880,773,349,816,34.48275862068966,-0.266,0.233,0.942
73093,1755602780862,15.59,13.61,-1.06,790,884,771,378,802,33.333333333333336,-0.267,0.232,0.944
73123,1755602780864,15.59,13.57,-1.07,785,876,778,393,809,33.333333333333336,-0.265,0.231,0.945
73152,1755602780865,15.58,13.55,-1.08,786,872,771,315,817,34.48275862068966,-0.265,0.231,0.946
73182,1755602780867,15.51,13.53,-1.06,786,889,770,316,820,33.333333333333336,-0.262,0.23,0.944
73202,1755602780870,15.49,13.48,-1.04,783,875,774,378,808,50.0,-0.262,0.23,0.943
73231,1755602780872,15.51,13.37,-0.98,781,882,772,338,821,34.48275862068966,-0.262,0.23,0.947
73261,1755602780874,15.68,13.24,-0.98,787,877,767,372,814,33.333333333333336,-0.264,0.229,0.95
73290,1755602780876,15.76,13.24,-0.97,788,879,773,428,814,34.48275862068966,-0.265,0.229,0.95
73320,1755602780878,15.74,13.16,-0.95,786,882,768,396,816,33.333333333333336,-0.262,0.227,0.944
73349,1755602780880,15.94,12.91,-0.95,788,886,771,325,815,34.48275862068966,-0.26,0.228,0.944
73378,1755602780882,16.2,12.7,-0.97,787,880,770,352,817,34.48275862068966,-0.265,0.225,0.948
73408,1755602780884,16.31,12.61,-0.95,789,898,773,428,815,33.333333333333336,-0.27,0.22,0.948
73438,1755602780887,16.36,12.6,-0.95,784,898,771,413,816,33.333333333333336,-0.27,0.218,0.945
73467,1755602780888,16.54,12.5,-1.04,788,901,775,324,815,34.48275862068966,-0.268,0.217,0.941
73496,1755602780890,16.62,12.39,-1.1,784,898,770,322,817,34.48275862068966,-0.274,0.215,0.942
73526,1755602780892,16.52,12.4,-1.08,787,902,775,389,814,33.333333333333336,-0.274,0.214,0.945
73556,1755602780894,16.59,12.38,-1.12,787,899,788,417,811,33.333333333333336,-0.275,0.213,0.945
73585,1755602780897,16.63,12.24,-1.12,790,905,776,353,820,34.48275862068966,-0.28,0.21,0.944
73615,1755602780899,16.52,12.24,-1.06,791,906,778,320,815,33.333333333333336,-0.281,0.209,0.946
73644,1755602780901,16.54,12.24,-1.05,789,902,779,363,815,34.48275862068966,-0.281,0.207,0.947
73673,1755602780903,16.55,12.22,-1.03,789,898,770,425,813,34.48275862068966,-0.282,0.206,0.946
73703,1755602780905,16.49,12.22,-0.99,785,902,773,389,805,33.333333333333336,-0.281,0.205,0.944
73732,1755602780907,16.55,12.31,-0.99,786,896,770,322,811,34.48275862068966,-0.281,0.205,0.946
73762,1755602780909,16.84,12.5,-1.05,791,894,774,362,815,33.333333333333336,-0.283,0.205,0.95
73791,1755602780910,17.12,12.69,-1.1,787,898,774,438,817,34.48275862068966,-0.286,0.206,0.949
73821,1755602780913,17.19,12.78,-1.1,795,897,770,430,819,33.333333333333336,-0.286,0.205,0.942
73850,1755602780915,17.28,12.71,-1.12,794,891,766,318,830,34.48275862068966,-0.286,0.208,0.936
73880,1755602780917,17.25,12.62,-1.12,793,882,771,336,813,33.333333333333336,-0.286,0.212,0.939
7390976289,1755602780919,17.15,12.44,-1.44,794,855,771,431,809,1.3530147533571635e-07,-0.291,0.209,0.944
76319,1755602780920,17.17,12.43,-1.45,788,854,774,367,813,1000.0,-0.29,0.21,0.941
76348,1755602780922,17.15,12.41,-1.46,795,862,772,322,814,34.48275862068966,-0.291,0.209,0.94
76378,1755602780924,17.14,12.39,-1.46,790,859,772,356,814,33.333333333333336,-0.291,0.209,0.941
76407,1755602780926,17.16,12.4,-1.45,794,853,774,415,810,34.48275862068966,-0.292,0.209,0.943
76437,1755602780928,17.18,12.43,-1.46,792,864,774,394,814,33.333333333333336,-0.292,0.209,0.941
76467,1755602780930,17.18,12.42,-1.46,793,856,771,328,817,33.333333333333336,-0.291,0.208,0.939
76496,1755602780933,17.22,12.41,-1.48,790,865,779,348,816,34.48275862068966,-0.292,0.208,0.943
76525,1755602780935,17.25,12.45,-1.48,792,854,770,425,814,34.48275862068966,-0.293,0.208,0.945
76555,1755602780940,17.27,12.48,-1.48,792,851,772,409,812,33.333333333333336,-0.293,0.209,0.944
76584,1755602780970,17.25,12.46,-1.48,790,859,778,336,812,34.48275862068966,-0.293,0.209,0.94
76614,1755602780999,17.24,12.41,-1.5,793,859,776,331,817,33.333333333333336,-0.293,0.209,0.939
76643,1755602781028,17.22,12.38,-1.51,792,851,774,413,808,34.48275862068966,-0.293,0.209,0.942
76673,1755602781058,17.22,12.39,-1.51,791,862,774,432,821,33.333333333333336,-0.294,0.209,0.944
76702,1755602781088,17.21,12.41,-1.51,785,863,771,358,806,34.48275862068966,-0.294,0.208,0.943
76732,1755602781117,17.21,12.39,-1.51,790,863,774,301,808,33.333333333333336,-0.293,0.208,0.941
76761,1755602781146,17.19,12.4,-1.5,793,855,774,345,812,34.48275862068966,-0.292,0.209,0.942
76791,1755602781176,17.19,12.45,-1.51,792,857,777,424,806,33.333333333333336,-0.292,0.211,0.943
76820,1755602781205,17.18,12.47,-1.51,791,855,776,389,819,34.48275862068966,-0.292,0.209,0.943
76850,1755602781235,17.15,12.48,-1.5,792,856,774,320,815,33.333333333333336,-0.293,0.208,0.942
76879,1755602781264,17.15,12.49,-1.49,787,858,777,329,812,34.48275862068966,-0.292,0.21,0.943
76908,1755602781293,17.15,12.51,-1.49,792,852,776,423,814,34.48275862068966,-0.293,0.211,0.943
76938,1755602781323,17.11,12.54,-1.46,792,858,775,392,813,33.333333333333336,-0.285,0.21,0.941
76967,1755602781352,17.12,12.53,-1.48,797,860,777,304,815,34.48275862068966,-0.286,0.21,0.94
76996,1755602781382,17.13,12.49,-1.48,791,857,775,336,811,34.48275862068966,-0.288,0.211,0.941
77026,1755602781412,17.12,12.5,-1.47,788,861,775,417,813,33.333333333333336,-0.29,0.212,0.942
77056,1755602781441,17.14,12.51,-1.47,787,866,773,404,811,33.333333333333336,-0.29,0.211,0.942
77085,1755602781470,17.13,12.5,-1.44,793,856,767,361,814,34.48275862068966,-0.291,0.21,0.941
77115,1755602781500,17.08,12.5,-1.42,791,855,776,298,813,33.333333333333336,-0.29,0.21,0.942
77144,1755602781530,17.02,12.49,-1.4,793,856,775,368,826,34.48275862068966,-0.289,0.212,0.942
77174,1755602781559,16.96,12.49,-1.39,803,863,774,429,810,33.333333333333336,-0.288,0.212,0.942
77203,1755602781589,16.96,12.5,-1.4,791,849,774,382,817,34.48275862068966,-0.288,0.211,0.943
77233,1755602781618,16.97,12.51,-1.4,794,856,776,325,803,33.333333333333336,-0.29,0.211,0.943
77263,1755602781648,16.97,12.51,-1.39,788,858,774,338,812,33.333333333333336,-0.291,0.21,0.941
77292,1755602781677,16.94,12.52,-1.35,790,851,775,420,811,34.48275862068966,-0.292,0.21,0.942
77321,1755602781706,16.92,12.5,-1.32,793,858,771,416,815,34.48275862068966,-0.29,0.209,0.942
77351,1755602781736,16.92,12.51,-1.3,792,858,774,341,821,33.333333333333336,-0.288,0.21,0.944
77380,1755602781765,16.9,12.55,-1.28,790,855,775,337,818,34.48275862068966,-0.285,0.212,0.945
77409,1755602781795,16.92,12.58,-1.3,793,851,769,402,815,34.48275862068966,-0.284,0.212,0.945
77439,1755602781824,16.9,12.6,-1.3,794,851,772,412,813,33.333333333333336,-0.283,0.213,0.943
77468,1755602781854,16.92,12.61,-1.32,790,859,766,363,817,34.48275862068966,-0.284,0.214,0.943
77498,1755602781883,16.91,12.6,-1.32,798,858,775,292,813,33.333333333333336,-0.285,0.216,0.942
77527,1755602781913,16.88,12.57,-1.33,780,862,770,379,814,34.48275862068966,-0.285,0.216,0.94
77557,1755602781942,16.84,12.51,-1.35,791,857,773,412,816,33.333333333333336,-0.284,0.214,0.94
77587,1755602781972,16.83,12.47,-1.38,787,863,779,368,817,33.333333333333336,-0.285,0.212,0.943
77616,1755602782001,16.82,12.47,-1.38,781,856,775,311,815,34.48275862068966,-0.287,0.21,0.946
77645,1755602782030,16.81,12.5,-1.38,793,851,781,342,814,34.48275862068966,-0.285,0.211,0.945
77675,1755602782060,16.85,12.5,-1.39,790,859,770,422,816,33.333333333333336,-0.285,0.212,0.945
77704,1755602782090,16.83,12.51,-1.41,795,849,766,386,814,34.48275862068966,-0.285,0.212,0.944
77734,1755602782119,16.82,12.51,-1.43,793,860,773,323,812,33.333333333333336,-0.285,0.211,0.943
77763,1755602782149,16.81,12.52,-1.42,788,858,775,341,821,34.48275862068966,-0.286,0.21,0.944
77793,1755602782178,16.8,12.53,-1.42,804,857,779,406,810,33.333333333333336,-0.284,0.212,0.944
77822,1755602782207,16.81,12.52,-1.43,784,856,774,372,818,34.48275862068966,-0.284,0.212,0.943
77852,1755602782237,16.79,12.52,-1.45,795,858,769,329,815,33.333333333333336,-0.283,0.212,0.943
77881,1755602782267,16.8,12.5,-1.48,790,861,780,333,812,34.48275862068966,-0.283,0.211,0.944
77911,1755602782296,16.78,12.5,-1.5,793,852,776,378,813,33.333333333333336,-0.284,0.211,0.944
77940,1755602782326,16.73,12.5,-1.52,787,863,773,422,820,34.48275862068966,-0.283,0.212,0.943
77960,1755602782346,17.03,12.48,-1.55,789,857,774,355,817,50.0,-0.283,0.211,0.942
77990,1755602782375,17.0,12.46,-1.56,792,855,775,405,812,33.333333333333336,-0.284,0.21,0.944
78019,1755602782405,16.99,12.45,-1.57,782,859,777,371,818,34.48275862068966,-0.283,0.209,0.945
78049,1755602782434,16.96,12.46,-1.6,789,858,774,315,814,33.333333333333336,-0.281,0.207,0.945
78078,1755602782464,16.96,12.44,-1.63,788,855,778,361,816,34.48275862068966,-0.283,0.208,0.946
78108,1755602782493,16.94,12.46,-1.63,792,861,772,425,819,33.333333333333336,-0.287,0.21,0.945
78138,1755602782523,16.91,12.46,-1.61,792,856,779,421,811,33.333333333333336,-0.286,0.209,0.944
78167,1755602782552,16.93,12.43,-1.62,791,854,774,329,818,34.48275862068966,-0.281,0.209,0.944
78196,1755602782582,16.93,12.42,-1.67,787,853,773,327,813,34.48275862068966,-0.278,0.212,0.943
78226,1755602782611,16.96,12.37,-1.76,785,853,768,395,816,33.333333333333336,-0.278,0.21,0.944
78255,1755602782640,16.96,12.34,-1.82,789,857,773,395,813,34.48275862068966,-0.283,0.206,0.947
78285,1755602782670,16.96,12.37,-1.84,791,855,773,340,814,33.333333333333336,-0.286,0.205,0.947
78314,1755602782699,16.98,12.41,-1.85,785,858,774,289,810,34.48275862068966,-0.286,0.206,0.945
78344,1755602782729,16.97,12.38,-1.87,794,856,773,373,807,33.333333333333336,-0.285,0.206,0.944
78373,1755602782759,16.93,12.36,-1.89,789,856,780,409,811,34.48275862068966,-0.283,0.206,0.945
78403,1755602782788,16.94,12.34,-1.91,794,857,770,336,819,33.333333333333336,-0.283,0.206,0.948
78432,1755602782817,16.93,12.37,-1.94,790,860,777,302,815,34.48275862068966,-0.283,0.206,0.948
78462,1755602782847,16.93,12.38,-1.96,795,860,775,346,819,33.333333333333336,-0.283,0.207,0.946
78491,1755602782876,16.91,12.35,-1.99,792,852,782,420,810,34.48275862068966,-0.283,0.208,0.944
78520,1755602782905,16.91,12.29,-2.03,784,847,768,350,813,34.48275862068966,-0.284,0.208,0.943
78550,1755602782935,16.91,12.26,-2.07,793,854,772,319,814,33.333333333333336,-0.284,0.207,0.944
78579,1755602782964,16.91,12.24,-2.12,785,860,774,337,809,34.48275862068966,-0.284,0.204,0.946
78609,1755602782994,16.95,12.2,-2.16,792,849,773,416,812,33.333333333333336,-0.285,0.203,0.948
78638,1755602783023,16.98,12.18,-2.2,794,856,776,418,815,34.48275862068966,-0.285,0.203,0.947
78668,1755602783053,17.01,12.12,-2.25,788,853,773,344,813,33.333333333333336,-0.285,0.201,0.945
78697,1755602783082,17.04,12.05,-2.29,787,860,776,341,815,34.48275862068966,-0.286,0.202,0.946
78726,1755602783112,16.97,11.99,-2.29,790,853,777,400,810,34.48275862068966,-0.287,0.202,0.947
78756,1755602783141,16.93,11.93,-2.31,789,855,770,430,813,33.333333333333336,-0.287,0.199,0.945
78785,1755602783170,16.94,11.91,-2.3,799,855,776,344,813,34.48275862068966,-0.288,0.195,0.949
78814,1755602783200,16.98,11.93,-2.3,793,852,779,329,816,34.48275862068966,-0.288,0.196,0.95
78844,1755602783229,16.99,11.95,-2.31,791,864,778,384,813,33.333333333333336,-0.285,0.2,0.944
78873,1755602783259,17.01,11.88,-2.34,795,851,773,442,814,34.48275862068966,-0.287,0.199,0.943
78903,1755602783288,17.01,11.85,-2.34,792,861,780,381,815,33.333333333333336,-0.287,0.197,0.948
78932,1755602783318,17.06,11.85,-2.35,791,858,772,326,816,34.48275862068966,-0.288,0.195,0.95
78962,1755602783347,17.1,11.88,-2.34,791,856,776,339,816,33.333333333333336,-0.289,0.194,0.948
78991,1755602783376,17.09,11.9,-2.33,792,859,777,378,814,34.48275862068966,-0.288,0.195,0.947
79020,1755602783406,17.1,11.9,-2.31,793,850,772,397,805,34.48275862068966,-0.288,0.197,0.947
79050,1755602783435,17.13,11.87,-2.29,793,857,770,328,816,33.333333333333336,-0.289,0.199,0.946
79079,1755602783465,17.12,11.86,-2.29,795,845,782,344,813,34.48275862068966,-0.289,0.198,0.946
79109,1755602783495,17.09,11.85,-2.27,789,849,774,430,815,33.333333333333336,-0.289,0.197,0.947
79129,1755602783514,17.09,11.85,-2.28,786,854,776,345,815,50.0,-0.289,0.196,0.947
79159,1755602783544,17.08,11.84,-2.26,790,858,774,432,814,33.333333333333336,-0.29,0.196,0.947
79188,1755602783574,17.05,11.87,-2.24,797,856,770,422,814,34.48275862068966,-0.289,0.197,0.947
79218,1755602783603,17.05,11.87,-2.25,786,852,768,360,816,33.333333333333336,-0.287,0.197,0.945
79247,1755602783633,17.04,11.85,-2.29,790,850,775,322,813,34.48275862068966,-0.287,0.198,0.944
79277,1755602783662,17.02,11.85,-2.29,792,855,773,383,814,33.333333333333336,-0.288,0.198,0.946
79306,1755602783691,17.01,11.85,-2.28,791,852,772,425,811,34.48275862068966,-0.289,0.197,0.947
79336,1755602783722,17.0,11.87,-2.26,787,854,773,384,814,33.333333333333336,-0.289,0.197,0.948
79356,1755602783742,17.0,11.88,-2.25,791,849,769,406,817,50.0,-0.288,0.198,0.947
79386,1755602783771,17.02,11.88,-2.25,791,852,771,362,819,33.333333333333336,-0.288,0.199,0.946
79415,1755602783800,17.03,11.87,-2.25,789,854,773,308,808,34.48275862068966,-0.288,0.198,0.946
