timestamp_ms,recv_timestamp_ms,pitch,roll,yaw,flex1,flex2,flex3,flex4,flex5,sampling_hz,accel_x,accel_y,accel_z
21748,1755606889956,71.87,-63.52,-34.87,782,775,782,333,873,33.333333333333336,-0.956,-0.277,0.126
21778,1755606889985,71.96,-63.52,-34.9,780,768,781,405,870,33.333333333333336,-0.958,-0.28,0.123
21807,1755606890015,72.01,-63.63,-34.89,782,765,776,417,865,34.48275862068966,-0.959,-0.279,0.122
21837,1755606890044,72.04,-63.69,-34.88,780,773,783,336,871,33.333333333333336,-0.954,-0.283,0.121
21866,1755606890074,72.14,-63.8,-34.89,780,771,785,327,873,34.48275862068966,-0.955,-0.28,0.12
21895,1755606890103,72.08,-63.86,-34.85,781,3,782,360,871,34.48275862068966,-0.956,-0.276,0.118
21925,1755606890133,72.1,-63.99,-34.86,782,1,782,404,875,33.333333333333336,-0.957,-0.272,0.121
21954,1755606890162,72.04,-64.02,-34.86,783,3,781,381,872,34.48275862068966,-0.956,-0.271,0.12
21984,1755606890192,72.04,-64.08,-34.92,783,0,785,344,879,33.333333333333336,-0.957,-0.276,0.12
22014,1755606890221,72.0,-64.15,-34.9,779,0,783,310,877,33.333333333333336,-0.959,-0.277,0.118
22043,1755606890251,71.98,-64.22,-34.88,783,7,785,380,873,34.48275862068966,-0.957,-0.277,0.118
22073,1755606890280,71.98,-64.25,-34.88,782,0,779,409,874,33.333333333333336,-0.956,-0.279,0.119
22102,1755606890310,71.93,-64.22,-34.87,776,3,783,366,871,34.48275862068966,-0.955,-0.279,0.119
22132,1755606890339,71.95,-64.33,-34.87,786,0,785,343,870,33.333333333333336,-0.957,-0.276,0.118
22161,1755606890369,71.86,-64.42,-34.88,783,0,782,404,871,34.48275862068966,-0.956,-0.278,0.119
22191,1755606890399,71.78,-64.5,-35.0,793,6,778,414,871,33.333333333333336,-0.954,-0.277,0.117
22221,1755606890429,71.53,-64.49,-35.15,782,1,779,403,878,33.333333333333336,-0.952,-0.277,0.12
22250,1755606890458,71.36,-64.65,-35.28,782,5,776,340,868,34.48275862068966,-0.955,-0.277,0.122
22280,1755606890488,71.24,-64.73,-35.28,783,4,782,343,870,33.333333333333336,-0.961,-0.277,0.123
22300,1755606890508,71.19,-64.79,-35.28,783,0,782,366,873,50.0,-0.96,-0.282,0.129
22330,1755606890537,71.14,-64.8,-35.33,784,0,781,376,868,33.333333333333336,-0.955,-0.278,0.128
22359,1755606890567,70.95,-64.8,-35.38,784,0,784,424,873,34.48275862068966,-0.952,-0.282,0.13
22389,1755606890597,70.92,-64.77,-35.54,784,12,778,428,872,33.333333333333336,-0.955,-0.286,0.133
22419,1755606890626,70.72,-64.78,-35.61,783,12,782,375,870,33.333333333333336,-0.956,-0.289,0.134
22448,1755606890656,70.54,-64.71,-35.76,784,0,782,362,872,34.48275862068966,-0.946,-0.286,0.132
22478,1755606890685,70.47,-64.73,-35.83,780,0,782,397,869,33.333333333333336,-0.955,-0.286,0.139
22507,1755606890715,70.34,-64.65,-35.91,778,0,780,428,870,34.48275862068966,-0.953,-0.287,0.143
22537,1755606890745,70.28,-64.69,-36.08,783,6,783,394,874,33.333333333333336,-0.949,-0.286,0.144
22567,1755606890774,70.08,-64.63,-36.15,781,0,782,343,875,33.333333333333336,-0.949,-0.29,0.144
22596,1755606890804,70.09,-64.59,-36.17,782,3,777,367,869,34.48275862068966,-0.952,-0.294,0.146
22626,1755606890834,70.07,-64.62,-36.14,784,9,779,410,872,33.333333333333336,-0.954,-0.294,0.147
22656,1755606890863,70.01,-64.55,-36.09,783,0,783,406,872,33.333333333333336,-0.948,-0.296,0.15
22685,1755606890893,70.01,-64.47,-36.07,785,3,785,356,863,34.48275862068966,-0.948,-0.296,0.152
22715,1755606890922,70.05,-64.45,-36.05,784,2,778,338,867,33.333333333333336,-0.949,-0.296,0.153
22744,1755606890952,70.05,-64.42,-36.03,778,3,785,378,871,34.48275862068966,-0.947,-0.296,0.147
22774,1755606890982,70.01,-64.4,-36.03,783,1,781,410,879,33.333333333333336,-0.946,-0.296,0.147
22804,1755606891011,69.92,-64.42,-36.02,779,0,781,371,873,33.333333333333336,-0.948,-0.297,0.148
22833,1755606891041,69.93,-64.43,-36.06,784,0,784,332,871,34.48275862068966,-0.946,-0.297,0.15
22863,1755606891070,69.86,-64.4,-36.05,781,1,782,362,871,33.333333333333336,-0.945,-0.295,0.153
22892,1755606891100,69.83,-64.43,-36.1,785,4,781,400,869,34.48275862068966,-0.943,-0.298,0.153
22922,1755606891130,69.82,-64.41,-36.09,780,12,785,410,876,33.333333333333336,-0.948,-0.298,0.156
22952,1755606891159,69.78,-64.4,-36.09,785,0,781,340,872,33.333333333333336,-0.947,-0.297,0.157
22981,1755606891189,69.75,-64.36,-36.1,780,3,781,329,871,34.48275862068966,-0.946,-0.297,0.159
23011,1755606891219,69.69,-64.31,-36.12,782,6,782,342,864,33.333333333333336,-0.944,-0.299,0.159
23041,1755606891248,69.59,-64.23,-36.13,784,1,782,346,869,33.333333333333336,-0.943,-0.296,0.16
23070,1755606891278,69.56,-64.22,-36.17,780,10,783,343,869,34.48275862068966,-0.945,-0.296,0.159
23100,1755606891307,69.5,-64.14,-36.15,784,6,775,332,869,33.333333333333336,-0.944,-0.299,0.162
23129,1755606891337,69.5,-64.09,-36.16,784,0,780,341,874,34.48275862068966,-0.944,-0.297,0.162
23159,1755606891367,69.36,-64.07,-36.14,784,13,777,414,873,33.333333333333336,-0.943,-0.296,0.161
23188,1755606891396,69.33,-64.09,-36.21,782,3,783,393,873,34.48275862068966,-0.943,-0.297,0.163
23218,1755606891426,69.3,-64.03,-36.23,787,0,790,339,873,33.333333333333336,-0.945,-0.298,0.164
23248,1755606891455,69.31,-63.92,-36.24,784,3,782,340,875,33.333333333333336,-0.945,-0.299,0.168
23277,1755606891485,69.28,-63.83,-36.28,782,1,780,403,869,34.48275862068966,-0.942,-0.299,0.168
23307,1755606891515,69.25,-63.82,-36.44,783,0,780,417,866,33.333333333333336,-0.937,-0.299,0.166
23336,1755606891544,69.23,-63.8,-36.61,778,2,781,374,872,34.48275862068966,-0.938,-0.301,0.165
23366,1755606891574,69.17,-63.79,-36.66,784,2,784,354,866,33.333333333333336,-0.945,-0.302,0.165
23396,1755606891603,69.14,-63.75,-36.65,785,1,776,355,872,33.333333333333336,-0.945,-0.303,0.167
23425,1755606891633,69.12,-63.67,-36.61,777,0,781,419,874,34.48275862068966,-0.944,-0.305,0.171
23455,1755606891662,69.05,-63.49,-36.57,782,6,781,401,868,33.333333333333336,-0.94,-0.303,0.173
23484,1755606891692,69.02,-63.4,-36.62,783,0,776,344,871,34.48275862068966,-0.939,-0.302,0.173
23514,1755606891722,69.04,-63.4,-36.68,777,0,781,356,873,33.333333333333336,-0.938,-0.305,0.17
23543,1755606891751,69.01,-63.35,-36.67,780,0,781,391,875,34.48275862068966,-0.943,-0.307,0.17
23573,1755606891781,68.95,-63.25,-36.66,786,0,775,404,872,33.333333333333336,-0.938,-0.307,0.17
23603,1755606891811,68.94,-63.23,-36.67,780,0,784,353,871,33.333333333333336,-0.938,-0.307,0.17
23633,1755606891840,68.98,-63.2,-36.71,784,7,779,300,873,33.333333333333336,-0.939,-0.308,0.17
23662,1755606891870,68.96,-63.11,-36.68,784,0,778,351,874,34.48275862068966,-0.941,-0.307,0.173
23692,1755606891900,68.97,-63.03,-36.66,778,0,781,416,869,33.333333333333336,-0.938,-0.306,0.173
23722,1755606891929,68.94,-63.0,-36.65,780,0,771,409,870,33.333333333333336,-0.938,-0.307,0.173
23751,1755606891959,68.94,-63.0,-36.64,787,0,782,361,895,34.48275862068966,-0.939,-0.309,0.173
23781,1755606891989,68.97,-62.93,-36.64,784,0,787,358,873,33.333333333333336,-0.94,-0.309,0.174
23810,1755606892018,68.95,-62.86,-36.66,782,3,783,398,869,34.48275862068966,-0.938,-0.308,0.174
23840,1755606892048,68.97,-62.83,-36.7,782,1,785,425,866,33.333333333333336,-0.939,-0.308,0.173
23869,1755606892077,68.93,-62.78,-36.69,782,0,781,378,866,34.48275862068966,-0.941,-0.309,0.173
23899,1755606892107,68.93,-62.79,-36.7,781,8,781,330,869,33.333333333333336,-0.94,-0.31,0.172
23929,1755606892136,68.91,-62.8,-36.72,779,1,784,352,871,33.333333333333336,-0.94,-0.308,0.172
23958,1755606892166,68.89,-62.75,-36.72,779,2,784,406,873,34.48275862068966,-0.939,-0.308,0.172
23988,1755606892195,68.88,-62.7,-36.74,786,3,782,399,869,33.333333333333336,-0.94,-0.302,0.173
24017,1755606892225,68.86,-62.7,-36.73,782,0,782,353,873,34.48275862068966,-0.939,-0.305,0.173
24047,1755606892254,68.85,-62.7,-36.73,784,5,778,364,871,33.333333333333336,-0.937,-0.307,0.173
24076,1755606892284,68.83,-62.61,-36.72,780,1,781,419,872,34.48275862068966,-0.937,-0.306,0.173
24106,1755606892313,68.86,-62.57,-36.74,784,0,776,425,870,33.333333333333336,-0.939,-0.306,0.174
24135,1755606892343,68.86,-62.53,-36.73,780,2,777,378,880,34.48275862068966,-0.938,-0.308,0.174
24165,1755606892372,68.87,-62.51,-36.72,782,5,782,352,868,33.333333333333336,-0.939,-0.308,0.174
24194,1755606892402,68.88,-62.48,-36.71,782,0,778,391,872,34.48275862068966,-0.938,-0.307,0.175
24224,1755606892431,68.88,-62.51,-36.74,787,0,780,418,870,33.333333333333336,-0.936,-0.308,0.174
24253,1755606892461,68.91,-62.56,-36.78,778,3,788,383,875,34.48275862068966,-0.938,-0.308,0.173
24283,1755606892491,68.88,-62.51,-36.78,782,4,786,347,870,33.333333333333336,-0.938,-0.307,0.173
24312,1755606892520,68.93,-62.46,-36.8,785,4,781,358,869,34.48275862068966,-0.937,-0.309,0.174
24342,1755606892550,68.96,-62.4,-36.8,785,1,780,413,868,33.333333333333336,-0.938,-0.31,0.175
24371,1755606892579,68.98,-62.35,-36.8,784,0,783,403,879,34.48275862068966,-0.937,-0.31,0.174
24401,1755606892608,68.98,-62.31,-36.8,785,2,783,348,866,33.333333333333336,-0.937,-0.309,0.173
24430,1755606892638,69.0,-62.23,-36.81,785,4,776,361,875,34.48275862068966,-0.937,-0.31,0.172
24460,1755606892667,69.03,-62.18,-36.81,784,3,782,408,866,33.333333333333336,-0.938,-0.311,0.17
24489,1755606892697,69.02,-62.19,-36.83,783,0,778,406,871,34.48275862068966,-0.939,-0.311,0.17
24519,1755606892727,68.99,-62.16,-36.82,781,5,783,366,871,33.333333333333336,-0.937,-0.31,0.169
24549,1755606892756,69.0,-62.13,-36.83,782,3,782,341,870,33.333333333333336,-0.939,-0.31,0.171
24578,1755606892786,68.92,-62.07,-36.81,783,0,778,379,872,34.48275862068966,-0.936,-0.31,0.171
24608,1755606892815,68.96,-62.08,-36.84,788,6,779,375,870,33.333333333333336,-0.937,-0.31,0.172
24637,1755606892845,68.94,-62.09,-36.86,784,2,782,359,865,34.48275862068966,-0.938,-0.31,0.172
24667,1755606892875,68.91,-62.06,-36.84,784,1,778,336,873,33.333333333333336,-0.938,-0.312,0.172
24696,1755606892904,68.93,-62.06,-36.86,786,0,784,360,867,34.48275862068966,-0.938,-0.311,0.171
24726,1755606892934,68.86,-62.06,-36.85,783,1,782,411,872,33.333333333333336,-0.938,-0.31,0.169
24755,1755606892963,68.82,-62.07,-36.85,780,7,783,415,873,34.48275862068966,-0.937,-0.311,0.169
24785,1755606892993,68.82,-62.1,-36.88,778,0,782,358,866,33.333333333333336,-0.938,-0.311,0.169
24815,1755606893023,68.8,-62.03,-36.87,784,0,782,337,873,33.333333333333336,-0.94,-0.311,0.17
24844,1755606893052,68.77,-62.05,-36.86,780,774,781,394,868,34.48275862068966,-0.938,-0.311,0.17
24874,1755606893081,68.79,-62.09,-36.89,784,769,785,421,868,33.333333333333336,-0.937,-0.311,0.17
24903,1755606893111,68.77,-62.05,-36.87,784,770,780,393,859,34.48275862068966,-0.939,-0.31,0.169
24933,1755606893141,68.8,-62.06,-36.88,781,767,777,338,866,33.333333333333336,-0.938,-0.31,0.17
24962,1755606893170,68.78,-62.06,-36.87,785,773,784,321,874,34.48275862068966,-0.938,-0.311,0.17
24992,1755606893199,68.76,-62.08,-36.86,782,767,781,400,871,33.333333333333336,-0.938,-0.311,0.17
25021,1755606893229,68.77,-62.06,-36.88,780,772,781,386,873,34.48275862068966,-0.937,-0.31,0.17
25051,1755606893258,68.78,-62.03,-36.88,777,773,783,344,863,33.333333333333336,-0.939,-0.312,0.173
25080,1755606893288,68.75,-62.04,-36.88,779,766,783,335,874,34.48275862068966,-0.938,-0.312,0.172
25110,1755606893317,68.79,-62.01,-36.89,784,776,778,399,868,33.333333333333336,-0.939,-0.31,0.171
25139,1755606893348,68.77,-62.0,-36.89,782,767,785,420,868,34.48275862068966,-0.938,-0.31,0.171
25159,1755606893367,68.77,-61.98,-36.9,779,776,782,389,872,50.0,-0.938,-0.309,0.169
25189,1755606893397,68.74,-61.95,-36.91,779,770,777,395,868,33.333333333333336,-0.937,-0.312,0.169
25219,1755606893427,68.74,-61.99,-36.92,782,772,784,355,872,33.333333333333336,-0.938,-0.311,0.168
25248,1755606893456,68.68,-61.95,-36.92,784,769,781,339,868,34.48275862068966,-0.938,-0.312,0.168
25278,1755606893486,68.71,-61.97,-36.92,784,740,784,388,870,33.333333333333336,-0.939,-0.314,0.171
25308,1755606893515,68.71,-61.96,-36.91,783,727,779,439,870,33.333333333333336,-0.938,-0.312,0.171
25337,1755606893545,68.66,-61.93,-36.89,782,715,784,436,867,34.48275862068966,-0.937,-0.311,0.169
25367,1755606893574,68.68,-61.97,-36.9,784,726,782,363,873,33.333333333333336,-0.938,-0.313,0.17
25396,1755606893604,68.66,-61.92,-36.89,784,726,782,355,871,34.48275862068966,-0.937,-0.311,0.17
25426,1755606893633,68.62,-61.93,-36.92,783,751,780,404,870,33.333333333333336,-0.935,-0.31,0.168
25455,1755606893663,68.65,-62.01,-36.97,786,741,778,393,871,34.48275862068966,-0.938,-0.31,0.168
25485,1755606893693,68.53,-62.08,-36.94,778,737,778,357,869,33.333333333333336,-0.938,-0.312,0.169
25515,1755606893722,68.49,-62.13,-36.96,782,763,780,331,885,33.333333333333336,-0.937,-0.312,0.17
25544,1755606893752,68.45,-62.1,-36.97,785,736,781,367,872,34.48275862068966,-0.938,-0.312,0.172
25574,1755606893782,68.44,-62.09,-36.97,778,733,781,416,872,33.333333333333336,-0.938,-0.312,0.174
25604,1755606893811,68.43,-62.07,-36.99,784,739,783,389,870,33.333333333333336,-0.936,-0.312,0.174
25633,1755606893841,68.41,-62.01,-37.0,784,725,782,347,871,34.48275862068966,-0.937,-0.31,0.174
25663,1755606893871,68.41,-62.0,-37.03,778,2,784,357,867,33.333333333333336,-0.936,-0.31,0.174
25692,1755606893900,68.42,-61.94,-37.06,783,0,783,406,867,34.48275862068966,-0.935,-0.312,0.176
25722,1755606893930,68.45,-61.87,-37.1,784,1,785,400,864,33.333333333333336,-0.937,-0.314,0.173
25752,1755606893959,68.43,-61.8,-37.11,785,5,782,338,869,33.333333333333336,-0.935,-0.314,0.17
25781,1755606893989,68.44,-61.84,-37.13,778,771,783,327,868,34.48275862068966,-0.936,-0.316,0.171
25811,1755606894018,68.48,-61.84,-37.15,780,0,781,365,871,33.333333333333336,-0.937,-0.315,0.172
25840,1755606894048,68.43,-61.78,-37.13,773,0,779,411,865,34.48275862068966,-0.936,-0.313,0.172
25870,1755606894078,68.47,-61.77,-37.16,783,0,781,399,871,33.333333333333336,-0.937,-0.314,0.173
25899,1755606894107,68.44,-61.78,-37.16,782,2,783,340,866,34.48275862068966,-0.934,-0.315,0.173
25929,1755606894137,68.49,-61.79,-37.17,778,0,784,364,872,33.333333333333336,-0.936,-0.316,0.172
25959,1755606894166,68.46,-61.78,-37.15,784,6,780,412,868,33.333333333333336,-0.936,-0.316,0.168
25988,1755606894196,68.46,-61.8,-37.15,782,0,782,412,870,34.48275862068966,-0.937,-0.314,0.17
26017,1755606894226,68.4,-61.86,-37.14,780,2,780,351,872,34.48275862068966,-0.936,-0.314,0.172
26047,1755606894256,68.36,-61.85,-37.12,781,1,777,343,874,33.333333333333336,-0.937,-0.315,0.174
26077,1755606894285,68.34,-61.85,-37.09,780,5,782,399,869,33.333333333333336,-0.936,-0.316,0.176
26107,1755606894315,68.36,-61.86,-37.07,785,0,781,410,872,33.333333333333336,-0.936,-0.315,0.176
26137,1755606894345,68.36,-61.82,-37.07,785,0,783,386,881,33.333333333333336,-0.934,-0.313,0.175
26167,1755606894375,68.38,-61.79,-37.1,777,3,788,332,872,33.333333333333336,-0.936,-0.314,0.174
26197,1755606894405,68.36,-61.83,-37.1,783,0,779,343,868,33.333333333333336,-0.935,-0.316,0.173
26227,1755606894434,68.37,-61.8,-37.1,781,1,782,394,871,33.333333333333336,-0.936,-0.316,0.175
26256,1755606894464,68.4,-61.76,-37.1,782,4,783,399,863,34.48275862068966,-0.937,-0.316,0.175
26286,1755606894493,68.43,-61.75,-37.09,782,2,785,374,868,33.333333333333336,-0.939,-0.314,0.174
26315,1755606894523,68.4,-61.73,-37.07,779,5,778,343,866,34.48275862068966,-0.936,-0.315,0.174
26345,1755606894553,68.4,-61.74,-37.07,784,2,781,375,871,33.333333333333336,-0.936,-0.314,0.174
26365,1755606894573,68.4,-61.73,-37.07,780,0,779,363,867,50.0,-0.937,-0.314,0.175
26394,1755606894602,68.44,-61.71,-37.07,781,0,778,395,870,34.48275862068966,-0.937,-0.315,0.174
26424,1755606894632,68.47,-61.67,-37.08,785,1,782,438,867,33.333333333333336,-0.936,-0.315,0.174
26454,1755606894662,68.56,-61.68,-37.13,785,1,783,416,866,33.333333333333336,-0.935,-0.316,0.173
26483,1755606894691,68.61,-61.68,-37.13,784,0,782,336,872,34.48275862068966,-0.936,-0.317,0.174
26513,1755606894721,68.71,-61.7,-37.16,783,0,782,345,869,33.333333333333336,-0.936,-0.312,0.173
26543,1755606894750,68.72,-61.72,-37.2,785,1,783,412,868,33.333333333333336,-0.935,-0.313,0.172
26572,1755606894780,68.83,-61.73,-37.31,779,0,777,406,874,34.48275862068966,-0.935,-0.312,0.172
26602,1755606894809,68.83,-61.75,-37.36,782,1,784,360,868,33.333333333333336,-0.935,-0.312,0.172
26631,1755606894839,68.82,-61.8,-37.41,784,0,784,331,872,34.48275862068966,-0.936,-0.314,0.171
26661,1755606894869,68.8,-61.83,-37.43,783,3,783,368,870,33.333333333333336,-0.938,-0.317,0.169
26690,1755606894898,68.79,-61.87,-37.49,782,762,782,422,870,34.48275862068966,-0.933,-0.318,0.163
26720,1755606894928,68.77,-61.97,-37.54,786,774,782,389,866,33.333333333333336,-0.935,-0.319,0.163
26749,1755606894957,68.68,-61.98,-37.59,784,762,778,335,865,34.48275862068966,-0.934,-0.32,0.164
26779,1755606894987,68.71,-62.02,-37.64,777,769,783,350,871,33.333333333333336,-0.935,-0.323,0.166
26808,1755606895016,68.72,-62.06,-37.65,785,772,780,421,872,34.48275862068966,-0.936,-0.324,0.167
26838,1755606895046,68.71,-62.07,-37.66,781,761,781,392,869,33.333333333333336,-0.936,-0.323,0.167
26868,1755606895076,68.69,-62.11,-37.7,784,766,784,361,877,33.333333333333336,-0.934,-0.321,0.164
26897,1755606895105,68.68,-62.15,-37.75,794,770,781,347,863,34.48275862068966,-0.934,-0.319,0.16
26927,1755606895135,68.63,-62.24,-37.82,779,0,781,384,873,33.333333333333336,-0.933,-0.321,0.156
26957,1755606895165,68.48,-62.38,-37.86,782,768,780,419,871,33.333333333333336,-0.933,-0.326,0.157
26987,1755606895194,68.41,-62.54,-37.87,785,768,782,383,876,33.333333333333336,-0.936,-0.33,0.161
27016,1755606895224,68.31,-62.59,-37.84,784,773,781,297,869,34.48275862068966,-0.933,-0.33,0.166
27046,1755606895254,68.29,-62.59,-37.84,779,0,778,326,866,33.333333333333336,-0.932,-0.326,0.171
27075,1755606895283,68.28,-62.59,-37.88,784,0,778,385,870,34.48275862068966,-0.932,-0.325,0.171
27105,1755606895313,68.29,-62.53,-37.9,788,0,781,411,866,33.333333333333336,-0.933,-0.328,0.172
27134,1755606895343,68.31,-62.5,-37.9,780,769,784,369,871,34.48275862068966,-0.933,-0.329,0.169
27164,1755606895373,68.23,-62.48,-37.89,784,775,781,345,871,33.333333333333336,-0.931,-0.33,0.168
27184,1755606895392,68.25,-62.48,-37.9,780,772,776,383,870,50.0,-0.932,-0.33,0.166
27214,1755606895422,68.19,-62.44,-37.86,785,772,777,357,871,33.333333333333336,-0.933,-0.33,0.167
27243,1755606895451,68.26,-62.42,-37.87,783,776,780,392,870,34.48275862068966,-0.932,-0.33,0.168
27273,1755606895481,68.26,-62.3,-37.82,780,767,781,427,870,33.333333333333336,-0.934,-0.327,0.169
27303,1755606895511,68.3,-62.27,-37.81,782,773,781,340,876,33.333333333333336,-0.932,-0.326,0.161
27332,1755606895540,68.26,-62.37,-37.81,781,774,775,332,866,34.48275862068966,-0.932,-0.328,0.16
27362,1755606895570,68.18,-62.41,-37.78,785,769,778,351,871,33.333333333333336,-0.933,-0.329,0.161
27392,1755606895600,68.17,-62.5,-37.8,783,768,777,405,866,33.333333333333336,-0.93,-0.329,0.162
27422,1755606895630,68.13,-62.55,-37.82,779,768,776,403,866,33.333333333333336,-0.931,-0.327,0.164
27451,1755606895659,68.1,-62.61,-37.82,779,769,782,345,870,34.48275862068966,-0.932,-0.328,0.165
27481,1755606895688,68.09,-62.66,-37.82,785,766,774,333,869,33.333333333333336,-0.932,-0.329,0.166
27510,1755606895718,68.06,-62.68,-37.81,785,764,777,396,875,34.48275862068966,-0.932,-0.33,0.167
27540,1755606895748,68.03,-62.71,-37.79,779,764,777,419,893,33.333333333333336,-0.932,-0.329,0.166
27569,1755606895777,68.03,-62.72,-37.78,783,772,782,404,865,34.48275862068966,-0.933,-0.329,0.168
27599,1755606895807,68.0,-62.69,-37.74,785,769,781,342,869,33.333333333333336,-0.934,-0.33,0.169
27629,1755606895837,68.02,-62.66,-37.72,785,775,787,351,869,33.333333333333336,-0.933,-0.328,0.171
27658,1755606895866,68.02,-62.69,-37.72,780,774,781,402,869,34.48275862068966,-0.932,-0.326,0.171
27688,1755606895896,68.02,-62.68,-37.73,785,771,782,410,871,33.333333333333336,-0.933,-0.326,0.171
27718,1755606895925,67.97,-62.65,-37.74,783,768,780,350,874,33.333333333333336,-0.932,-0.325,0.169
27747,1755606895956,67.94,-62.65,-37.74,783,773,783,341,871,34.48275862068966,-0.932,-0.327,0.168
27768,1755606895976,67.96,-62.66,-37.75,783,768,779,376,876,47.61904761904762,-0.932,-0.327,0.169
27797,1755606896005,67.96,-62.63,-37.76,783,774,783,351,873,34.48275862068966,-0.932,-0.326,0.17
27827,1755606896035,67.92,-62.67,-37.78,781,762,775,397,873,33.333333333333336,-0.931,-0.326,0.17
27857,1755606896065,67.92,-62.63,-37.77,783,0,781,407,870,33.333333333333336,-0.935,-0.326,0.171
27886,1755606896094,67.9,-62.59,-37.73,779,3,783,381,874,34.48275862068966,-0.933,-0.326,0.172
27916,1755606896124,67.88,-62.65,-37.75,785,3,777,327,869,33.333333333333336,-0.931,-0.325,0.17
27945,1755606896153,67.85,-62.67,-37.75,786,2,784,357,861,34.48275862068966,-0.932,-0.324,0.168
27975,1755606896183,67.82,-62.6,-37.74,786,1,783,408,866,33.333333333333336,-0.933,-0.322,0.168
28005,1755606896213,67.78,-62.58,-37.76,788,769,781,427,871,33.333333333333336,-0.931,-0.322,0.169
28034,1755606896242,67.77,-62.6,-37.78,780,769,780,380,872,34.48275862068966,-0.931,-0.325,0.17
28064,1755606896272,67.73,-62.57,-37.78,783,770,782,354,880,33.333333333333336,-0.932,-0.326,0.17
28093,1755606896301,67.71,-62.64,-37.78,786,772,779,437,878,34.48275862068966,-0.931,-0.329,0.174
28123,1755606896331,67.71,-62.66,-37.81,780,773,783,496,869,33.333333333333336,-0.931,-0.329,0.176
28153,1755606896360,67.71,-62.64,-37.8,785,766,784,398,871,33.333333333333336,-0.933,-0.327,0.176
28182,1755606896390,67.73,-62.6,-37.8,785,765,779,326,873,34.48275862068966,-0.933,-0.326,0.175
28212,1755606896420,67.73,-62.58,-37.8,782,768,782,348,868,33.333333333333336,-0.931,-0.327,0.174
28232,1755606896439,67.78,-62.59,-37.81,780,768,783,357,875,50.0,-0.933,-0.328,0.174
28261,1755606896469,67.7,-62.61,-37.78,780,773,780,373,875,34.48275862068966,-0.932,-0.324,0.169
28291,1755606896499,67.62,-62.64,-37.77,781,773,783,393,870,33.333333333333336,-0.931,-0.326,0.167
28321,1755606896528,67.54,-62.72,-37.77,783,774,784,401,873,33.333333333333336,-0.929,-0.329,0.168
28350,1755606896558,67.52,-62.78,-37.76,785,766,785,333,873,34.48275862068966,-0.931,-0.331,0.172
28380,1755606896588,67.5,-62.83,-37.76,780,772,779,344,872,33.333333333333336,-0.932,-0.327,0.175
28409,1755606896617,67.5,-62.85,-37.79,782,770,783,374,866,34.48275862068966,-0.929,-0.322,0.177
28439,1755606896647,67.52,-62.9,-37.85,781,767,784,407,871,33.333333333333336,-0.931,-0.323,0.178
28468,1755606896677,67.51,-62.96,-37.86,784,771,784,351,870,34.48275862068966,-0.933,-0.328,0.174
28488,1755606896696,67.49,-63.03,-37.86,785,773,778,405,869,50.0,-0.934,-0.331,0.173
28518,1755606896726,67.41,-63.11,-37.79,785,773,782,348,868,33.333333333333336,-0.931,-0.332,0.175
28548,1755606896756,67.35,-63.16,-37.75,781,772,780,322,869,33.333333333333336,-0.93,-0.329,0.175
28577,1755606896785,67.32,-63.23,-37.73,780,767,783,361,868,34.48275862068966,-0.932,-0.329,0.174
28607,1755606896814,67.3,-63.26,-37.7,778,773,784,422,864,33.333333333333336,-0.931,-0.33,0.176
28636,1755606896844,67.27,-63.23,-37.68,781,774,783,401,878,34.48275862068966,-0.932,-0.328,0.177
28666,1755606896873,67.23,-63.24,-37.66,783,769,784,377,876,33.333333333333336,-0.932,-0.326,0.179
28695,1755606896903,67.23,-63.18,-37.63,784,765,780,423,871,34.48275862068966,-0.933,-0.328,0.182
28725,1755606896933,67.21,-63.11,-37.57,784,762,779,428,871,33.333333333333336,-0.933,-0.327,0.179
28754,1755606896962,67.11,-63.05,-37.52,784,773,780,421,861,34.48275862068966,-0.932,-0.325,0.179
28784,1755606896992,67.08,-63.0,-37.5,782,771,777,342,867,33.333333333333336,-0.932,-0.326,0.178
28813,1755606897021,67.11,-62.97,-37.49,784,770,793,343,865,34.48275862068966,-0.932,-0.326,0.18
28843,1755606897051,67.09,-62.92,-37.47,782,767,783,366,866,33.333333333333336,-0.931,-0.322,0.182
28872,1755606897080,67.15,-62.9,-37.51,784,2,780,408,872,34.48275862068966,-0.932,-0.325,0.184
28902,1755606897110,67.21,-62.85,-37.5,785,0,783,369,867,33.333333333333336,-0.932,-0.325,0.181
28931,1755606897139,67.13,-62.89,-37.49,783,0,782,353,869,34.48275862068966,-0.934,-0.324,0.177
28961,1755606897169,67.07,-62.95,-37.48,782,0,783,370,866,33.333333333333336,-0.933,-0.324,0.178
28990,1755606897198,67.03,-63.0,-37.46,782,0,777,406,866,34.48275862068966,-0.93,-0.32,0.185
29020,1755606897228,67.09,-62.93,-37.51,784,0,779,393,860,33.333333333333336,-0.929,-0.321,0.187
29049,1755606897257,67.2,-62.87,-37.55,783,0,782,345,872,34.48275862068966,-0.932,-0.33,0.185
29079,1755606897288,67.21,-62.8,-37.47,780,0,783,354,871,33.333333333333336,-0.931,-0.33,0.178
29099,1755606897307,67.21,-62.8,-37.43,782,1,784,366,872,50.0,-0.93,-0.324,0.175
29129,1755606897337,67.11,-62.79,-37.41,780,0,781,370,864,33.333333333333336,-0.93,-0.32,0.176
29158,1755606897366,67.13,-62.79,-37.43,786,0,781,401,868,34.48275862068966,-0.932,-0.317,0.178
29188,1755606897396,67.02,-62.67,-37.41,776,0,783,395,869,33.333333333333336,-0.932,-0.315,0.182
29218,1755606897426,67.01,-62.55,-37.42,779,0,775,363,869,33.333333333333336,-0.933,-0.321,0.187
29247,1755606897455,67.06,-62.38,-37.36,784,3,783,338,870,34.48275862068966,-0.934,-0.325,0.19
29277,1755606897485,67.09,-62.24,-37.3,779,0,780,397,869,33.333333333333336,-0.93,-0.319,0.187
29306,1755606897514,67.12,-62.22,-37.32,780,6,780,424,857,34.48275862068966,-0.931,-0.316,0.184
29336,1755606897544,67.17,-62.18,-37.36,784,5,780,390,863,33.333333333333336,-0.931,-0.316,0.18
29365,1755606897573,67.16,-62.11,-37.39,785,3,776,352,870,34.48275862068966,-0.93,-0.319,0.179
29395,1755606897603,67.14,-62.04,-37.41,780,0,783,361,867,33.333333333333336,-0.948,-0.318,0.181
29424,1755606897632,66.84,-61.91,-37.29,781,1,788,416,866,34.48275862068966,-0.943,-0.324,0.184
29454,1755606897662,66.99,-61.67,-37.26,781,0,780,414,865,33.333333333333336,-0.94,-0.321,0.188
29484,1755606897692,67.15,-61.34,-37.14,782,7,780,356,874,33.333333333333336,-0.942,-0.317,0.193
29513,1755606897721,67.14,-61.04,-37.08,784,2,781,339,871,34.48275862068966,-0.937,-0.316,0.193
29543,1755606897751,67.32,-60.89,-37.1,786,2,784,384,870,33.333333333333336,-0.938,-0.314,0.192
29573,1755606897780,67.31,-60.85,-37.06,779,3,784,415,867,33.333333333333336,-0.937,-0.308,0.186
29602,1755606897810,67.25,-60.93,-37.1,780,1,779,375,869,34.48275862068966,-0.937,-0.307,0.183
29632,1755606897840,67.19,-61.0,-37.12,781,1,779,336,868,33.333333333333336,-0.936,-0.312,0.181
29661,1755606897869,67.13,-61.13,-37.12,784,0,780,357,869,34.48275862068966,-0.938,-0.315,0.179
29691,1755606897899,67.06,-61.27,-37.1,783,0,778,410,870,33.333333333333336,-0.935,-0.315,0.181
29720,1755606897928,66.93,-61.4,-37.09,779,5,782,400,872,34.48275862068966,-0.935,-0.317,0.188
29750,1755606897958,66.91,-61.34,-37.06,782,4,784,345,870,33.333333333333336,-0.935,-0.315,0.193
29779,1755606897987,66.94,-61.3,-37.05,784,3,782,345,868,34.48275862068966,-0.933,-0.31,0.2
29809,1755606898017,66.99,-61.25,-37.08,784,0,784,405,864,33.333333333333336,-0.934,-0.309,0.199
29838,1755606898046,67.01,-61.17,-37.1,781,4,780,410,873,34.48275862068966,-0.935,-0.312,0.197
29868,1755606898076,67.03,-61.09,-37.12,781,757,779,380,870,33.333333333333336,-0.933,-0.312,0.197
29897,1755606898105,67.02,-61.03,-37.14,784,754,778,347,869,34.48275862068966,-0.933,-0.312,0.198
29927,1755606898135,67.02,-61.0,-37.15,784,773,781,377,871,33.333333333333336,-0.935,-0.313,0.198
29957,1755606898164,67.01,-60.94,-37.15,787,763,784,412,871,33.333333333333336,-0.934,-0.313,0.197
29986,1755606898194,66.99,-60.87,-37.15,777,765,783,391,867,34.48275862068966,-0.933,-0.312,0.195
30016,1755606898223,66.97,-60.87,-37.16,782,770,779,302,866,33.333333333333336,-0.932,-0.31,0.196
30045,1755606898253,66.95,-60.79,-37.18,780,765,782,340,871,34.48275862068966,-0.932,-0.308,0.198
30075,1755606898282,66.98,-60.79,-37.24,781,762,781,396,870,33.333333333333336,-0.931,-0.313,0.196
30104,1755606898313,67.05,-60.84,-37.26,780,0,775,380,871,34.48275862068966,-0.932,-0.317,0.196
30125,1755606898333,67.05,-60.83,-37.25,784,3,781,371,881,47.61904761904762,-0.931,-0.318,0.195
30145,1755606898353,67.02,-60.86,-37.23,780,772,780,340,873,50.0,-0.934,-0.316,0.193
30174,1755606898382,66.93,-60.86,-37.21,776,767,780,398,870,34.48275862068966,-0.933,-0.312,0.195
30204,1755606898412,66.83,-60.86,-37.21,776,765,781,405,866,33.333333333333336,-0.93,-0.314,0.197
30233,1755606898442,66.79,-60.79,-37.19,782,765,783,357,874,34.48275862068966,-0.932,-0.319,0.199
30263,1755606898471,66.75,-60.75,-37.14,782,770,781,348,870,33.333333333333336,-0.928,-0.32,0.198
30293,1755606898501,66.78,-60.81,-37.14,779,3,777,360,869,33.333333333333336,-0.93,-0.314,0.201
30322,1755606898530,66.78,-60.73,-37.16,777,13,782,394,871,34.48275862068966,-0.931,-0.31,0.203
30352,1755606898560,66.81,-60.62,-37.17,782,37,778,365,875,33.333333333333336,-0.931,-0.314,0.204
30382,1755606898589,66.83,-60.61,-37.15,780,758,778,335,867,33.333333333333336,-0.931,-0.316,0.199
30411,1755606898619,66.81,-60.54,-37.14,781,757,781,376,869,34.48275862068966,-0.929,-0.313,0.2
30441,1755606898649,66.87,-60.47,-37.17,792,758,784,420,866,33.333333333333336,-0.931,-0.312,0.204
30470,1755606898678,66.84,-60.45,-37.17,783,762,776,399,869,34.48275862068966,-0.932,-0.313,0.201
30500,1755606898708,66.86,-60.48,-37.18,778,756,781,352,869,33.333333333333336,-0.93,-0.317,0.2
