timestamp_ms,recv_timestamp_ms,pitch,roll,yaw,flex1,flex2,flex3,flex4,flex5,sampling_hz,accel_x,accel_y,accel_z
156125,1755603124601,17.31,-31.54,-5.39,771,778,774,315,811,33.333333333333336,-0.294,-0.501,0.809
156154,1755603124603,17.27,-31.6,-5.44,777,780,767,343,821,34.48275862068966,-0.296,-0.501,0.808
156184,1755603124605,17.32,-31.63,-5.44,774,779,779,456,828,33.333333333333336,-0.295,-0.508,0.81
156213,1755603124607,17.39,-31.64,-5.44,768,779,773,416,826,34.48275862068966,-0.296,-0.508,0.807
156243,1755603124609,17.35,-31.71,-5.47,770,780,769,301,823,33.333333333333336,-0.299,-0.502,0.803
156273,1755603124611,17.33,-31.75,-5.49,772,781,772,335,822,33.333333333333336,-0.3,-0.501,0.808
156302,1755603124613,17.29,-31.78,-5.54,772,793,777,429,812,34.48275862068966,-0.299,-0.508,0.809
156332,1755603124615,17.24,-31.79,-5.58,770,775,768,425,819,33.333333333333336,-0.297,-0.515,0.81
156362,1755603124618,17.28,-31.73,-5.53,772,783,771,371,825,33.333333333333336,-0.294,-0.511,0.806
156391,1755603124620,17.29,-31.76,-5.53,774,781,775,291,831,34.48275862068966,-0.292,-0.506,0.803
156421,1755603124622,17.18,-31.8,-5.59,774,793,773,344,825,33.333333333333336,-0.293,-0.507,0.806
156450,1755603124624,17.14,-31.86,-5.61,776,784,772,440,821,34.48275862068966,-0.294,-0.507,0.81
156480,1755603124626,17.17,-31.87,-5.58,775,775,774,407,825,33.333333333333336,-0.296,-0.513,0.812
156509,1755603124627,17.18,-31.85,-5.52,770,782,769,321,826,34.48275862068966,-0.294,-0.517,0.811
156539,1755603124629,17.21,-31.83,-5.47,777,772,769,329,823,33.333333333333336,-0.289,-0.515,0.809
156569,1755603124632,17.22,-31.83,-5.48,769,783,766,413,835,33.333333333333336,-0.284,-0.51,0.81
156599,1755603124634,17.23,-31.85,-5.52,776,778,773,437,832,33.333333333333336,-0.287,-0.506,0.814
156628,1755603124636,17.29,-31.85,-5.55,768,778,773,390,825,34.48275862068966,-0.29,-0.503,0.815
156658,1755603124638,17.34,-31.86,-5.58,771,774,777,304,810,33.333333333333336,-0.293,-0.505,0.814
156688,1755603124639,17.34,-31.88,-5.6,769,784,764,345,820,33.333333333333336,-0.295,-0.51,0.81
156717,1755603124642,17.32,-31.9,-5.59,774,775,775,434,860,34.48275862068966,-0.292,-0.511,0.809
156747,1755603124644,17.33,-31.9,-5.59,777,786,777,395,825,33.333333333333336,-0.29,-0.513,0.813
156776,1755603124646,17.33,-31.85,-5.6,788,772,764,313,830,34.48275862068966,-0.29,-0.512,0.815
156806,1755603124648,17.3,-31.81,-5.63,773,785,764,324,825,33.333333333333336,-0.294,-0.509,0.812
156836,1755603124650,17.26,-31.8,-5.66,772,781,768,404,838,33.333333333333336,-0.296,-0.507,0.808
156865,1755603124652,17.26,-31.81,-5.65,778,777,775,423,816,34.48275862068966,-0.297,-0.511,0.81
156895,1755603124654,17.25,-31.81,-5.62,772,781,775,329,830,33.333333333333336,-0.298,-0.514,0.811
156924,1755603124656,17.2,-31.79,-5.6,770,775,776,285,819,34.48275862068966,-0.298,-0.513,0.807
156954,1755603124657,17.2,-31.81,-5.58,774,774,773,321,822,33.333333333333336,-0.295,-0.516,0.807
156983,1755603124660,17.22,-31.79,-5.53,769,780,776,446,827,34.48275862068966,-0.294,-0.519,0.815
157012,1755603124662,17.25,-31.68,-5.48,771,781,763,420,826,34.48275862068966,-0.293,-0.51,0.815
157042,1755603124664,17.25,-31.63,-5.48,773,779,776,330,832,33.333333333333336,-0.291,-0.504,0.808
157071,1755603124666,17.23,-31.71,-5.52,775,781,773,349,825,34.48275862068966,-0.291,-0.506,0.807
157101,1755603124668,17.26,-31.77,-5.52,774,776,777,451,832,33.333333333333336,-0.294,-0.511,0.813
157131,1755603124670,17.27,-31.7,-5.48,776,780,781,438,819,33.333333333333336,-0.294,-0.512,0.815
157160,1755603124672,17.28,-31.65,-5.45,778,780,775,343,819,34.48275862068966,-0.292,-0.509,0.81
157190,1755603124674,17.3,-31.7,-5.47,770,784,776,325,828,33.333333333333336,-0.293,-0.506,0.81
157219,1755603124676,17.25,-31.71,-5.5,778,773,768,406,814,34.48275862068966,-0.294,-0.506,0.812
157249,1755603124678,17.25,-31.64,-5.49,775,774,776,453,828,33.333333333333336,-0.295,-0.51,0.815
157278,1755603124680,17.3,-31.6,-5.46,769,780,771,401,831,34.48275862068966,-0.295,-0.508,0.815
157308,1755603124682,17.28,-31.63,-5.49,765,782,771,311,820,33.333333333333336,-0.293,-0.504,0.81
157338,1755603124684,17.24,-31.67,-5.53,775,783,771,352,820,33.333333333333336,-0.293,-0.505,0.811
157367,1755603124686,17.26,-31.68,-5.53,771,779,771,436,823,34.48275862068966,-0.295,-0.507,0.815
157387,1755603124688,17.25,-31.65,-5.53,772,782,777,325,821,50.0,-0.297,-0.507,0.814
157417,1755603124690,17.2,-31.69,-5.55,770,780,776,447,831,33.333333333333336,-0.297,-0.508,0.808
157446,1755603124692,17.18,-31.74,-5.54,774,780,775,414,828,34.48275862068966,-0.296,-0.508,0.81
157476,1755603124694,17.22,-31.76,-5.51,767,786,771,301,823,33.333333333333336,-0.295,-0.51,0.816
157496,1755603124696,17.22,-31.73,-5.5,776,798,763,434,821,50.0,-0.292,-0.513,0.817
157526,1755603124698,17.2,-31.71,-5.52,779,782,772,344,824,33.333333333333336,-0.29,-0.512,0.813
157556,1755603124700,17.21,-31.73,-5.52,776,772,772,327,831,33.333333333333336,-0.292,-0.51,0.813
157585,1755603124702,17.21,-31.74,-5.51,770,776,769,407,830,34.48275862068966,-0.293,-0.51,0.816
157615,1755603124704,17.23,-31.71,-5.52,771,781,769,437,821,33.333333333333336,-0.292,-0.509,0.816
157645,1755603124706,17.26,-31.68,-5.51,775,781,773,384,826,33.333333333333336,-0.292,-0.51,0.813
157674,1755603124708,17.33,-31.69,-5.49,768,785,772,317,842,34.48275862068966,-0.29,-0.51,0.813
157704,1755603124710,17.43,-31.68,-5.45,772,783,772,339,831,33.333333333333336,-0.292,-0.508,0.813
157733,1755603124712,17.47,-31.62,-5.44,770,782,769,433,829,34.48275862068966,-0.293,-0.507,0.812
157763,1755603124714,17.44,-31.54,-5.44,772,779,770,399,825,33.333333333333336,-0.299,-0.509,0.813
157792,1755603124716,17.3,-31.42,-5.44,776,777,764,311,822,34.48275862068966,-0.296,-0.507,0.81
157822,1755603124718,17.31,-31.45,-5.44,772,779,764,340,826,33.333333333333336,-0.294,-0.506,0.808
157851,1755603124720,17.42,-31.56,-5.42,769,783,774,434,827,34.48275862068966,-0.296,-0.504,0.809
157881,1755603124723,17.49,-31.72,-5.41,772,785,770,436,824,33.333333333333336,-0.297,-0.502,0.809
157910,1755603124725,17.61,-31.87,-5.41,771,770,778,364,818,34.48275862068966,-0.297,-0.502,0.808
157931,1755603124727,17.75,-32.1,-5.43,769,786,777,436,831,47.61904761904762,-0.293,-0.507,0.805
157960,1755603124729,17.98,-32.32,-5.37,771,778,775,337,821,34.48275862068966,-0.297,-0.51,0.808
157990,1755603124732,18.24,-32.41,-5.3,776,780,770,302,827,33.333333333333336,-0.301,-0.513,0.809
158020,1755603124734,18.43,-32.46,-5.23,773,782,773,380,836,33.333333333333336,-0.302,-0.512,0.806
158049,1755603124735,18.65,-32.5,-5.16,771,774,774,454,835,34.48275862068966,-0.309,-0.513,0.803
158079,1755603124738,18.75,-32.4,-5.08,770,775,772,422,833,33.333333333333336,-0.314,-0.515,0.8
158109,1755603124740,18.65,-32.43,-5.08,767,780,772,326,839,33.333333333333336,-0.315,-0.517,0.796
158138,1755603124742,18.74,-32.5,-5.07,773,779,770,343,846,34.48275862068966,-0.315,-0.518,0.796
158168,1755603124744,18.86,-32.5,-4.99,777,772,773,450,856,33.333333333333336,-0.318,-0.521,0.8
158197,1755603124746,18.92,-32.43,-4.91,771,782,769,424,853,34.48275862068966,-0.319,-0.521,0.799
158227,1755603124748,18.94,-32.37,-4.85,772,778,774,337,850,33.333333333333336,-0.322,-0.52,0.797
158256,1755603124750,19.0,-32.43,-4.8,769,781,775,304,854,34.48275862068966,-0.324,-0.519,0.796
158286,1755603124752,19.01,-32.32,-4.72,766,779,768,386,863,33.333333333333336,-0.328,-0.521,0.802
158315,1755603124754,18.83,-31.95,-4.64,767,781,774,426,861,34.48275862068966,-0.33,-0.518,0.802
158345,1755603124756,18.65,-31.81,-4.64,774,778,774,376,865,33.333333333333336,-0.327,-0.515,0.796
158375,1755603124758,18.57,-31.7,-4.6,776,779,768,305,859,33.333333333333336,-0.325,-0.511,0.795
158404,1755603124760,18.49,-31.72,-4.58,775,784,777,347,869,34.48275862068966,-0.322,-0.509,0.798
158434,1755603124762,18.49,-31.68,-4.55,777,778,772,435,864,33.333333333333336,-0.322,-0.508,0.803
158454,1755603124763,18.49,-31.63,-4.53,763,784,772,328,868,50.0,-0.323,-0.504,0.806
158484,1755603124766,18.54,-31.66,-4.55,775,781,777,438,888,33.333333333333336,-0.32,-0.498,0.802
158513,1755603124768,18.67,-31.82,-4.64,774,778,777,419,874,34.48275862068966,-0.322,-0.496,0.798
158543,1755603124770,18.78,-31.93,-4.62,772,782,770,331,876,33.333333333333336,-0.33,-0.499,0.803
158572,1755603124772,19.08,-31.96,-4.44,772,783,776,339,870,34.48275862068966,-0.333,-0.503,0.808
158602,1755603124774,19.57,-32.13,-4.27,780,774,774,428,875,33.333333333333336,-0.329,-0.504,0.801
158632,1755603124776,19.93,-32.35,-4.16,776,780,774,443,888,33.333333333333336,-0.331,-0.507,0.796
158661,1755603124778,20.03,-32.36,-4.08,768,778,778,370,885,34.48275862068966,-0.334,-0.51,0.796
158681,1755603124780,20.0,-32.36,-4.07,771,782,774,418,885,50.0,-0.332,-0.507,0.794
158711,1755603124782,20.18,-32.36,-4.02,770,781,771,340,885,33.333333333333336,-0.331,-0.506,0.796
158740,1755603124784,20.34,-32.43,-4.06,774,781,770,303,895,34.48275862068966,-0.339,-0.508,0.797
158770,1755603124786,20.3,-32.35,-4.14,773,793,782,362,886,33.333333333333336,-0.344,-0.506,0.788
158799,1755603124788,20.29,-32.36,-4.14,777,784,769,443,882,34.48275862068966,-0.348,-0.507,0.785
158829,1755603124790,20.32,-32.33,-4.15,776,780,768,403,891,33.333333333333336,-0.354,-0.509,0.791
158858,1755603124792,20.26,-32.26,-4.18,774,784,773,312,890,34.48275862068966,-0.356,-0.509,0.789
158888,1755603124794,20.2,-32.35,-4.29,770,776,773,329,888,33.333333333333336,-0.353,-0.508,0.781
158917,1755603124795,20.27,-32.5,-4.37,772,779,781,452,892,34.48275862068966,-0.349,-0.51,0.779
158947,1755603124798,20.43,-32.54,-4.48,773,781,772,428,891,33.333333333333336,-0.352,-0.514,0.786
158976,1755603124800,20.58,-32.53,-4.5,775,779,776,328,875,34.48275862068966,-0.353,-0.515,0.788
159006,1755603124802,20.82,-32.46,-4.42,776,778,773,303,894,33.333333333333336,-0.358,-0.517,0.788
159036,1755603124804,21.05,-32.39,-4.29,772,779,774,397,893,33.333333333333336,-0.362,-0.515,0.784
159065,1755603124806,21.28,-32.42,-4.16,774,777,775,440,894,34.48275862068966,-0.365,-0.51,0.777
159095,1755603124808,21.62,-32.69,-4.04,772,785,783,397,892,33.333333333333336,-0.366,-0.509,0.769
159125,1755603124810,21.92,-32.89,-3.86,771,776,775,289,882,33.333333333333336,-0.373,-0.514,0.766
159154,1755603124813,21.93,-33.08,-3.73,775,777,764,313,897,34.48275862068966,-0.372,-0.516,0.765
159184,1755603124814,21.97,-33.46,-3.78,775,782,771,430,887,33.333333333333336,-0.369,-0.518,0.772
159213,1755603124816,21.95,-33.49,-3.69,767,785,774,429,887,34.48275862068966,-0.367,-0.518,0.771
159243,1755603124819,21.9,-33.65,-3.78,776,775,772,321,893,33.333333333333336,-0.371,-0.521,0.781
159273,1755603124821,21.34,-33.1,-3.85,773,782,774,275,897,33.333333333333336,-0.369,-0.528,0.807
159302,1755603124823,20.89,-32.63,-3.95,777,778,771,374,882,34.48275862068966,-0.354,-0.511,0.783
159322,1755603124824,20.82,-32.67,-4.08,777,781,776,306,887,50.0,-0.354,-0.504,0.755
159352,1755603124826,20.89,-32.9,-4.23,774,780,776,401,890,33.333333333333336,-0.374,-0.504,0.745
159381,1755603124828,20.3,-33.04,-4.39,771,779,785,424,880,34.48275862068966,-0.381,-0.501,0.733
159411,1755603124831,19.48,-32.99,-4.49,769,780,770,381,887,33.333333333333336,-0.372,-0.509,0.748
159440,1755603124832,19.18,-33.12,-4.51,772,783,776,315,889,34.48275862068966,-0.361,-0.52,0.772
159470,1755603124834,19.23,-32.78,-4.24,770,780,778,372,892,33.333333333333336,-0.362,-0.531,0.794
159500,1755603124837,19.46,-32.33,-3.83,775,780,767,431,883,33.333333333333336,-0.359,-0.524,0.778
159529,1755603124839,19.34,-32.25,-3.78,770,779,776,403,879,34.48275862068966,-0.356,-0.515,0.76
159559,1755603124841,18.68,-31.85,-3.71,774,777,778,324,889,33.333333333333336,-0.358,-0.516,0.777
159589,1755603124843,18.28,-31.4,-3.47,774,774,774,315,879,33.333333333333336,-0.336,-0.513,0.786
159618,1755603124845,18.18,-31.15,-3.3,777,775,777,383,883,34.48275862068966,-0.322,-0.503,0.789
159648,1755603124847,17.88,-31.13,-3.49,781,775,773,423,875,33.333333333333336,-0.31,-0.493,0.794
159677,1755603124849,17.87,-31.49,-3.88,783,783,772,352,877,34.48275862068966,-0.306,-0.484,0.789
159707,1755603124852,18.04,-32.06,-4.28,771,779,778,329,870,33.333333333333336,-0.31,-0.481,0.783
159736,1755603124853,17.81,-32.63,-4.77,768,778,767,378,883,34.48275862068966,-0.317,-0.491,0.786
159766,1755603124855,17.24,-33.1,-5.39,772,780,777,435,881,33.333333333333336,-0.325,-0.503,0.799
159786,1755603124857,16.85,-33.08,-5.63,770,780,769,330,878,50.0,-0.324,-0.513,0.81
159816,1755603124859,16.65,-32.65,-5.82,772,773,772,418,880,33.333333333333336,-0.308,-0.518,0.82
159845,1755603124861,16.46,-32.0,-5.94,774,785,775,389,882,34.48275862068966,-0.299,-0.522,0.824
159874,1755603124863,15.96,-31.52,-6.09,771,778,776,310,880,34.48275862068966,-0.291,-0.523,0.824
159904,1755603124866,15.39,-30.99,-6.19,769,775,774,339,885,33.333333333333336,-0.276,-0.508,0.82
159934,1755603124868,15.31,-30.63,-6.21,770,778,774,447,881,33.333333333333336,-0.264,-0.495,0.816
159963,1755603124870,15.45,-30.54,-6.28,770,777,775,412,881,34.48275862068966,-0.268,-0.489,0.819
159993,1755603124872,15.3,-30.53,-6.5,778,787,778,339,883,33.333333333333336,-0.28,-0.492,0.81
160023,1755603124874,14.76,-30.16,-6.56,773,784,765,333,871,33.333333333333336,-0.281,-0.496,0.828
160052,1755603124876,13.89,-29.7,-6.72,776,773,771,372,882,34.48275862068966,-0.266,-0.487,0.837
160082,1755603124877,13.52,-29.41,-6.71,771,779,768,446,875,33.333333333333336,-0.24,-0.48,0.839
160111,1755603124880,13.7,-29.29,-6.63,774,777,772,380,878,34.48275862068966,-0.216,-0.471,0.84
160141,1755603124882,14.02,-29.24,-6.64,775,782,774,293,885,33.333333333333336,-0.211,-0.467,0.847
160171,1755603124884,14.58,-29.12,-6.54,771,779,772,337,882,33.333333333333336,-0.22,-0.477,0.859
160200,1755603124886,15.47,-28.84,-6.19,772,785,771,447,884,34.48275862068966,-0.222,-0.483,0.866
160230,1755603124888,16.49,-28.41,-5.77,769,775,772,437,896,33.333333333333336,-0.223,-0.479,0.859
160259,1755603124890,17.29,-28.24,-5.6,769,785,777,326,876,34.48275862068966,-0.233,-0.471,0.846
160289,1755603124892,17.47,-28.17,-5.66,773,782,771,323,884,33.333333333333336,-0.242,-0.458,0.834
160318,1755603124894,17.29,-28.12,-5.88,774,778,777,417,872,34.48275862068966,-0.256,-0.457,0.841
160348,1755603124896,17.16,-28.13,-6.0,769,783,774,431,881,33.333333333333336,-0.269,-0.453,0.839
160378,1755603124898,17.12,-28.24,-5.97,769,781,771,388,877,33.333333333333336,-0.271,-0.451,0.841
160407,1755603124900,17.26,-28.48,-6.03,771,784,777,318,878,34.48275862068966,-0.27,-0.453,0.837
160437,1755603124902,17.39,-28.88,-6.13,776,783,780,352,871,33.333333333333336,-0.27,-0.451,0.826
160466,1755603124904,17.42,-29.34,-6.24,773,782,780,453,879,34.48275862068966,-0.278,-0.456,0.829
160496,1755603124906,17.48,-29.68,-6.22,770,784,772,403,870,33.333333333333336,-0.286,-0.465,0.834
160525,1755603124908,17.66,-30.15,-6.17,773,780,768,326,872,34.48275862068966,-0.284,-0.465,0.827
160546,1755603124910,17.77,-30.53,-6.18,775,775,770,445,877,47.61904761904762,-0.289,-0.467,0.825
160575,1755603124912,17.83,-30.92,-6.19,769,784,779,322,877,34.48275862068966,-0.292,-0.475,0.827
160605,1755603124914,17.77,-31.03,-6.13,771,780,770,332,880,33.333333333333336,-0.295,-0.484,0.83
160634,1755603124916,17.73,-31.01,-6.03,772,780,774,443,874,34.48275862068966,-0.291,-0.491,0.836
160664,1755603124918,17.67,-30.99,-5.98,773,775,777,432,875,33.333333333333336,-0.289,-0.492,0.835
160693,1755603124920,17.54,-30.97,-6.01,777,789,773,351,883,34.48275862068966,-0.286,-0.488,0.828
160723,1755603124922,17.38,-30.93,-6.08,776,776,773,301,875,33.333333333333336,-0.283,-0.485,0.824
160752,1755603124924,17.37,-30.97,-6.11,770,783,768,375,904,34.48275862068966,-0.283,-0.485,0.822
160782,1755603124926,17.45,-31.1,-6.13,775,778,771,437,882,33.333333333333336,-0.288,-0.487,0.821
160811,1755603124928,17.45,-31.18,-6.15,770,782,774,404,869,34.48275862068966,-0.291,-0.488,0.819
160840,1755603124930,17.58,-31.25,-6.15,774,782,777,320,874,34.48275862068966,-0.29,-0.493,0.821
160870,1755603124933,17.65,-31.25,-6.18,771,778,767,360,880,33.333333333333336,-0.291,-0.497,0.822
160900,1755603124935,17.6,-31.29,-6.25,769,785,777,437,887,33.333333333333336,-0.287,-0.495,0.816
160930,1755603124936,17.7,-31.39,-6.32,778,779,781,409,878,33.333333333333336,-0.282,-0.496,0.813
160959,1755603124939,17.87,-31.6,-6.45,774,783,789,333,876,34.48275862068966,-0.289,-0.502,0.812
160979,1755603124941,17.84,-31.7,-6.56,772,792,775,440,881,50.0,-0.297,-0.51,0.811
161009,1755603124943,17.71,-31.77,-6.63,771,781,764,310,877,33.333333333333336,-0.3,-0.511,0.81
161039,1755603124945,17.8,-31.76,-6.6,774,782,774,331,881,33.333333333333336,-0.298,-0.509,0.812
161068,1755603124947,17.91,-31.82,-6.61,777,786,774,420,888,34.48275862068966,-0.297,-0.512,0.812
161098,1755603124949,17.92,-31.92,-6.62,772,783,771,451,870,33.333333333333336,-0.298,-0.516,0.81
161127,1755603124950,18.0,-31.88,-6.59,772,773,777,388,874,34.48275862068966,-0.296,-0.516,0.807
161157,1755603124953,18.05,-31.86,-6.61,772,780,770,319,876,33.333333333333336,-0.295,-0.514,0.805
161186,1755603124955,18.01,-31.83,-6.64,776,772,775,364,879,34.48275862068966,-0.297,-0.516,0.805
161216,1755603124957,17.99,-31.87,-6.65,771,779,777,460,872,33.333333333333336,-0.295,-0.517,0.806
161245,1755603124959,17.92,-31.96,-6.7,771,781,777,410,875,34.48275862068966,-0.293,-0.515,0.804
161275,1755603124961,17.88,-32.0,-6.71,772,782,771,302,880,33.333333333333336,-0.294,-0.515,0.804
161304,1755603124964,17.87,-31.99,-6.74,773,781,776,323,879,34.48275862068966,-0.297,-0.518,0.806
161334,1755603124965,17.69,-32.02,-6.8,773,785,776,432,878,33.333333333333336,-0.298,-0.52,0.805
161363,1755603124968,17.5,-31.97,-6.81,775,786,771,426,874,34.48275862068966,-0.3,-0.521,0.808
161393,1755603124970,17.46,-31.92,-6.78,776,775,778,338,875,33.333333333333336,-0.294,-0.52,0.81
161423,1755603124972,17.5,-31.88,-6.75,773,778,775,306,879,33.333333333333336,-0.291,-0.515,0.808
161742,1755603124975,16.97,-32.25,-7.16,767,781,775,310,872,3.134796238244514,-0.281,-0.517,0.809
161771,1755603124978,16.91,-32.42,-7.19,774,779,774,321,881,34.48275862068966,-0.279,-0.519,0.808
161801,1755603124979,16.81,-32.52,-7.19,776,781,775,410,873,33.333333333333336,-0.278,-0.522,0.809
161831,1755603124982,16.78,-32.59,-7.2,773,781,775,438,875,33.333333333333336,-0.277,-0.526,0.811
161860,1755603124984,16.74,-32.64,-7.18,775,781,771,356,873,34.48275862068966,-0.277,-0.527,0.809
161890,1755603124986,16.69,-32.67,-7.15,771,782,776,312,868,33.333333333333336,-0.275,-0.529,0.808
161919,1755603124988,16.62,-32.68,-7.17,776,779,772,366,877,34.48275862068966,-0.274,-0.529,0.807
161949,1755603124989,16.55,-32.68,-7.18,774,786,769,451,881,33.333333333333336,-0.274,-0.53,0.807
161969,1755603124992,16.51,-32.71,-7.19,773,785,782,334,871,50.0,-0.274,-0.531,0.806
161998,1755603124994,16.42,-32.77,-7.22,774,785,774,418,873,34.48275862068966,-0.272,-0.531,0.807
162028,1755603124996,16.39,-32.75,-7.19,772,784,769,394,868,33.333333333333336,-0.27,-0.531,0.809
162058,1755603124998,16.4,-32.69,-7.19,772,781,773,266,875,33.333333333333336,-0.269,-0.531,0.808
162087,1755603125000,16.3,-32.67,-7.22,771,777,769,325,870,34.48275862068966,-0.27,-0.53,0.805
162117,1755603125023,16.22,-32.67,-7.25,771,780,775,425,873,33.333333333333336,-0.27,-0.53,0.806
162146,1755603125052,16.21,-32.63,-7.22,778,785,774,413,876,34.48275862068966,-0.269,-0.531,0.807
162176,1755603125082,16.19,-32.6,-7.23,774,777,772,345,886,33.333333333333336,-0.265,-0.529,0.807
162206,1755603125112,16.13,-32.58,-7.24,768,780,769,332,881,33.333333333333336,-0.266,-0.526,0.805
162235,1755603125142,16.14,-32.57,-7.23,777,778,768,387,864,34.48275862068966,-0.265,-0.525,0.807
162265,1755603125171,16.22,-32.58,-7.19,777,777,779,436,869,33.333333333333336,-0.265,-0.526,0.809
162294,1755603125200,16.25,-32.59,-7.16,774,779,778,392,870,34.48275862068966,-0.268,-0.527,0.808
162324,1755603125230,16.24,-32.6,-7.15,774,777,772,304,866,33.333333333333336,-0.267,-0.527,0.807
162353,1755603125259,16.26,-32.61,-7.13,770,778,773,330,871,34.48275862068966,-0.267,-0.529,0.809
162383,1755603125289,16.28,-32.6,-7.13,775,780,775,425,873,33.333333333333336,-0.267,-0.528,0.809
162412,1755603125318,16.24,-32.59,-7.14,771,785,767,402,875,34.48275862068966,-0.268,-0.527,0.807
162442,1755603125348,16.22,-32.57,-7.13,775,780,769,266,877,33.333333333333336,-0.267,-0.527,0.808
162471,1755603125377,16.25,-32.56,-7.12,778,777,774,307,871,34.48275862068966,-0.269,-0.527,0.808
162501,1755603125407,16.25,-32.6,-7.11,775,785,771,407,873,33.333333333333336,-0.269,-0.526,0.808
162530,1755603125437,16.25,-32.6,-7.09,772,770,774,425,864,34.48275862068966,-0.269,-0.525,0.808
162560,1755603125466,16.22,-32.57,-7.07,775,777,767,368,866,33.333333333333336,-0.267,-0.524,0.807
162590,1755603125496,16.2,-32.61,-7.1,771,772,775,312,872,33.333333333333336,-0.268,-0.526,0.807
162619,1755603125526,16.22,-32.62,-7.07,777,777,772,355,870,34.48275862068966,-0.269,-0.53,0.808
162649,1755603125555,16.24,-32.58,-7.04,773,778,766,447,877,33.333333333333336,-0.268,-0.53,0.809
162678,1755603125584,16.22,-32.55,-7.04,774,782,771,420,870,34.48275862068966,-0.269,-0.529,0.808
162708,1755603125614,16.23,-32.58,-7.02,772,779,769,308,868,33.333333333333336,-0.27,-0.53,0.81
162737,1755603125644,16.22,-32.54,-7.0,774,785,772,321,868,34.48275862068966,-0.27,-0.529,0.81
162767,1755603125673,16.17,-32.46,-6.99,774,779,777,425,879,33.333333333333336,-0.268,-0.526,0.809
162797,1755603125703,16.15,-32.42,-7.0,773,781,774,417,877,33.333333333333336,-0.268,-0.524,0.808
162826,1755603125733,16.17,-32.44,-7.02,775,779,788,357,865,34.48275862068966,-0.271,-0.524,0.808
162856,1755603125762,16.15,-32.46,-7.02,770,780,774,303,878,33.333333333333336,-0.272,-0.523,0.808
162885,1755603125791,16.11,-32.47,-7.03,773,781,778,360,877,34.48275862068966,-0.27,-0.522,0.809
162915,1755603125821,16.12,-32.48,-7.05,773,780,770,434,886,33.333333333333336,-0.27,-0.524,0.811
162944,1755603125851,16.12,-32.47,-7.05,774,780,770,384,875,34.48275862068966,-0.269,-0.526,0.811
162974,1755603125880,16.12,-32.48,-7.04,769,776,775,296,866,33.333333333333336,-0.269,-0.524,0.807
163004,1755603125910,16.1,-32.5,-7.04,771,780,769,280,869,33.333333333333336,-0.269,-0.524,0.807
163024,1755603125930,16.06,-32.53,-7.06,773,783,779,332,865,50.0,-0.269,-0.524,0.81
163053,1755603125959,16.03,-32.52,-7.08,775,773,773,347,891,34.48275862068966,-0.269,-0.525,0.812
163083,1755603125989,16.07,-32.5,-7.05,777,777,775,412,872,33.333333333333336,-0.27,-0.525,0.81
163112,1755603126018,16.09,-32.49,-7.02,776,785,776,415,867,34.48275862068966,-0.272,-0.524,0.808
163142,1755603126048,16.02,-32.47,-7.01,772,765,781,326,852,33.333333333333336,-0.271,-0.522,0.807
163171,1755603126077,16.0,-32.47,-7.0,775,782,773,307,871,34.48275862068966,-0.27,-0.521,0.809
163201,1755603126107,16.02,-32.47,-6.97,772,781,772,403,866,33.333333333333336,-0.27,-0.522,0.81
163230,1755603126136,15.99,-32.48,-6.98,775,774,781,429,862,34.48275862068966,-0.27,-0.523,0.81
163260,1755603126166,15.95,-32.43,-6.97,774,783,777,355,880,33.333333333333336,-0.269,-0.523,0.809
163289,1755603126195,15.99,-32.43,-6.96,776,772,776,315,870,34.48275862068966,-0.269,-0.525,0.81
163319,1755603126225,15.96,-32.46,-6.96,770,775,763,356,872,33.333333333333336,-0.268,-0.522,0.807
163348,1755603126255,15.94,-32.47,-6.97,774,782,775,441,877,34.48275862068966,-0.269,-0.522,0.807
163378,1755603126284,15.99,-32.52,-6.98,770,775,769,408,871,33.333333333333336,-0.27,-0.523,0.81
163408,1755603126314,16.01,-32.53,-6.97,775,781,775,312,850,33.333333333333336,-0.27,-0.524,0.811
163437,1755603126343,15.98,-32.53,-6.98,775,773,767,327,883,34.48275862068966,-0.268,-0.523,0.81
163466,1755603126373,15.95,-32.52,-7.0,773,780,783,443,866,34.48275862068966,-0.267,-0.524,0.81
163496,1755603126402,15.99,-32.54,-7.01,777,786,779,435,874,33.333333333333336,-0.266,-0.525,0.811
163525,1755603126432,15.99,-32.54,-7.02,776,780,773,349,864,34.48275862068966,-0.268,-0.525,0.808
163555,1755603126461,15.96,-32.59,-7.04,776,780,776,333,872,33.333333333333336,-0.269,-0.525,0.807
163585,1755603126491,15.99,-32.62,-7.04,776,778,768,403,870,33.333333333333336,-0.269,-0.525,0.809
163614,1755603126520,16.02,-32.6,-7.01,774,778,774,452,867,34.48275862068966,-0.271,-0.525,0.81
163644,1755603126550,15.99,-32.59,-7.0,771,784,775,392,871,33.333333333333336,-0.27,-0.523,0.808
163673,1755603126580,15.96,-32.61,-7.01,776,781,773,295,870,34.48275862068966,-0.268,-0.523,0.808
163703,1755603126609,15.95,-32.64,-7.03,775,772,775,339,873,33.333333333333336,-0.267,-0.524,0.809
163732,1755603126639,15.96,-32.67,-7.02,774,780,768,454,856,34.48275862068966,-0.269,-0.526,0.809
163762,1755603126668,15.93,-32.65,-7.02,770,780,774,429,869,33.333333333333336,-0.27,-0.525,0.809
163791,1755603126698,15.9,-32.66,-7.04,773,781,776,320,869,34.48275862068966,-0.269,-0.524,0.808
163821,1755603126728,15.91,-32.69,-7.04,774,775,773,315,869,33.333333333333336,-0.271,-0.526,0.808
163851,1755603126757,15.89,-32.65,-7.01,776,781,770,393,880,33.333333333333336,-0.271,-0.526,0.809
163880,1755603126786,15.86,-32.63,-7.03,775,783,779,430,866,34.48275862068966,-0.267,-0.526,0.809
163910,1755603126816,15.88,-32.65,-7.05,772,787,772,382,869,33.333333333333336,-0.267,-0.526,0.807
163939,1755603126845,15.89,-32.67,-7.05,774,780,777,318,871,34.48275862068966,-0.269,-0.528,0.809
163969,1755603126875,15.89,-32.64,-7.04,774,776,779,347,869,33.333333333333336,-0.268,-0.526,0.809
163998,1755603126905,15.88,-32.64,-7.06,772,779,777,432,871,34.48275862068966,-0.267,-0.525,0.808
164028,1755603126934,15.92,-32.66,-7.09,780,785,773,406,873,33.333333333333336,-0.268,-0.527,0.809
164058,1755603126964,15.92,-32.63,-7.09,776,778,771,289,870,33.333333333333336,-0.268,-0.529,0.809
164087,1755603126993,15.9,-32.61,-7.08,772,778,776,314,867,34.48275862068966,-0.268,-0.526,0.809
164117,1755603127023,15.92,-32.63,-7.1,771,777,772,421,861,33.333333333333336,-0.267,-0.525,0.81
164146,1755603127052,15.93,-32.68,-7.1,776,785,770,428,869,34.48275862068966,-0.268,-0.525,0.809
164176,1755603127082,15.93,-32.67,-7.1,765,777,766,340,869,33.333333333333336,-0.268,-0.526,0.81
164205,1755603127112,15.93,-32.65,-7.1,778,776,768,308,861,34.48275862068966,-0.269,-0.526,0.81
164235,1755603127142,15.93,-32.66,-7.1,770,774,773,361,861,33.333333333333336,-0.27,-0.526,0.809
164265,1755603127171,15.91,-32.63,-7.09,768,773,766,449,868,33.333333333333336,-0.269,-0.527,0.81
164294,1755603127201,15.89,-32.58,-7.07,778,774,776,416,867,34.48275862068966,-0.269,-0.528,0.812
164324,1755603127230,15.89,-32.55,-7.05,771,787,772,321,869,33.333333333333336,-0.27,-0.527,0.811
164353,1755603127260,15.86,-32.54,-7.03,776,775,773,333,864,34.48275862068966,-0.267,-0.526,0.81
164383,1755603127289,15.83,-32.54,-7.05,776,781,776,454,858,33.333333333333336,-0.264,-0.524,0.811
164412,1755603127319,15.86,-32.53,-7.04,778,780,771,452,874,34.48275862068966,-0.265,-0.524,0.811
164432,1755603127339,15.89,-32.52,-7.04,778,783,770,384,869,50.0,-0.268,-0.523,0.812
164462,1755603127368,15.85,-32.53,-7.05,771,776,776,397,874,33.333333333333336,-0.269,-0.521,0.811
164491,1755603127398,15.85,-32.55,-7.04,777,781,772,305,866,34.48275862068966,-0.27,-0.523,0.811
164521,1755603127427,15.87,-32.55,-7.0,775,774,771,301,877,33.333333333333336,-0.272,-0.524,0.811
164551,1755603127457,15.84,-32.51,-6.99,769,777,776,379,866,33.333333333333336,-0.27,-0.524,0.812
164580,1755603127487,15.84,-32.47,-6.98,776,780,778,425,866,34.48275862068966,-0.268,-0.523,0.814
164610,1755603127516,15.84,-32.5,-6.99,776,792,779,388,876,33.333333333333336,-0.267,-0.523,0.813
164639,1755603127546,15.8,-32.55,-7.02,772,771,772,289,871,34.48275862068966,-0.267,-0.523,0.812
164669,1755603127575,15.81,-32.56,-7.03,770,782,768,347,874,33.333333333333336,-0.269,-0.523,0.812
164698,1755603127605,15.77,-32.57,-7.05,778,777,773,446,863,34.48275862068966,-0.269,-0.523,0.812
164728,1755603127634,15.76,-32.55,-7.05,773,775,774,421,861,33.333333333333336,-0.27,-0.525,0.813
164757,1755603127664,15.79,-32.54,-7.02,773,774,769,263,864,34.48275862068966,-0.27,-0.525,0.813
164787,1755603127693,15.77,-32.53,-7.02,773,797,774,305,869,33.333333333333336,-0.269,-0.525,0.812
164817,1755603127723,15.74,-32.5,-7.03,774,784,766,427,864,33.333333333333336,-0.266,-0.524,0.813
164846,1755603127753,15.74,-32.5,-7.04,773,773,778,437,871,34.48275862068966,-0.266,-0.525,0.813
164876,1755603127782,15.72,-32.49,-7.04,771,784,775,370,872,33.333333333333336,-0.267,-0.525,0.812
164905,1755603127812,15.74,-32.46,-7.02,773,780,773,320,875,34.48275862068966,-0.269,-0.525,0.813
164935,1755603127841,15.74,-32.46,-7.0,775,784,765,353,868,33.333333333333336,-0.268,-0.524,0.814
164965,1755603127871,15.73,-32.45,-6.99,768,782,776,461,870,33.333333333333336,-0.267,-0.523,0.813
164994,1755603127900,15.71,-32.42,-6.99,774,772,775,411,871,34.48275862068966,-0.265,-0.521,0.814
165024,1755603127930,15.71,-32.44,-7.01,771,775,777,319,880,33.333333333333336,-0.265,-0.522,0.814
165053,1755603127959,15.71,-32.45,-7.01,777,780,770,345,869,34.48275862068966,-0.266,-0.522,0.814
165083,1755603127989,15.7,-32.46,-7.01,767,782,775,448,899,33.333333333333336,-0.267,-0.523,0.815
165112,1755603128019,16.15,-32.44,-7.0,775,784,772,432,859,34.48275862068966,-0.267,-0.523,0.815
165142,1755603128048,16.13,-32.42,-7.0,771,783,775,303,866,33.333333333333336,-0.267,-0.523,0.814
