timestamp_ms,recv_timestamp_ms,pitch,roll,yaw,flex1,flex2,flex3,flex4,flex5,sampling_hz,accel_x,accel_y,accel_z
151727,1755604452185,77.66,-41.33,-64.1,782,855,834,379,880,34.48275862068966,-0.98,-0.148,0.165
151757,1755604452187,77.7,-41.33,-64.11,782,864,825,314,875,33.333333333333336,-0.982,-0.148,0.165
151786,1755604452189,77.7,-41.34,-64.1,780,865,820,350,877,34.48275862068966,-0.979,-0.148,0.165
151816,1755604452191,77.73,-41.34,-64.11,776,861,843,411,879,33.333333333333336,-0.979,-0.148,0.164
151845,1755604452193,77.74,-41.4,-64.12,777,863,832,397,880,34.48275862068966,-0.98,-0.149,0.163
151875,1755604452195,77.75,-41.41,-64.12,782,870,829,353,880,33.333333333333336,-0.979,-0.147,0.165
151904,1755604452197,77.77,-41.39,-64.13,784,859,829,322,889,34.48275862068966,-0.979,-0.145,0.166
151934,1755604452199,77.73,-41.37,-64.14,782,862,835,391,878,33.333333333333336,-0.978,-0.144,0.166
151964,1755604452201,77.74,-41.35,-64.17,786,872,826,407,881,33.333333333333336,-0.978,-0.144,0.166
151993,1755604452202,77.71,-41.32,-64.2,780,862,812,392,880,34.48275862068966,-0.978,-0.144,0.166
152023,1755604452205,77.7,-41.28,-64.23,784,870,834,322,881,33.333333333333336,-0.978,-0.145,0.165
152052,1755604452206,77.65,-41.28,-64.26,784,859,825,356,882,34.48275862068966,-0.98,-0.147,0.165
152082,1755604452209,77.62,-41.28,-64.25,780,860,833,406,877,33.333333333333336,-0.981,-0.148,0.165
152102,1755604452211,77.59,-41.29,-64.24,785,865,839,323,881,50.0,-0.981,-0.15,0.165
152132,1755604452213,77.59,-41.27,-64.24,782,864,823,398,873,33.333333333333336,-0.979,-0.15,0.165
152162,1755604452215,77.63,-41.31,-64.26,784,863,826,401,875,33.333333333333336,-0.978,-0.149,0.164
152191,1755604452217,77.64,-41.36,-64.28,783,862,826,333,881,34.48275862068966,-0.978,-0.148,0.164
152221,1755604452218,77.59,-41.38,-64.27,784,868,825,346,874,33.333333333333336,-0.98,-0.148,0.165
152251,1755604452220,77.54,-41.37,-64.26,784,868,830,398,884,33.333333333333336,-0.98,-0.147,0.167
152280,1755604452223,77.56,-41.34,-64.27,780,861,832,422,879,34.48275862068966,-0.979,-0.146,0.168
152310,1755604452225,77.52,-41.32,-64.27,784,861,831,404,883,33.333333333333336,-0.978,-0.146,0.167
152340,1755604452227,77.51,-41.36,-64.28,781,866,832,342,879,33.333333333333336,-0.978,-0.148,0.168
152369,1755604452229,77.45,-41.35,-64.27,785,850,815,357,876,34.48275862068966,-0.978,-0.148,0.169
152398,1755604452231,77.51,-41.35,-64.28,782,864,829,410,875,34.48275862068966,-0.98,-0.147,0.17
152419,1755604452233,77.51,-41.35,-64.26,785,863,826,333,878,47.61904761904762,-0.979,-0.147,0.171
152448,1755604452235,77.54,-41.29,-64.27,783,860,823,410,880,34.48275862068966,-0.977,-0.148,0.171
152478,1755604452237,77.57,-41.27,-64.27,787,862,825,413,884,33.333333333333336,-0.977,-0.147,0.169
152507,1755604452239,77.59,-41.28,-64.3,784,857,833,329,877,34.48275862068966,-0.976,-0.143,0.169
152537,1755604452241,77.58,-41.23,-64.32,795,860,833,343,880,33.333333333333336,-0.979,-0.14,0.173
152566,1755604452243,77.53,-41.12,-64.34,786,870,819,414,881,34.48275862068966,-0.977,-0.139,0.174
152596,1755604452245,77.56,-40.99,-64.33,784,866,822,427,872,33.333333333333336,-0.979,-0.144,0.171
152626,1755604452247,77.56,-41.0,-64.29,786,863,831,405,881,33.333333333333336,-0.982,-0.149,0.165
152656,1755604452249,77.58,-41.05,-64.23,782,861,833,323,873,33.333333333333336,-0.981,-0.151,0.16
152685,1755604452251,77.55,-41.17,-64.21,777,861,838,345,877,34.48275862068966,-0.979,-0.149,0.157
152715,1755604452253,77.56,-41.28,-64.21,783,859,831,412,880,33.333333333333336,-0.98,-0.145,0.16
152745,1755604452255,77.44,-41.31,-64.22,784,877,827,399,878,33.333333333333336,-0.976,-0.142,0.165
152774,1755604452257,77.43,-41.29,-64.28,781,864,828,332,882,34.48275862068966,-0.974,-0.142,0.172
152804,1755604452259,77.46,-41.3,-64.36,783,851,830,319,880,33.333333333333336,-0.979,-0.145,0.176
152833,1755604452261,77.51,-41.22,-64.37,782,861,833,389,886,34.48275862068966,-0.982,-0.148,0.176
152863,1755604452263,77.58,-41.15,-64.37,778,865,831,416,876,33.333333333333336,-0.98,-0.147,0.172
152892,1755604452266,77.62,-41.1,-64.38,779,860,831,386,880,34.48275862068966,-0.98,-0.143,0.17
152922,1755604452268,77.59,-41.02,-64.4,782,863,827,345,877,33.333333333333336,-0.979,-0.141,0.168
152952,1755604452270,77.52,-40.92,-64.43,778,856,823,353,868,33.333333333333336,-0.979,-0.14,0.168
152982,1755604452272,77.46,-40.85,-64.46,781,849,827,423,874,33.333333333333336,-0.979,-0.142,0.167
153011,1755604452273,77.46,-40.85,-64.48,784,863,817,418,873,34.48275862068966,-0.981,-0.147,0.166
153041,1755604452275,77.46,-40.9,-64.45,780,862,832,354,881,33.333333333333336,-0.982,-0.153,0.165
153071,1755604452278,77.45,-41.0,-64.38,782,859,833,347,872,33.333333333333336,-0.981,-0.156,0.164
153101,1755604452280,77.49,-41.11,-64.34,779,861,824,380,880,33.333333333333336,-0.979,-0.154,0.163
153130,1755604452282,77.49,-41.2,-64.3,784,859,833,407,881,34.48275862068966,-0.98,-0.148,0.161
153160,1755604452283,77.41,-41.29,-64.27,785,858,832,396,876,33.333333333333336,-0.976,-0.141,0.166
153190,1755604452286,77.3,-41.28,-64.29,780,854,832,322,881,33.333333333333336,-0.971,-0.138,0.172
153219,1755604452288,77.3,-41.19,-64.36,781,854,842,356,880,34.48275862068966,-0.976,-0.138,0.176
153249,1755604452290,77.25,-41.07,-64.38,781,863,834,428,887,33.333333333333336,-0.979,-0.142,0.177
153278,1755604452292,77.26,-40.98,-64.38,783,861,828,410,877,34.48275862068966,-0.981,-0.147,0.176
153308,1755604452294,77.27,-40.95,-64.35,785,866,840,362,880,33.333333333333336,-0.981,-0.15,0.173
153338,1755604452295,77.33,-41.0,-64.33,784,866,824,332,876,33.333333333333336,-0.98,-0.15,0.168
153367,1755604452298,77.36,-41.12,-64.34,783,864,829,396,870,34.48275862068966,-0.976,-0.144,0.169
153397,1755604452300,77.4,-41.1,-64.41,784,868,834,428,879,33.333333333333336,-0.972,-0.137,0.177
153426,1755604452302,77.36,-41.0,-64.47,782,862,828,398,876,34.48275862068966,-0.975,-0.14,0.181
153456,1755604452304,77.38,-40.9,-64.48,782,855,828,329,882,33.333333333333336,-0.98,-0.149,0.18
153486,1755604452307,77.47,-40.84,-64.45,782,870,826,351,875,33.333333333333336,-0.982,-0.152,0.174
153516,1755604452308,77.5,-40.78,-64.42,783,861,831,407,880,33.333333333333336,-0.979,-0.148,0.172
153545,1755604452311,77.5,-40.67,-64.42,786,860,833,414,874,34.48275862068966,-0.982,-0.143,0.171
153575,1755604452312,77.49,-40.59,-64.44,782,869,812,356,891,33.333333333333336,-0.98,-0.14,0.17
153605,1755604452314,77.48,-40.54,-64.49,785,857,826,351,878,33.333333333333336,-0.981,-0.142,0.168
153635,1755604452317,77.51,-40.56,-64.52,781,865,837,361,879,33.333333333333336,-0.984,-0.145,0.166
153664,1755604452318,77.52,-40.61,-64.52,783,861,828,430,871,34.48275862068966,-0.984,-0.146,0.167
153694,1755604452321,77.56,-40.66,-64.52,781,864,830,409,875,33.333333333333336,-0.981,-0.143,0.17
153724,1755604452323,77.56,-40.66,-64.59,779,857,814,325,886,33.333333333333336,-0.973,-0.135,0.172
153753,1755604452325,77.56,-40.56,-64.73,781,862,826,343,880,34.48275862068966,-0.971,-0.133,0.176
153783,1755604452327,77.65,-40.49,-64.91,784,852,843,400,874,33.333333333333336,-0.975,-0.138,0.176
153813,1755604452329,77.64,-40.4,-65.04,786,864,835,411,876,33.333333333333336,-0.976,-0.143,0.177
153842,1755604452330,77.61,-40.35,-65.11,780,862,857,352,884,34.48275862068966,-0.984,-0.149,0.173
153872,1755604452333,77.51,-40.33,-65.08,778,858,832,275,885,33.333333333333336,-0.991,-0.152,0.173
153901,1755604452334,77.4,-40.27,-64.98,781,857,828,336,874,34.48275862068966,-0.989,-0.156,0.171
153922,1755604452337,77.39,-40.3,-64.94,784,861,832,332,887,47.61904761904762,-0.98,-0.159,0.165
153952,1755604452338,77.48,-40.45,-64.99,788,861,834,368,880,33.333333333333336,-0.973,-0.16,0.161
153981,1755604452341,77.35,-40.59,-64.98,780,863,834,439,876,34.48275862068966,-0.979,-0.155,0.161
154010,1755604452343,77.22,-40.7,-64.96,777,862,828,406,879,34.48275862068966,-0.983,-0.151,0.167
154040,1755604452344,77.23,-40.74,-64.95,783,865,831,321,882,33.333333333333336,-0.983,-0.152,0.175
154070,1755604452346,77.28,-40.73,-64.95,781,859,824,352,880,33.333333333333336,-0.98,-0.156,0.174
154099,1755604452349,77.32,-40.77,-64.93,787,864,823,418,880,34.48275862068966,-0.979,-0.158,0.173
154120,1755604452351,77.29,-40.82,-64.9,775,861,833,344,879,47.61904761904762,-0.978,-0.156,0.173
154149,1755604452353,77.33,-40.84,-64.91,782,855,832,397,884,34.48275862068966,-0.977,-0.149,0.174
154179,1755604452355,77.33,-40.82,-64.94,779,865,826,401,885,33.333333333333336,-0.976,-0.144,0.174
154209,1755604452357,77.3,-40.8,-64.98,782,863,826,347,890,33.333333333333336,-0.976,-0.145,0.173
154229,1755604452359,77.28,-40.79,-65.0,781,866,830,404,879,50.0,-0.977,-0.149,0.174
154258,1755604452362,77.21,-40.78,-65.0,782,855,827,348,876,34.48275862068966,-0.98,-0.151,0.172
154278,1755604452364,77.15,-40.79,-64.97,775,855,833,389,881,50.0,-0.984,-0.152,0.171
154308,1755604452366,77.14,-40.8,-64.92,784,868,831,334,886,33.333333333333336,-0.98,-0.154,0.174
154338,1755604452368,77.1,-40.83,-64.89,782,863,826,317,883,33.333333333333336,-0.975,-0.154,0.17
154367,1755604452370,77.15,-40.96,-64.89,777,864,824,367,878,34.48275862068966,-0.976,-0.151,0.169
154397,1755604452372,77.2,-41.06,-64.93,781,863,834,408,892,33.333333333333336,-0.972,-0.144,0.177
154427,1755604452374,77.21,-40.98,-65.02,786,856,827,402,871,33.333333333333336,-0.97,-0.137,0.177
154457,1755604452375,77.15,-40.93,-65.11,779,863,834,286,876,33.333333333333336,-0.972,-0.138,0.183
154487,1755604452377,77.15,-40.86,-65.19,780,863,836,317,883,33.333333333333336,-0.974,-0.149,0.184
154516,1755604452380,77.19,-40.88,-65.22,788,868,832,393,875,34.48275862068966,-0.974,-0.159,0.177
154546,1755604452382,77.33,-40.91,-65.2,782,859,836,400,882,33.333333333333336,-0.978,-0.164,0.176
154575,1755604452384,77.61,-40.9,-65.21,779,862,832,392,880,34.48275862068966,-0.98,-0.16,0.175
154605,1755604452386,77.96,-40.84,-65.28,782,864,834,357,880,33.333333333333336,-0.976,-0.148,0.174
154634,1755604452388,77.88,-40.68,-65.29,783,859,814,367,885,34.48275862068966,-0.979,-0.138,0.166
154664,1755604452390,77.76,-40.65,-65.32,781,863,828,430,881,33.333333333333336,-0.984,-0.145,0.173
154694,1755604452392,77.78,-40.5,-65.28,776,860,831,366,877,33.333333333333336,-0.989,-0.153,0.167
154723,1755604452394,77.9,-40.51,-65.23,779,863,832,325,876,34.48275862068966,-0.988,-0.157,0.162
154753,1755604452396,77.92,-40.55,-65.22,781,862,824,355,877,33.333333333333336,-0.975,-0.152,0.161
154783,1755604452398,77.79,-40.59,-65.21,777,866,834,406,880,33.333333333333336,-0.978,-0.145,0.157
154812,1755604452400,77.69,-40.63,-65.23,782,862,830,385,869,34.48275862068966,-0.979,-0.144,0.157
154842,1755604452403,77.69,-40.59,-65.27,782,864,827,365,884,33.333333333333336,-0.978,-0.149,0.158
154872,1755604452405,77.59,-40.7,-65.28,784,855,831,318,881,33.333333333333336,-0.977,-0.156,0.154
154901,1755604452406,77.45,-40.8,-65.25,783,861,832,357,881,34.48275862068966,-0.977,-0.16,0.159
154931,1755604452408,77.3,-40.9,-65.18,781,869,830,428,879,33.333333333333336,-0.982,-0.156,0.161
154961,1755604452410,77.35,-40.96,-65.15,777,859,822,409,886,33.333333333333336,-0.984,-0.148,0.165
154990,1755604452412,77.29,-40.89,-65.14,782,858,812,296,893,34.48275862068966,-0.975,-0.145,0.17
155020,1755604452414,77.22,-40.9,-65.19,776,862,823,318,878,33.333333333333336,-0.974,-0.148,0.169
155050,1755604452416,77.14,-40.97,-65.19,775,861,830,374,880,33.333333333333336,-0.983,-0.152,0.173
155079,1755604452418,77.05,-40.91,-65.08,779,871,826,410,888,34.48275862068966,-0.991,-0.154,0.173
155109,1755604452420,77.14,-40.91,-64.99,776,860,841,370,878,33.333333333333336,-0.986,-0.151,0.175
155138,1755604452423,77.13,-40.88,-64.97,779,870,830,337,884,34.48275862068966,-0.971,-0.146,0.178
155168,1755604452425,77.11,-40.82,-65.0,781,859,834,358,876,33.333333333333336,-0.973,-0.143,0.178
155198,1755604452427,77.09,-40.82,-65.03,785,864,830,435,876,33.333333333333336,-0.978,-0.139,0.176
155227,1755604452429,77.06,-40.75,-65.06,789,857,826,391,878,34.48275862068966,-0.974,-0.135,0.182
155247,1755604452431,76.97,-40.64,-65.08,776,866,824,387,879,50.0,-0.972,-0.136,0.186
155277,1755604452433,76.98,-40.57,-65.13,782,858,835,381,877,33.333333333333336,-0.974,-0.14,0.183
155307,1755604452435,77.07,-40.52,-65.19,780,862,822,320,880,33.333333333333336,-0.975,-0.144,0.181
155336,1755604452437,77.05,-40.47,-65.21,782,863,833,334,877,34.48275862068966,-0.974,-0.147,0.179
155366,1755604452439,77.03,-40.47,-65.19,784,864,827,425,894,33.333333333333336,-0.979,-0.15,0.178
155395,1755604452440,77.02,-40.51,-65.15,784,864,827,440,881,34.48275862068966,-0.979,-0.151,0.179
155425,1755604452443,77.02,-40.48,-65.12,778,856,831,361,872,33.333333333333336,-0.979,-0.15,0.18
155454,1755604452445,77.09,-40.44,-65.1,781,866,823,343,878,34.48275862068966,-0.976,-0.148,0.181
155484,1755604452447,77.25,-40.45,-65.16,785,862,824,376,875,33.333333333333336,-0.97,-0.142,0.176
155513,1755604452449,77.34,-40.53,-65.29,780,863,822,426,881,34.48275862068966,-0.967,-0.137,0.179
155543,1755604452451,77.25,-40.47,-65.38,776,859,826,423,886,33.333333333333336,-0.97,-0.137,0.181
155572,1755604452453,77.19,-40.41,-65.45,782,851,824,330,882,34.48275862068966,-0.977,-0.142,0.18
155602,1755604452455,77.19,-40.38,-65.45,777,859,833,357,879,33.333333333333336,-0.987,-0.149,0.182
155631,1755604452457,77.12,-40.3,-65.35,779,865,834,420,874,34.48275862068966,-0.987,-0.155,0.177
155661,1755604452459,77.28,-40.37,-65.32,789,856,833,395,882,33.333333333333336,-0.98,-0.151,0.171
155691,1755604452461,77.27,-40.43,-65.36,781,861,835,318,882,33.333333333333336,-0.968,-0.142,0.173
155720,1755604452463,77.26,-40.48,-65.5,784,860,827,329,877,34.48275862068966,-0.967,-0.138,0.177
155750,1755604452465,77.22,-40.44,-65.6,782,859,830,387,912,33.333333333333336,-0.976,-0.141,0.182
155780,1755604452467,77.23,-40.33,-65.63,785,861,818,412,882,33.333333333333336,-0.981,-0.148,0.184
155810,1755604452469,77.16,-40.23,-65.59,782,868,831,404,878,33.333333333333336,-0.984,-0.153,0.182
155839,1755604452471,77.15,-40.2,-65.52,781,859,829,343,873,34.48275862068966,-0.981,-0.152,0.179
155869,1755604452473,77.22,-40.15,-65.53,779,856,832,354,885,33.333333333333336,-0.977,-0.149,0.177
155898,1755604452475,77.06,-40.18,-65.58,783,862,812,434,877,34.48275862068966,-0.986,-0.153,0.173
155928,1755604452477,77.24,-40.23,-65.63,781,862,831,415,883,33.333333333333336,-0.98,-0.154,0.168
155958,1755604452479,77.0,-40.21,-65.53,773,860,834,337,882,33.333333333333336,-0.98,-0.144,0.175
155987,1755604452481,76.99,-40.04,-65.57,788,861,836,340,883,34.48275862068966,-0.979,-0.141,0.176
156017,1755604452483,76.77,-39.93,-65.56,785,863,836,376,887,33.333333333333336,-0.976,-0.145,0.178
156047,1755604452485,76.77,-39.81,-65.53,781,853,841,422,880,33.333333333333336,-0.978,-0.151,0.177
156077,1755604452487,76.74,-39.85,-65.51,784,860,829,396,883,33.333333333333336,-0.978,-0.151,0.177
156106,1755604452489,76.75,-39.81,-65.51,783,860,838,336,883,34.48275862068966,-0.975,-0.155,0.177
156136,1755604452490,76.7,-39.86,-65.45,776,860,838,340,880,33.333333333333336,-0.978,-0.154,0.178
156166,1755604452493,76.7,-39.84,-65.42,785,856,826,402,885,33.333333333333336,-0.976,-0.15,0.181
156195,1755604452495,76.71,-39.8,-65.4,790,855,833,356,874,34.48275862068966,-0.979,-0.154,0.185
156225,1755604452497,76.54,-39.73,-65.25,785,861,828,327,878,33.333333333333336,-0.976,-0.161,0.18
156254,1755604452499,76.74,-39.81,-65.24,782,867,832,303,876,34.48275862068966,-0.972,-0.153,0.171
156284,1755604452501,76.72,-39.93,-65.26,782,861,820,364,881,33.333333333333336,-0.966,-0.14,0.178
156314,1755604452504,76.64,-39.85,-65.29,779,866,822,412,880,33.333333333333336,-0.972,-0.133,0.19
156343,1755604452506,76.61,-39.69,-65.26,783,858,827,384,880,34.48275862068966,-0.983,-0.137,0.193
156373,1755604452508,76.7,-39.57,-65.22,776,866,834,322,877,33.333333333333336,-0.979,-0.141,0.192
156402,1755604452510,76.69,-39.46,-65.2,782,864,843,302,874,34.48275862068966,-0.972,-0.142,0.191
156432,1755604452512,76.7,-39.32,-65.2,782,866,817,409,888,33.333333333333336,-0.975,-0.145,0.186
156461,1755604452514,76.75,-39.34,-65.14,780,853,825,403,878,34.48275862068966,-0.982,-0.147,0.181
156491,1755604452516,76.91,-39.37,-65.14,783,860,828,350,874,33.333333333333336,-0.99,-0.143,0.181
156520,1755604452518,76.91,-39.31,-65.15,785,866,827,333,878,34.48275862068966,-0.979,-0.136,0.176
156540,1755604452520,76.89,-39.21,-65.12,775,860,840,391,880,50.0,-0.978,-0.13,0.176
156570,1755604452522,76.67,-39.15,-65.08,781,868,830,354,876,33.333333333333336,-0.971,-0.128,0.183
156599,1755604452524,76.72,-38.95,-65.11,780,861,823,420,877,34.48275862068966,-0.976,-0.13,0.189
156629,1755604452526,76.71,-38.94,-65.16,786,866,833,421,926,33.333333333333336,-0.973,-0.132,0.191
156659,1755604452528,76.76,-38.81,-65.24,784,856,833,377,882,33.333333333333336,-0.973,-0.135,0.191
156688,1755604452530,76.79,-38.71,-65.29,782,866,833,330,879,34.48275862068966,-0.976,-0.139,0.187
156718,1755604452532,76.86,-38.69,-65.31,783,863,829,348,882,33.333333333333336,-0.98,-0.14,0.184
156747,1755604452535,76.87,-38.62,-65.32,777,868,833,427,874,34.48275862068966,-0.979,-0.138,0.184
156777,1755604452537,76.91,-38.6,-65.35,783,875,827,398,883,33.333333333333336,-0.979,-0.14,0.182
156806,1755604452539,76.96,-38.61,-65.39,782,861,827,320,886,34.48275862068966,-0.975,-0.139,0.183
156836,1755604452540,76.99,-38.61,-65.47,783,863,832,328,873,33.333333333333336,-0.972,-0.136,0.187
156865,1755604452542,76.9,-38.55,-65.53,783,865,822,413,883,34.48275862068966,-0.975,-0.138,0.185
156895,1755604452544,76.91,-38.5,-65.53,783,861,836,389,896,33.333333333333336,-0.984,-0.143,0.184
156924,1755604452546,76.92,-38.47,-65.5,778,865,825,339,880,34.48275862068966,-0.981,-0.146,0.183
156954,1755604452548,76.93,-38.45,-65.49,782,862,835,313,881,33.333333333333336,-0.977,-0.148,0.18
156984,1755604452551,76.89,-38.48,-65.45,785,854,839,348,873,33.333333333333336,-0.98,-0.148,0.178
157013,1755604452553,76.92,-38.6,-65.43,781,867,828,434,889,34.48275862068966,-0.979,-0.143,0.178
157043,1755604452555,76.98,-38.61,-65.45,782,866,833,413,876,33.333333333333336,-0.975,-0.138,0.181
157072,1755604452557,76.89,-38.6,-65.46,783,860,832,308,872,34.48275862068966,-0.977,-0.141,0.179
157102,1755604452559,76.95,-38.7,-65.47,775,865,842,341,882,33.333333333333336,-0.977,-0.142,0.181
157132,1755604452561,76.94,-38.7,-65.51,782,865,837,410,871,33.333333333333336,-0.97,-0.137,0.185
157161,1755604452562,76.96,-38.63,-65.58,781,860,833,404,878,34.48275862068966,-0.974,-0.137,0.187
157191,1755604452565,76.95,-38.6,-65.62,783,864,829,347,880,33.333333333333336,-0.977,-0.138,0.184
157220,1755604452567,76.92,-38.53,-65.66,780,862,834,331,882,34.48275862068966,-0.976,-0.139,0.183
157250,1755604452569,76.88,-38.54,-65.68,792,862,834,392,881,33.333333333333336,-0.979,-0.145,0.18
157280,1755604452571,76.84,-38.56,-65.65,782,858,833,413,881,33.333333333333336,-0.981,-0.148,0.179
157309,1755604452573,76.85,-38.6,-65.65,784,863,820,396,871,34.48275862068966,-0.978,-0.147,0.18
157339,1755604452575,76.81,-38.59,-65.62,782,862,829,345,884,33.333333333333336,-0.978,-0.147,0.183
157368,1755604452577,76.87,-38.59,-65.59,780,860,827,365,877,34.48275862068966,-0.981,-0.149,0.183
157398,1755604452579,76.87,-38.63,-65.56,781,865,831,423,872,33.333333333333336,-0.976,-0.144,0.182
157428,1755604452581,76.88,-38.59,-65.58,781,867,823,403,875,33.333333333333336,-0.974,-0.141,0.183
157458,1755604452583,76.79,-38.61,-65.55,780,863,834,348,884,33.333333333333336,-0.978,-0.141,0.185
157487,1755604452585,76.83,-38.59,-65.54,787,863,830,310,874,34.48275862068966,-0.98,-0.141,0.186
157517,1755604452587,76.79,-38.57,-65.52,777,863,838,375,881,33.333333333333336,-0.976,-0.141,0.187
157537,1755604452589,76.79,-38.5,-65.52,782,854,830,336,882,50.0,-0.973,-0.138,0.187
157557,1755604452591,76.78,-38.45,-65.53,779,855,826,391,882,50.0,-0.974,-0.135,0.188
157587,1755604452593,76.77,-38.39,-65.57,775,866,830,349,881,33.333333333333336,-0.974,-0.134,0.19
157616,1755604452595,76.74,-38.3,-65.59,785,853,831,410,874,34.48275862068966,-0.976,-0.136,0.191
157646,1755604452597,76.73,-38.22,-65.59,783,861,831,437,875,33.333333333333336,-0.977,-0.142,0.187
157676,1755604452599,76.78,-38.25,-65.58,778,872,829,406,876,33.333333333333336,-0.978,-0.144,0.183
157696,1755604452601,76.79,-38.26,-65.58,785,870,832,422,880,50.0,-0.976,-0.142,0.184
157725,1755604452603,76.76,-38.25,-65.6,780,863,824,340,881,34.48275862068966,-0.974,-0.139,0.185
157755,1755604452605,76.72,-38.2,-65.61,776,860,827,311,878,33.333333333333336,-0.976,-0.14,0.186
157784,1755604452607,76.76,-38.2,-65.62,784,855,832,353,880,34.48275862068966,-0.978,-0.141,0.185
157814,1755604452609,76.74,-38.18,-65.62,783,859,823,416,890,33.333333333333336,-0.975,-0.139,0.187
157844,1755604452611,76.7,-38.13,-65.63,783,858,831,395,885,33.333333333333336,-0.975,-0.139,0.189
157873,1755604452613,76.64,-38.11,-65.64,775,858,833,316,878,34.48275862068966,-0.978,-0.142,0.187
157903,1755604452615,76.64,-38.08,-65.63,790,862,838,321,871,33.333333333333336,-0.979,-0.143,0.187
157932,1755604452617,76.63,-38.06,-65.6,784,860,826,407,880,34.48275862068966,-0.979,-0.144,0.188
157962,1755604452618,76.65,-38.05,-65.57,785,854,835,404,873,33.333333333333336,-0.978,-0.143,0.189
157991,1755604452621,76.69,-38.01,-65.57,784,860,827,364,883,34.48275862068966,-0.974,-0.139,0.191
158021,1755604452623,76.71,-37.95,-65.6,776,864,816,333,886,33.333333333333336,-0.973,-0.135,0.192
158051,1755604452625,76.7,-37.87,-65.63,782,863,833,365,878,33.333333333333336,-0.976,-0.135,0.193
158081,1755604452626,76.7,-37.79,-65.64,783,865,829,432,881,33.333333333333336,-0.976,-0.135,0.193
158110,1755604452628,76.72,-37.7,-65.68,778,868,835,409,882,34.48275862068966,-0.973,-0.135,0.193
158140,1755604452630,76.72,-37.65,-65.74,782,856,840,333,873,33.333333333333336,-0.972,-0.136,0.192
158170,1755604452632,76.73,-37.59,-65.79,782,868,830,328,876,33.333333333333336,-0.975,-0.137,0.191
158199,1755604452635,76.73,-37.54,-65.83,782,857,832,374,878,34.48275862068966,-0.976,-0.138,0.191
158229,1755604452636,76.74,-37.48,-65.85,781,859,833,413,877,33.333333333333336,-0.975,-0.14,0.192
158258,1755604452638,76.76,-37.44,-65.87,785,863,830,377,877,34.48275862068966,-0.976,-0.142,0.19
158288,1755604452640,76.71,-37.43,-65.86,781,864,826,312,878,33.333333333333336,-0.978,-0.143,0.187
158318,1755604452642,76.73,-37.46,-65.84,784,868,836,354,879,33.333333333333336,-0.98,-0.145,0.185
158347,1755604452644,76.77,-37.48,-65.81,780,866,838,432,879,34.48275862068966,-0.982,-0.144,0.186
158377,1755604452646,76.78,-37.47,-65.78,784,861,840,416,879,33.333333333333336,-0.976,-0.141,0.187
158406,1755604452648,76.76,-37.46,-65.8,780,852,823,348,872,34.48275862068966,-0.974,-0.14,0.188
158436,1755604452650,76.77,-37.45,-65.8,781,869,832,375,870,33.333333333333336,-0.975,-0.139,0.191
158466,1755604452652,76.85,-37.41,-65.82,780,865,830,408,883,33.333333333333336,-0.975,-0.137,0.193
158495,1755604452654,76.86,-37.3,-65.83,774,864,827,432,874,34.48275862068966,-0.974,-0.135,0.195
158525,1755604452656,76.87,-37.21,-65.87,785,868,826,376,878,33.333333333333336,-0.972,-0.135,0.193
158554,1755604452658,76.87,-37.14,-65.92,780,856,835,327,887,34.48275862068966,-0.972,-0.136,0.191
158574,1755604452660,76.89,-37.12,-65.96,779,862,829,396,876,50.0,-0.974,-0.138,0.188
158604,1755604452662,76.92,-37.12,-65.99,777,862,835,339,884,33.333333333333336,-0.977,-0.14,0.185
158634,1755604452664,76.96,-37.4,-66.07,778,869,839,369,882,33.333333333333336,-1.004,-0.133,0.182
158664,1755604452665,77.29,-38.44,-66.15,778,872,835,408,878,33.333333333333336,-1.001,-0.152,0.18
158693,1755604452668,78.17,-38.28,-66.07,784,891,848,366,894,34.48275862068966,-0.997,-0.161,0.198
158723,1755604452670,79.26,-37.87,-65.88,775,900,849,318,895,33.333333333333336,-1.003,-0.148,0.193
158753,1755604452672,79.6,-37.69,-65.57,780,908,858,324,912,33.333333333333336,-1.003,-0.143,0.188
158782,1755604452674,79.34,-37.63,-65.31,785,914,861,413,918,34.48275862068966,-0.972,-0.143,0.174
158811,1755604452677,79.21,-37.78,-65.26,776,910,869,422,918,34.48275862068966,-0.96,-0.138,0.153
158841,1755604452679,79.24,-38.26,-65.41,784,914,876,366,914,33.333333333333336,-0.959,-0.135,0.136
158871,1755604452681,79.54,-38.85,-65.64,782,910,876,349,917,33.333333333333336,-0.974,-0.135,0.128
158900,1755604452683,79.54,-39.27,-65.68,782,909,879,383,921,34.48275862068966,-0.99,-0.137,0.131
158930,1755604452685,79.53,-39.58,-65.66,778,919,873,423,917,33.333333333333336,-0.988,-0.138,0.135
158950,1755604452687,79.57,-39.8,-65.65,775,910,877,358,906,50.0,-0.986,-0.139,0.14
158979,1755604452689,79.63,-40.2,-65.97,783,916,891,400,928,34.48275862068966,-0.977,-0.135,0.141
159009,1755604452690,79.77,-40.79,-66.64,781,917,896,394,918,33.333333333333336,-0.967,-0.135,0.153
159038,1755604452693,79.81,-41.6,-67.55,781,919,890,371,917,34.48275862068966,-0.949,-0.138,0.141
159068,1755604452695,79.87,-42.46,-68.37,786,915,886,390,917,33.333333333333336,-0.956,-0.159,0.118
159098,1755604452697,80.24,-43.32,-69.03,781,923,897,409,917,33.333333333333336,-0.969,-0.172,0.099
159128,1755604452698,80.38,-43.99,-69.25,769,928,897,386,922,33.333333333333336,-0.992,-0.182,0.106
159148,1755604452701,80.13,-44.08,-68.91,778,926,892,382,907,50.0,-1.027,-0.191,0.134
159177,1755604452703,79.14,-42.19,-66.67,782,926,895,420,922,34.48275862068966,-1.058,-0.205,0.114
159197,1755604452705,78.92,-42.33,-66.06,784,930,900,408,923,50.0,-1.056,-0.194,0.109
159227,1755604452707,79.2,-42.73,-65.5,785,926,906,1022,927,33.333333333333336,-0.998,-0.167,0.099
159257,1755604452709,80.01,-44.05,-65.67,785,924,903,1017,924,33.333333333333336,-0.93,-0.161,0.113
159287,1755604452711,80.68,-44.66,-66.02,788,929,903,1023,931,33.333333333333336,-0.897,-0.14,0.114
159316,1755604452713,80.64,-45.82,-66.61,781,921,901,1022,928,34.48275862068966,-0.891,-0.138,0.102
159336,1755604452715,80.82,-47.02,-67.15,777,935,900,1019,933,50.0,-0.907,-0.136,0.074
159366,1755604452717,81.2,-49.01,-67.88,782,923,892,684,930,33.333333333333336,-0.967,-0.161,0.064
159395,1755604452719,81.41,-50.51,-68.06,788,932,894,558,934,34.48275862068966,-1.017,-0.186,0.067
159425,1755604452721,81.57,-51.44,-67.84,782,929,898,431,937,33.333333333333336,-1.03,-0.202,0.076
159454,1755604452723,81.79,-52.54,-67.63,782,922,896,363,933,34.48275862068966,-1.021,-0.201,0.083
159484,1755604452725,81.9,-53.41,-67.46,778,921,902,384,938,33.333333333333336,-0.998,-0.198,0.097
159513,1755604452727,81.64,-54.11,-67.4,780,925,888,435,944,34.48275862068966,-0.953,-0.188,0.087
159543,1755604452729,82.2,-54.72,-67.6,788,925,884,395,933,33.333333333333336,-0.945,-0.186,0.077
159572,1755604452732,82.19,-55.41,-67.76,790,919,891,319,965,34.48275862068966,-0.963,-0.189,0.063
159602,1755604452734,82.16,-56.02,-67.87,790,928,894,337,926,33.333333333333336,-0.977,-0.194,0.042
159631,1755604452736,82.12,-56.6,-67.89,782,927,879,408,929,34.48275862068966,-0.998,-0.199,0.043
159661,1755604452738,82.17,-57.08,-67.86,775,922,886,407,931,33.333333333333336,-0.988,-0.201,0.042
159691,1755604452740,82.35,-57.66,-67.88,780,925,887,354,936,33.333333333333336,-0.986,-0.206,0.039
159721,1755604452742,82.41,-58.17,-67.86,784,929,886,327,926,33.333333333333336,-0.982,-0.209,0.029
159750,1755604452744,82.46,-58.76,-67.86,780,930,893,367,929,34.48275862068966,-0.982,-0.205,0.023
159780,1755604452746,82.59,-59.16,-67.79,788,922,904,405,961,33.333333333333336,-0.988,-0.202,0.024
159809,1755604452748,82.56,-59.47,-67.65,777,932,891,389,932,34.48275862068966,-0.994,-0.2,0.024
159839,1755604452750,82.77,-59.6,-67.5,780,927,888,330,927,33.333333333333336,-0.988,-0.196,0.016
159869,1755604452753,83.12,-60.07,-67.5,786,925,892,359,932,33.333333333333336,-0.984,-0.194,0.013
159898,1755604452755,83.22,-60.44,-67.48,783,930,896,432,930,34.48275862068966,-0.985,-0.193,0.012
159927,1755604452757,83.04,-60.86,-67.46,782,926,891,423,930,34.48275862068966,-0.983,-0.19,0.001
159957,1755604452759,83.24,-61.44,-67.5,782,922,890,356,930,33.333333333333336,-0.981,-0.192,-0.018
159987,1755604452761,83.58,-62.29,-67.52,784,923,877,335,931,33.333333333333336,-0.995,-0.195,-0.03
160016,1755604452763,83.45,-63.13,-67.44,784,929,885,397,939,34.48275862068966,-0.99,-0.194,-0.034
160046,1755604452765,83.55,-64.02,-67.47,784,920,886,422,934,33.333333333333336,-0.977,-0.189,-0.035
160076,1755604452767,83.73,-64.94,-67.54,782,923,875,340,936,33.333333333333336,-0.974,-0.187,-0.035
160105,1755604452769,83.77,-65.7,-67.61,787,922,886,307,930,34.48275862068966,-0.981,-0.187,-0.033
160135,1755604452772,83.43,-66.41,-67.65,783,926,887,327,930,33.333333333333336,-0.983,-0.187,-0.035
160164,1755604452774,83.28,-67.19,-67.71,780,922,889,403,924,34.48275862068966,-0.982,-0.189,-0.038
160194,1755604452775,83.24,-68.05,-67.74,782,917,884,386,930,33.333333333333336,-0.986,-0.192,-0.038
160224,1755604452778,83.13,-68.85,-67.76,783,924,884,327,919,33.333333333333336,-0.983,-0.193,-0.038
160253,1755604452780,83.02,-69.74,-67.84,784,918,887,322,936,34.48275862068966,-0.98,-0.192,-0.042
160283,1755604452781,82.97,-70.72,-67.95,781,924,889,405,932,33.333333333333336,-0.977,-0.191,-0.04
160312,1755604452784,82.99,-71.48,-68.05,784,926,879,427,929,34.48275862068966,-0.983,-0.192,-0.034
160342,1755604452786,82.72,-72.18,-68.14,780,925,879,404,929,33.333333333333336,-0.983,-0.194,-0.035
160372,1755604452788,82.58,-72.82,-68.23,784,927,884,330,920,33.333333333333336,-0.981,-0.195,-0.04
160401,1755604452790,82.43,-73.63,-68.34,776,927,881,339,945,34.48275862068966,-0.982,-0.198,-0.039
160431,1755604452792,82.3,-74.14,-68.39,782,925,884,430,941,33.333333333333336,-0.98,-0.2,-0.034
