timestamp_ms,recv_timestamp_ms,pitch,roll,yaw,flex1,flex2,flex3,flex4,flex5,sampling_hz,accel_x,accel_y,accel_z
116693,1755607251693,37.08,-155.81,-22.03,795,776,836,396,876,34.48275862068966,-0.602,-0.321,-0.736
116723,1755607251695,37.09,-155.87,-22.02,797,779,840,422,876,33.333333333333336,-0.603,-0.321,-0.734
116752,1755607251697,37.14,-155.87,-22.01,797,777,838,386,876,34.48275862068966,-0.603,-0.32,-0.732
116782,1755607251699,37.16,-155.83,-21.99,797,778,843,358,879,33.333333333333336,-0.601,-0.32,-0.735
116812,1755607251701,37.15,-155.87,-21.98,798,775,836,377,878,33.333333333333336,-0.603,-0.32,-0.735
116841,1755607251703,37.18,-155.86,-21.98,797,777,841,407,875,34.48275862068966,-0.602,-0.318,-0.733
116871,1755607251705,37.23,-155.85,-21.98,792,777,841,355,877,33.333333333333336,-0.602,-0.32,-0.734
116900,1755607251707,37.26,-155.88,-21.98,799,778,839,339,874,34.48275862068966,-0.601,-0.321,-0.736
116930,1755607251709,37.26,-155.89,-21.98,794,774,844,334,875,33.333333333333336,-0.601,-0.319,-0.735
116959,1755607251711,37.28,-155.85,-21.98,790,771,841,366,881,34.48275862068966,-0.599,-0.319,-0.735
116989,1755607251713,37.25,-155.86,-21.99,794,773,843,403,877,33.333333333333336,-0.598,-0.32,-0.737
117019,1755607251715,37.25,-155.9,-22.0,794,773,848,340,873,33.333333333333336,-0.598,-0.321,-0.736
117039,1755607251717,37.23,-155.9,-22.0,794,777,840,373,883,50.0,-0.6,-0.32,-0.736
117069,1755607251719,37.24,-155.9,-21.99,794,771,838,364,876,33.333333333333336,-0.602,-0.32,-0.734
117099,1755607251721,37.28,-155.86,-21.95,794,775,842,353,877,33.333333333333336,-0.6,-0.32,-0.734
117128,1755607251723,37.29,-155.85,-21.95,794,766,842,353,875,34.48275862068966,-0.599,-0.321,-0.739
117158,1755607251725,37.23,-155.86,-21.94,795,774,842,390,876,33.333333333333336,-0.598,-0.32,-0.739
117187,1755607251727,37.23,-155.86,-21.94,794,774,843,398,878,34.48275862068966,-0.601,-0.32,-0.735
117217,1755607251730,37.27,-155.86,-21.92,795,773,842,352,874,33.333333333333336,-0.602,-0.321,-0.734
117246,1755607251732,37.29,-155.84,-21.9,797,767,836,344,873,34.48275862068966,-0.598,-0.32,-0.737
117276,1755607251734,37.26,-155.88,-21.91,797,774,835,390,879,33.333333333333336,-0.598,-0.319,-0.74
117306,1755607251736,37.23,-155.92,-21.95,794,773,843,407,880,33.333333333333336,-0.599,-0.319,-0.739
117335,1755607251738,37.2,-155.91,-21.96,795,777,839,386,872,34.48275862068966,-0.598,-0.32,-0.736
117356,1755607251741,37.22,-155.91,-21.96,797,779,841,403,878,47.61904761904762,-0.603,-0.322,-0.736
117385,1755607251743,37.23,-155.88,-21.93,803,772,839,370,875,34.48275862068966,-0.599,-0.321,-0.736
117415,1755607251745,37.2,-155.84,-21.91,794,778,839,303,879,33.333333333333336,-0.598,-0.32,-0.738
117445,1755607251747,37.17,-155.85,-21.92,796,771,836,336,883,33.333333333333336,-0.597,-0.319,-0.739
117474,1755607251749,37.12,-155.88,-21.94,797,772,841,378,875,34.48275862068966,-0.598,-0.321,-0.739
117504,1755607251751,37.12,-155.89,-21.92,794,774,848,389,871,33.333333333333336,-0.6,-0.32,-0.735
117534,1755607251753,37.18,-155.87,-21.92,796,771,834,351,874,33.333333333333336,-0.601,-0.32,-0.735
117564,1755607251755,37.14,-155.86,-21.9,795,768,837,303,876,33.333333333333336,-0.598,-0.321,-0.739
117593,1755607251757,37.1,-155.9,-21.9,790,773,838,370,877,34.48275862068966,-0.598,-0.321,-0.739
117623,1755607251759,37.08,-155.9,-21.9,797,773,840,391,874,33.333333333333336,-0.6,-0.32,-0.735
117653,1755607251761,37.09,-155.85,-21.89,798,773,837,376,874,33.333333333333336,-0.598,-0.321,-0.736
117682,1755607251763,37.1,-155.89,-21.89,792,769,842,339,878,34.48275862068966,-0.6,-0.321,-0.738
117712,1755607251766,37.1,-155.91,-21.9,796,775,840,347,875,33.333333333333336,-0.597,-0.321,-0.737
117741,1755607251767,37.06,-155.91,-21.91,795,778,837,402,875,34.48275862068966,-0.599,-0.321,-0.736
117771,1755607251770,37.03,-155.92,-21.88,796,773,839,407,874,33.333333333333336,-0.6,-0.321,-0.734
117801,1755607251772,37.07,-155.89,-21.86,794,768,842,379,877,33.333333333333336,-0.601,-0.321,-0.733
117830,1755607251774,37.09,-155.89,-21.85,794,773,839,354,877,34.48275862068966,-0.599,-0.322,-0.738
117860,1755607251775,37.04,-155.9,-21.85,798,775,840,374,878,33.333333333333336,-0.598,-0.32,-0.737
117889,1755607251778,37.02,-155.91,-21.87,798,778,837,356,871,34.48275862068966,-0.6,-0.318,-0.736
117919,1755607251780,37.03,-155.92,-21.87,795,778,839,342,875,33.333333333333336,-0.601,-0.321,-0.735
117948,1755607251782,37.06,-155.91,-21.86,796,770,837,340,878,34.48275862068966,-0.601,-0.321,-0.735
117978,1755607251784,37.05,-155.89,-21.85,796,772,838,359,879,33.333333333333336,-0.601,-0.322,-0.736
118008,1755607251786,37.05,-155.87,-21.84,788,783,838,394,878,33.333333333333336,-0.599,-0.321,-0.737
118038,1755607251788,37.05,-155.89,-21.83,798,777,844,404,876,33.333333333333336,-0.599,-0.321,-0.737
118068,1755607251790,37.07,-155.92,-21.84,794,773,835,361,873,33.333333333333336,-0.6,-0.321,-0.736
118097,1755607251792,37.05,-155.9,-21.83,795,774,839,339,873,34.48275862068966,-0.593,-0.32,-0.737
118127,1755607251794,37.03,-155.9,-21.85,797,775,840,383,876,33.333333333333336,-0.596,-0.321,-0.738
118157,1755607251796,37.03,-155.92,-21.86,791,774,837,400,875,33.333333333333336,-0.597,-0.321,-0.737
118186,1755607251798,37.03,-155.91,-21.86,795,774,840,348,874,34.48275862068966,-0.598,-0.321,-0.735
118215,1755607251800,37.04,-155.88,-21.85,793,773,839,330,881,34.48275862068966,-0.599,-0.321,-0.737
118245,1755607251803,37.01,-155.9,-21.86,795,775,841,362,875,33.333333333333336,-0.597,-0.321,-0.738
118274,1755607251805,36.97,-155.92,-21.87,795,773,839,406,875,34.48275862068966,-0.599,-0.321,-0.737
118304,1755607251807,36.94,-155.92,-21.87,798,775,840,359,875,33.333333333333336,-0.601,-0.322,-0.736
118334,1755607251809,36.93,-155.9,-21.86,794,779,842,329,876,33.333333333333336,-0.6,-0.321,-0.734
118363,1755607251810,37.0,-155.91,-21.85,794,781,841,335,876,34.48275862068966,-0.603,-0.321,-0.734
118393,1755607251812,37.03,-155.91,-21.84,799,774,841,382,872,33.333333333333336,-0.6,-0.321,-0.736
118423,1755607251815,37.0,-155.93,-21.84,796,773,839,394,876,33.333333333333336,-0.6,-0.321,-0.737
118452,1755607251817,36.97,-155.92,-21.84,792,769,840,359,874,34.48275862068966,-0.599,-0.32,-0.736
118482,1755607251818,36.98,-155.93,-21.85,795,774,839,332,873,33.333333333333336,-0.601,-0.321,-0.735
118511,1755607251820,37.0,-155.94,-21.84,796,770,836,361,878,34.48275862068966,-0.601,-0.321,-0.735
118541,1755607251823,37.02,-155.95,-21.84,793,771,841,388,876,33.333333333333336,-0.602,-0.321,-0.735
118571,1755607251825,37.02,-155.95,-21.84,797,777,842,408,875,33.333333333333336,-0.6,-0.321,-0.736
118600,1755607251827,36.99,-155.93,-21.85,796,777,840,370,876,34.48275862068966,-0.6,-0.32,-0.736
118621,1755607251829,36.98,-155.93,-21.85,793,778,835,412,874,47.61904761904762,-0.6,-0.32,-0.736
118650,1755607251832,36.97,-155.95,-21.87,797,772,840,366,877,34.48275862068966,-0.599,-0.321,-0.737
118680,1755607251834,36.99,-155.98,-21.88,796,777,840,351,879,33.333333333333336,-0.602,-0.322,-0.735
118710,1755607251836,37.03,-155.96,-21.86,793,777,840,394,876,33.333333333333336,-0.602,-0.32,-0.732
118739,1755607251839,37.05,-155.92,-21.86,798,768,843,412,876,34.48275862068966,-0.599,-0.32,-0.737
118769,1755607251841,37.0,-155.94,-21.86,788,770,838,392,875,33.333333333333336,-0.599,-0.322,-0.738
118799,1755607251843,36.96,-155.96,-21.87,791,771,839,346,880,33.333333333333336,-0.599,-0.321,-0.737
118828,1755607251845,36.96,-155.97,-21.87,794,773,840,375,876,34.48275862068966,-0.602,-0.321,-0.733
118858,1755607251847,36.98,-155.91,-21.85,794,775,840,391,875,33.333333333333336,-0.601,-0.322,-0.733
118888,1755607251849,36.98,-155.91,-21.84,795,784,839,395,881,33.333333333333336,-0.599,-0.323,-0.735
118918,1755607251851,36.95,-155.93,-21.85,790,773,833,366,881,33.333333333333336,-0.6,-0.319,-0.735
118947,1755607251853,36.95,-155.94,-21.84,792,773,840,351,876,34.48275862068966,-0.601,-0.318,-0.733
118977,1755607251855,36.97,-155.91,-21.84,795,770,839,392,873,33.333333333333336,-0.601,-0.322,-0.734
119006,1755607251857,36.95,-155.92,-21.82,790,769,838,404,875,34.48275862068966,-0.602,-0.323,-0.736
119036,1755607251860,36.98,-155.97,-21.81,793,777,836,400,878,33.333333333333336,-0.602,-0.321,-0.733
119066,1755607251862,37.01,-155.93,-21.79,795,773,839,355,910,33.333333333333336,-0.601,-0.319,-0.732
119095,1755607251864,37.07,-155.96,-21.79,792,767,835,352,875,34.48275862068966,-0.603,-0.32,-0.734
119125,1755607251866,37.08,-155.93,-21.76,792,771,841,398,874,33.333333333333336,-0.6,-0.32,-0.734
119155,1755607251868,37.1,-155.95,-21.76,797,774,840,401,879,33.333333333333336,-0.601,-0.321,-0.736
119184,1755607251870,37.08,-155.98,-21.76,795,778,841,354,876,34.48275862068966,-0.6,-0.32,-0.735
119214,1755607251872,37.12,-155.96,-21.77,796,773,842,306,872,33.333333333333336,-0.601,-0.319,-0.735
119244,1755607251874,37.11,-155.96,-21.77,796,780,844,368,878,33.333333333333336,-0.601,-0.322,-0.736
119274,1755607251876,37.07,-155.91,-21.75,790,773,835,407,878,33.333333333333336,-0.6,-0.319,-0.735
119303,1755607251878,37.07,-155.89,-21.76,795,774,837,388,876,34.48275862068966,-0.6,-0.318,-0.738
119333,1755607251880,37.09,-155.95,-21.78,792,769,838,347,875,33.333333333333336,-0.6,-0.32,-0.738
119362,1755607251882,37.07,-155.95,-21.76,790,772,840,344,874,34.48275862068966,-0.601,-0.321,-0.734
119383,1755607251885,37.07,-155.91,-21.75,796,767,838,385,876,47.61904761904762,-0.6,-0.321,-0.734
119412,1755607251886,37.09,-155.88,-21.71,795,771,837,366,881,34.48275862068966,-0.602,-0.321,-0.734
119442,1755607251889,37.14,-155.87,-21.65,795,781,843,397,872,33.333333333333336,-0.602,-0.321,-0.733
119472,1755607251891,37.16,-155.8,-21.58,796,765,833,404,875,33.333333333333336,-0.601,-0.321,-0.734
119501,1755607251892,37.11,-155.57,-21.4,797,773,840,357,878,34.48275862068966,-0.609,-0.328,-0.73
119531,1755607251894,36.88,-154.84,-21.04,792,779,836,337,874,33.333333333333336,-0.603,-0.329,-0.726
119560,1755607251896,36.7,-154.01,-20.74,799,778,838,387,872,34.48275862068966,-0.608,-0.331,-0.721
119590,1755607251898,36.27,-152.73,-20.19,800,772,833,394,880,33.333333333333336,-0.615,-0.337,-0.712
119619,1755607251900,35.79,-151.44,-19.72,796,765,835,381,876,34.48275862068966,-0.621,-0.337,-0.704
119649,1755607251902,35.7,-150.38,-19.34,800,768,824,332,873,33.333333333333336,-0.62,-0.342,-0.702
119679,1755607251904,35.94,-149.44,-19.11,800,768,829,339,866,33.333333333333336,-0.62,-0.345,-0.707
119709,1755607251906,35.89,-149.03,-18.89,804,773,822,372,864,33.333333333333336,-0.625,-0.349,-0.705
119739,1755607251909,35.81,-148.74,-18.85,802,773,824,390,860,33.333333333333336,-0.621,-0.355,-0.701
119759,1755607251911,35.79,-148.6,-18.82,798,774,819,375,865,50.0,-0.626,-0.363,-0.693
119789,1755607251913,35.84,-148.45,-18.75,804,772,819,403,861,33.333333333333336,-0.636,-0.367,-0.683
119809,1755607251915,35.99,-148.44,-18.67,800,776,824,365,863,50.0,-0.645,-0.373,-0.673
119838,1755607251917,36.33,-148.53,-18.58,802,773,816,394,860,34.48275862068966,-0.646,-0.377,-0.669
119868,1755607251919,36.66,-148.74,-18.51,801,773,824,373,857,33.333333333333336,-0.645,-0.38,-0.669
119898,1755607251921,36.87,-148.97,-18.52,800,770,817,343,863,33.333333333333336,-0.639,-0.379,-0.672
119928,1755607251923,36.97,-149.12,-18.55,802,771,819,368,859,33.333333333333336,-0.638,-0.379,-0.673
119958,1755607251925,36.96,-149.19,-18.51,801,776,823,405,861,33.333333333333336,-0.638,-0.381,-0.674
119987,1755607251926,36.96,-149.4,-18.52,800,772,819,385,858,34.48275862068966,-0.639,-0.38,-0.671
120017,1755607251929,37.05,-149.57,-18.53,802,774,814,307,863,33.333333333333336,-0.639,-0.38,-0.666
120046,1755607251931,37.14,-149.46,-18.47,800,788,818,324,859,34.48275862068966,-0.64,-0.381,-0.666
120076,1755607251933,37.24,-149.4,-18.4,800,774,821,378,870,33.333333333333336,-0.641,-0.383,-0.667
120105,1755607251935,37.38,-149.47,-18.39,801,775,820,402,858,34.48275862068966,-0.639,-0.381,-0.671
120135,1755607251937,37.51,-149.57,-18.41,800,788,817,368,857,33.333333333333336,-0.638,-0.378,-0.67
120165,1755607251939,37.61,-149.58,-18.41,802,771,818,359,860,33.333333333333336,-0.638,-0.378,-0.672
120195,1755607251941,37.63,-149.63,-18.4,801,772,820,359,857,33.333333333333336,-0.639,-0.38,-0.674
120225,1755607251943,37.67,-149.74,-18.42,802,778,819,380,859,33.333333333333336,-0.638,-0.378,-0.673
120255,1755607251945,37.75,-149.83,-18.44,800,775,813,390,857,33.333333333333336,-0.639,-0.375,-0.673
120284,1755607251947,37.81,-149.93,-18.45,800,773,812,334,856,34.48275862068966,-0.64,-0.376,-0.674
120314,1755607251949,37.83,-149.99,-18.44,796,768,817,344,861,33.333333333333336,-0.64,-0.376,-0.675
120344,1755607251951,37.87,-150.12,-18.48,801,776,817,356,854,33.333333333333336,-0.64,-0.375,-0.675
120373,1755607251953,37.89,-150.14,-18.52,803,774,817,379,858,34.48275862068966,-0.638,-0.373,-0.674
120403,1755607251955,37.95,-150.14,-18.54,801,767,815,379,855,33.333333333333336,-0.64,-0.373,-0.674
120433,1755607251957,38.04,-150.21,-18.54,799,776,817,357,867,33.333333333333336,-0.64,-0.374,-0.675
120462,1755607251959,38.11,-150.23,-18.53,800,774,813,366,858,34.48275862068966,-0.64,-0.374,-0.676
120492,1755607251961,38.16,-150.27,-18.53,804,773,812,388,859,33.333333333333336,-0.638,-0.372,-0.678
120522,1755607251964,38.2,-150.28,-18.56,802,778,816,402,858,33.333333333333336,-0.637,-0.371,-0.678
120552,1755607251965,38.24,-150.32,-18.55,795,774,813,381,853,33.333333333333336,-0.639,-0.372,-0.679
120572,1755607251968,38.27,-150.34,-18.53,799,778,815,395,857,50.0,-0.639,-0.373,-0.679
120601,1755607251969,38.29,-150.33,-18.53,795,767,817,365,858,34.48275862068966,-0.638,-0.371,-0.678
120631,1755607251972,38.33,-150.27,-18.51,800,779,820,359,857,33.333333333333336,-0.639,-0.37,-0.678
120660,1755607251974,38.39,-150.31,-18.53,801,792,816,380,858,34.48275862068966,-0.636,-0.371,-0.681
120690,1755607251976,38.4,-150.4,-18.53,799,781,818,414,881,33.333333333333336,-0.634,-0.371,-0.683
120719,1755607251977,38.43,-150.53,-18.55,797,768,813,389,859,34.48275862068966,-0.636,-0.37,-0.679
120749,1755607251980,38.44,-150.47,-18.54,797,772,817,362,858,33.333333333333336,-0.635,-0.367,-0.678
120779,1755607251982,38.46,-150.44,-18.54,799,774,812,361,861,33.333333333333336,-0.636,-0.369,-0.68
120808,1755607251985,38.49,-150.46,-18.55,799,773,815,406,856,34.48275862068966,-0.635,-0.371,-0.681
120838,1755607251987,38.47,-150.46,-18.54,799,771,813,410,855,33.333333333333336,-0.634,-0.37,-0.682
120858,1755607251989,38.47,-150.47,-18.54,799,773,818,384,859,50.0,-0.635,-0.369,-0.68
120887,1755607251991,38.51,-150.39,-18.52,802,772,810,379,858,34.48275862068966,-0.635,-0.369,-0.678
120917,1755607251993,38.61,-150.35,-18.49,798,780,815,356,856,33.333333333333336,-0.637,-0.371,-0.678
120946,1755607251995,38.66,-150.37,-18.47,794,771,816,357,853,34.48275862068966,-0.637,-0.37,-0.681
120967,1755607251997,38.67,-150.43,-18.47,794,772,816,383,864,47.61904761904762,-0.636,-0.369,-0.683
120996,1755607251998,38.67,-150.45,-18.47,802,778,818,364,857,34.48275862068966,-0.635,-0.369,-0.681
121026,1755607252000,38.71,-150.49,-18.49,801,778,811,387,859,33.333333333333336,-0.636,-0.37,-0.682
121056,1755607252002,38.73,-150.53,-18.49,804,774,807,403,858,33.333333333333336,-0.637,-0.369,-0.68
121085,1755607252004,38.75,-150.53,-18.48,800,777,812,381,855,34.48275862068966,-0.636,-0.371,-0.682
121115,1755607252006,38.77,-150.55,-18.46,796,775,810,361,858,33.333333333333336,-0.637,-0.371,-0.68
121145,1755607252008,38.79,-150.49,-18.43,797,768,814,375,856,33.333333333333336,-0.636,-0.369,-0.679
121174,1755607252010,38.85,-150.47,-18.43,801,769,815,396,854,34.48275862068966,-0.635,-0.371,-0.68
121204,1755607252012,38.89,-150.5,-18.43,795,776,815,399,856,33.333333333333336,-0.635,-0.371,-0.683
121234,1755607252014,38.85,-150.55,-18.42,804,772,815,356,853,33.333333333333336,-0.634,-0.37,-0.683
121263,1755607252016,38.86,-150.62,-18.44,798,778,814,361,858,34.48275862068966,-0.635,-0.37,-0.681
121293,1755607252018,38.89,-150.6,-18.42,802,776,814,395,852,33.333333333333336,-0.635,-0.371,-0.681
121323,1755607252021,38.91,-150.63,-18.42,801,771,817,393,862,33.333333333333336,-0.636,-0.37,-0.681
121352,1755607252023,38.93,-150.68,-18.42,799,787,812,373,851,34.48275862068966,-0.635,-0.37,-0.681
121382,1755607252025,38.92,-150.76,-18.44,798,777,817,338,851,33.333333333333336,-0.635,-0.369,-0.683
121412,1755607252027,38.88,-150.83,-18.46,797,774,814,368,855,33.333333333333336,-0.635,-0.369,-0.682
121441,1755607252029,38.86,-150.9,-18.49,800,775,812,408,852,34.48275862068966,-0.636,-0.366,-0.681
121471,1755607252032,38.88,-150.99,-18.52,800,775,814,398,855,33.333333333333336,-0.637,-0.368,-0.678
121500,1755607252034,38.97,-150.99,-18.52,799,775,810,358,858,34.48275862068966,-0.638,-0.367,-0.678
121530,1755607252036,39.02,-150.98,-18.52,797,778,814,362,857,33.333333333333336,-0.635,-0.367,-0.682
121560,1755607252038,39.0,-151.04,-18.55,801,776,819,387,856,33.333333333333336,-0.634,-0.366,-0.686
121589,1755607252039,38.97,-151.09,-18.59,798,768,815,411,857,34.48275862068966,-0.634,-0.365,-0.683
121610,1755607252041,38.95,-151.12,-18.59,801,776,818,389,857,47.61904761904762,-0.635,-0.365,-0.682
121639,1755607252044,38.99,-151.13,-18.58,799,777,818,392,853,34.48275862068966,-0.636,-0.367,-0.679
121669,1755607252046,39.06,-151.13,-18.57,797,774,819,375,858,33.333333333333336,-0.637,-0.366,-0.679
121699,1755607252048,39.11,-151.11,-18.57,796,790,818,328,857,33.333333333333336,-0.634,-0.366,-0.681
121728,1755607252050,39.14,-151.14,-18.58,802,774,817,347,863,34.48275862068966,-0.634,-0.365,-0.683
121758,1755607252052,39.14,-151.19,-18.61,801,774,815,394,860,33.333333333333336,-0.634,-0.365,-0.685
121788,1755607252054,39.12,-151.2,-18.61,802,772,814,403,858,33.333333333333336,-0.633,-0.367,-0.685
121808,1755607252056,39.1,-151.25,-18.62,799,772,814,379,862,50.0,-0.633,-0.369,-0.687
121838,1755607252058,39.1,-151.34,-18.6,802,777,814,378,856,33.333333333333336,-0.636,-0.367,-0.684
121867,1755607252060,39.11,-151.36,-18.54,800,776,813,352,854,34.48275862068966,-0.634,-0.364,-0.684
121897,1755607252062,39.14,-151.4,-18.55,801,766,812,338,850,33.333333333333336,-0.633,-0.365,-0.686
121926,1755607252065,39.13,-151.47,-18.56,803,775,810,375,854,34.48275862068966,-0.634,-0.364,-0.688
121956,1755607252067,39.1,-151.48,-18.56,802,773,815,400,852,33.333333333333336,-0.633,-0.361,-0.685
121985,1755607252068,39.13,-151.49,-18.56,800,769,817,372,852,34.48275862068966,-0.635,-0.361,-0.684
122015,1755607252070,39.17,-151.51,-18.55,800,778,817,357,851,33.333333333333336,-0.637,-0.361,-0.684
122045,1755607252073,39.2,-151.51,-18.55,801,774,817,360,852,33.333333333333336,-0.634,-0.362,-0.685
122065,1755607252075,39.21,-151.5,-18.55,802,772,810,344,856,50.0,-0.634,-0.362,-0.685
122094,1755607252077,39.22,-151.51,-18.54,797,776,815,375,855,34.48275862068966,-0.634,-0.36,-0.687
122124,1755607252078,39.23,-151.53,-18.54,800,771,811,393,855,33.333333333333336,-0.634,-0.361,-0.686
122153,1755607252080,39.26,-151.56,-18.52,799,786,810,393,858,34.48275862068966,-0.634,-0.36,-0.687
122174,1755607252082,39.3,-151.62,-18.52,801,775,819,386,852,47.61904761904762,-0.634,-0.359,-0.687
122203,1755607252085,39.35,-151.67,-18.48,802,778,819,382,855,34.48275862068966,-0.635,-0.36,-0.687
122233,1755607252109,39.4,-151.67,-18.47,801,782,816,365,855,33.333333333333336,-0.633,-0.359,-0.688
122263,1755607252140,39.42,-151.65,-18.44,801,777,814,368,859,33.333333333333336,-0.633,-0.358,-0.689
122283,1755607252159,39.44,-151.67,-18.43,798,770,814,391,856,50.0,-0.63,-0.358,-0.692
122313,1755607252189,39.42,-151.74,-18.43,800,775,814,384,849,33.333333333333336,-0.632,-0.357,-0.692
122342,1755607252219,39.41,-151.77,-18.43,801,768,818,396,858,34.48275862068966,-0.631,-0.357,-0.689
122363,1755607252238,39.42,-151.78,-18.43,803,777,811,353,859,47.61904761904762,-0.629,-0.357,-0.69
122392,1755607252268,39.42,-151.81,-18.44,805,769,813,390,858,34.48275862068966,-0.63,-0.358,-0.692
122422,1755607252298,39.45,-151.91,-18.45,801,773,815,392,853,33.333333333333336,-0.63,-0.357,-0.69
122452,1755607252328,39.44,-151.9,-18.45,795,771,810,380,857,33.333333333333336,-0.63,-0.356,-0.692
122481,1755607252357,39.43,-151.93,-18.45,799,772,814,362,854,34.48275862068966,-0.631,-0.356,-0.692
122511,1755607252387,39.44,-151.92,-18.45,799,776,816,390,857,33.333333333333336,-0.63,-0.357,-0.691
122540,1755607252416,39.45,-151.99,-18.46,801,773,816,405,853,34.48275862068966,-0.631,-0.356,-0.691
122570,1755607252446,39.48,-152.03,-18.45,802,767,812,374,853,33.333333333333336,-0.629,-0.356,-0.69
122599,1755607252475,39.49,-152.04,-18.46,802,774,814,355,855,34.48275862068966,-0.629,-0.355,-0.694
122629,1755607252505,39.43,-152.08,-18.46,796,771,825,313,855,33.333333333333336,-0.627,-0.356,-0.695
122659,1755607252535,39.43,-152.12,-18.48,797,776,813,360,861,33.333333333333336,-0.628,-0.355,-0.694
122689,1755607252564,39.42,-152.11,-18.48,797,776,815,397,856,33.333333333333336,-0.629,-0.355,-0.693
122718,1755607252594,39.43,-152.08,-18.47,802,768,814,371,857,34.48275862068966,-0.63,-0.354,-0.694
122748,1755607252624,39.4,-152.09,-18.49,799,773,811,341,862,33.333333333333336,-0.626,-0.354,-0.697
122768,1755607252644,39.37,-152.15,-18.51,796,773,815,385,859,50.0,-0.627,-0.355,-0.699
122798,1755607252674,39.32,-152.21,-18.52,800,780,810,364,850,33.333333333333336,-0.629,-0.355,-0.696
122827,1755607252703,39.32,-152.22,-18.53,798,771,819,385,856,34.48275862068966,-0.63,-0.355,-0.694
122857,1755607252733,39.33,-152.21,-18.51,796,771,829,407,857,33.333333333333336,-0.63,-0.356,-0.695
122886,1755607252762,39.33,-152.2,-18.48,800,776,814,411,880,34.48275862068966,-0.63,-0.355,-0.696
122916,1755607252792,39.31,-152.21,-18.49,798,779,812,358,855,33.333333333333336,-0.628,-0.353,-0.697
122946,1755607252822,39.27,-152.23,-18.51,798,778,813,356,855,33.333333333333336,-0.63,-0.353,-0.696
122975,1755607252851,39.25,-152.25,-18.53,799,781,813,402,849,34.48275862068966,-0.631,-0.354,-0.695
123005,1755607252881,39.21,-152.21,-18.52,801,775,817,399,857,33.333333333333336,-0.632,-0.354,-0.693
123035,1755607252910,39.24,-152.22,-18.5,796,773,816,369,858,33.333333333333336,-0.633,-0.355,-0.693
123064,1755607252940,39.3,-152.22,-18.49,794,768,821,343,854,34.48275862068966,-0.632,-0.354,-0.692
123094,1755607252970,39.32,-152.21,-18.49,799,772,812,378,858,33.333333333333336,-0.632,-0.354,-0.694
123123,1755607252999,39.3,-152.21,-18.49,801,776,816,408,858,34.48275862068966,-0.631,-0.354,-0.695
123153,1755607253029,39.3,-152.2,-18.51,799,774,813,385,857,33.333333333333336,-0.63,-0.353,-0.694
123183,1755607253059,39.29,-152.18,-18.5,796,777,816,358,851,33.333333333333336,-0.631,-0.355,-0.694
123213,1755607253089,39.32,-152.19,-18.5,797,771,818,359,856,33.333333333333336,-0.631,-0.354,-0.695
123242,1755607253118,39.3,-152.18,-18.51,800,775,817,397,863,34.48275862068966,-0.628,-0.353,-0.695
123272,1755607253148,39.27,-152.18,-18.53,802,773,818,396,858,33.333333333333336,-0.626,-0.354,-0.697
123301,1755607253178,39.24,-152.21,-18.55,801,774,816,360,853,34.48275862068966,-0.629,-0.356,-0.696
123331,1755607253207,39.24,-152.25,-18.53,799,777,814,342,856,33.333333333333336,-0.63,-0.355,-0.692
123361,1755607253237,39.29,-152.22,-18.52,799,776,814,364,855,33.333333333333336,-0.63,-0.353,-0.693
123391,1755607253267,39.29,-152.22,-18.51,798,772,816,412,852,33.333333333333336,-0.628,-0.355,-0.697
123420,1755607253296,39.22,-152.26,-18.52,801,778,817,394,856,34.48275862068966,-0.628,-0.355,-0.697
123450,1755607253326,39.18,-152.27,-18.52,800,773,817,364,857,33.333333333333336,-0.63,-0.355,-0.694
123479,1755607253355,39.19,-152.23,-18.51,801,767,818,355,856,34.48275862068966,-0.632,-0.354,-0.691
123509,1755607253385,39.21,-152.18,-18.51,797,767,813,397,857,33.333333333333336,-0.631,-0.354,-0.693
123539,1755607253415,39.18,-152.2,-18.52,803,771,814,401,853,33.333333333333336,-0.63,-0.356,-0.696
123568,1755607253444,39.15,-152.23,-18.53,799,773,810,388,857,34.48275862068966,-0.628,-0.357,-0.696
123598,1755607253474,39.14,-152.29,-18.55,799,786,813,319,855,33.333333333333336,-0.632,-0.354,-0.693
123628,1755607253504,39.13,-152.23,-18.55,799,773,816,356,853,33.333333333333336,-0.63,-0.354,-0.692
123657,1755607253533,39.16,-152.26,-18.55,799,774,813,392,854,34.48275862068966,-0.634,-0.358,-0.692
123687,1755607253563,39.19,-152.24,-18.52,795,779,816,384,854,33.333333333333336,-0.633,-0.356,-0.691
123716,1755607253592,39.23,-152.2,-18.52,797,772,817,360,857,34.48275862068966,-0.632,-0.355,-0.693
123746,1755607253622,39.2,-152.17,-18.53,800,773,815,355,855,33.333333333333336,-0.63,-0.356,-0.696
123776,1755607253652,39.16,-152.19,-18.55,801,774,815,400,858,33.333333333333336,-0.629,-0.356,-0.695
123805,1755607253681,39.13,-152.15,-18.56,795,769,817,404,855,34.48275862068966,-0.63,-0.358,-0.693
123835,1755607253711,39.12,-152.13,-18.56,795,767,816,367,854,33.333333333333336,-0.632,-0.358,-0.692
123865,1755607253741,39.12,-152.12,-18.55,800,778,816,358,856,33.333333333333336,-0.632,-0.357,-0.692
123895,1755607253770,39.14,-152.11,-18.54,796,776,816,371,849,33.333333333333336,-0.63,-0.358,-0.692
123924,1755607253800,39.15,-152.13,-18.55,796,775,819,390,856,34.48275862068966,-0.632,-0.359,-0.693
123954,1755607253830,39.11,-152.14,-18.52,802,778,819,384,870,33.333333333333336,-0.632,-0.358,-0.692
123983,1755607253859,39.15,-152.12,-18.52,802,776,816,344,853,34.48275862068966,-0.632,-0.357,-0.69
124013,1755607253889,39.15,-152.13,-18.51,799,776,817,339,859,33.333333333333336,-0.632,-0.358,-0.693
124033,1755607253909,39.14,-152.16,-18.51,799,773,810,332,851,50.0,-0.631,-0.358,-0.692
124063,1755607253939,39.16,-152.14,-18.51,799,779,814,346,854,33.333333333333336,-0.632,-0.356,-0.691
124093,1755607253969,39.18,-152.12,-18.51,802,770,815,392,856,33.333333333333336,-0.632,-0.357,-0.692
124122,1755607253998,39.17,-152.12,-18.51,799,778,815,362,853,34.48275862068966,-0.631,-0.358,-0.695
124152,1755607254028,39.15,-152.17,-18.51,798,774,821,338,852,33.333333333333336,-0.632,-0.358,-0.692
124181,1755607254057,39.2,-152.15,-18.52,799,780,817,335,851,34.48275862068966,-0.632,-0.356,-0.691
124211,1755607254087,39.21,-152.15,-18.51,798,772,814,372,856,33.333333333333336,-0.632,-0.358,-0.692
124241,1755607254116,39.21,-152.2,-18.54,799,772,818,406,857,33.333333333333336,-0.631,-0.358,-0.693
124270,1755607254146,39.2,-152.2,-18.54,802,772,812,394,857,34.48275862068966,-0.632,-0.357,-0.692
124300,1755607254176,39.2,-152.17,-18.53,795,773,816,368,854,33.333333333333336,-0.631,-0.357,-0.692
124329,1755607254205,39.2,-152.2,-18.54,796,773,817,364,863,34.48275862068966,-0.631,-0.359,-0.694
124359,1755607254235,39.18,-152.22,-18.54,796,773,808,404,854,33.333333333333336,-0.631,-0.358,-0.693
124388,1755607254264,39.17,-152.23,-18.54,797,769,817,401,857,34.48275862068966,-0.632,-0.357,-0.692
124418,1755607254294,39.16,-152.21,-18.53,798,772,814,366,853,33.333333333333336,-0.632,-0.356,-0.691
124447,1755607254323,39.16,-152.19,-18.54,800,776,814,360,853,34.48275862068966,-0.631,-0.358,-0.692
124477,1755607254353,39.14,-152.24,-18.54,801,776,809,380,849,33.333333333333336,-0.631,-0.358,-0.695
124507,1755607254383,39.13,-152.23,-18.54,793,777,812,399,856,33.333333333333336,-0.63,-0.357,-0.692
124537,1755607254413,39.16,-152.67,-18.54,799,776,811,392,855,33.333333333333336,-0.632,-0.358,-0.693
124567,1755607254442,39.15,-152.67,-18.52,802,775,817,353,859,33.333333333333336,-0.631,-0.356,-0.693
124596,1755607254472,39.17,-152.65,-18.52,802,775,817,347,851,34.48275862068966,-0.63,-0.356,-0.692
124626,1755607254501,39.18,-152.63,-18.54,797,778,813,394,851,33.333333333333336,-0.632,-0.355,-0.692
124655,1755607254531,39.16,-152.62,-18.54,800,780,819,401,856,34.48275862068966,-0.631,-0.355,-0.693
124685,1755607254561,39.18,-152.62,-18.54,796,778,804,377,858,33.333333333333336,-0.632,-0.357,-0.691
124714,1755607254590,39.2,-152.63,-18.54,796,773,817,353,854,34.48275862068966,-0.632,-0.358,-0.692
124744,1755607254620,39.17,-152.57,-18.51,800,773,817,367,858,33.333333333333336,-0.632,-0.356,-0.692
124774,1755607254650,39.18,-152.59,-18.53,799,777,813,396,854,33.333333333333336,-0.631,-0.357,-0.693
124803,1755607254679,39.15,-152.59,-18.52,798,774,810,380,850,34.48275862068966,-0.632,-0.357,-0.692
124833,1755607254709,39.18,-152.57,-18.52,796,773,814,352,853,33.333333333333336,-0.633,-0.357,-0.689
124862,1755607254739,39.17,-152.49,-18.48,801,772,817,369,854,34.48275862068966,-0.631,-0.357,-0.692
124892,1755607254768,39.14,-152.5,-18.48,799,774,814,395,850,33.333333333333336,-0.63,-0.357,-0.693
124922,1755607254798,39.1,-152.52,-18.49,802,782,813,398,859,33.333333333333336,-0.631,-0.356,-0.69
124952,1755607254828,39.08,-152.48,-18.48,801,773,835,378,852,33.333333333333336,-0.632,-0.355,-0.69
124982,1755607254857,39.08,-152.47,-18.48,811,766,814,367,853,33.333333333333336,-0.632,-0.357,-0.689
125011,1755607254887,39.08,-152.47,-18.47,795,769,814,382,857,34.48275862068966,-0.632,-0.358,-0.691
125041,1755607254917,39.04,-152.5,-18.49,796,769,814,395,853,33.333333333333336,-0.632,-0.356,-0.691
125071,1755607254947,39.04,-152.45,-18.48,803,772,818,381,855,33.333333333333336,-0.632,-0.356,-0.687
125101,1755607254977,39.07,-152.43,-18.48,800,776,816,340,856,33.333333333333336,-0.632,-0.357,-0.689
125130,1755607255006,39.03,-152.41,-18.49,794,771,815,340,859,34.48275862068966,-0.631,-0.357,-0.691
125160,1755607255036,39.01,-152.42,-18.52,797,790,817,386,855,33.333333333333336,-0.632,-0.357,-0.69
125189,1755607255065,38.98,-152.42,-18.55,799,774,814,406,857,34.48275862068966,-0.633,-0.357,-0.689
125219,1755607255095,38.98,-152.41,-18.59,800,775,816,373,853,33.333333333333336,-0.632,-0.356,-0.688
125248,1755607255124,39.02,-152.34,-18.6,801,779,814,357,853,34.48275862068966,-0.634,-0.359,-0.688
125278,1755607255154,39.06,-152.3,-18.54,801,772,811,375,854,33.333333333333336,-0.634,-0.364,-0.688
125308,1755607255184,39.13,-152.3,-18.49,800,772,814,404,855,33.333333333333336,-0.632,-0.36,-0.688
125337,1755607255213,39.09,-152.3,-18.52,801,779,820,403,849,34.48275862068966,-0.63,-0.352,-0.693
125367,1755607255243,38.95,-152.31,-18.59,799,779,818,378,856,33.333333333333336,-0.627,-0.354,-0.696
125396,1755607255273,38.83,-152.39,-18.63,797,778,817,353,851,34.48275862068966,-0.635,-0.36,-0.692
