timestamp_ms,recv_timestamp_ms,pitch,roll,yaw,flex1,flex2,flex3,flex4,flex5,sampling_hz,accel_x,accel_y,accel_z
195226,1755601951404,14.16,38.42,-6.78,783,835,811,441,870,33.333333333333336,-0.239,0.609,0.767
195255,1755601951406,14.17,38.42,-6.77,779,843,821,378,864,34.48275862068966,-0.238,0.609,0.767
195284,1755601951408,14.18,38.43,-6.77,788,847,820,267,865,34.48275862068966,-0.238,0.61,0.767
195314,1755601951410,14.18,38.43,-6.77,778,836,814,355,866,33.333333333333336,-0.237,0.61,0.766
195343,1755601951412,14.19,38.44,-6.79,784,839,819,450,872,34.48275862068966,-0.236,0.611,0.766
195372,1755601951414,14.18,38.44,-6.79,784,834,811,411,867,34.48275862068966,-0.237,0.611,0.766
195402,1755601951416,14.18,38.42,-6.81,776,835,807,302,868,33.333333333333336,-0.238,0.61,0.765
195431,1755601951418,14.16,38.42,-6.81,788,836,809,346,869,34.48275862068966,-0.239,0.61,0.766
195461,1755601951420,14.17,38.4,-6.82,781,836,810,432,881,33.333333333333336,-0.24,0.609,0.766
195491,1755601951423,14.16,38.38,-6.83,786,836,810,415,870,33.333333333333336,-0.239,0.608,0.767
195520,1755601951424,14.17,38.36,-6.86,785,834,809,292,871,34.48275862068966,-0.24,0.609,0.767
195550,1755601951426,14.15,38.36,-6.87,782,832,807,310,873,33.333333333333336,-0.239,0.608,0.767
195579,1755601951428,14.16,38.39,-6.88,786,838,811,380,869,34.48275862068966,-0.24,0.609,0.768
195609,1755601951430,14.15,38.4,-6.88,784,840,810,432,869,33.333333333333336,-0.239,0.61,0.766
195638,1755601951432,14.13,38.39,-6.91,785,838,810,331,868,34.48275862068966,-0.237,0.61,0.764
195658,1755601951434,14.12,38.36,-6.93,781,837,817,400,888,50.0,-0.238,0.609,0.764
195687,1755601951436,14.1,38.36,-6.95,780,836,806,332,862,34.48275862068966,-0.238,0.608,0.767
195717,1755601951438,14.1,38.38,-6.96,786,834,806,296,863,33.333333333333336,-0.241,0.609,0.768
195746,1755601951440,14.09,38.37,-6.97,787,838,807,371,873,34.48275862068966,-0.24,0.607,0.765
195776,1755601951442,14.1,38.37,-6.99,786,833,814,455,870,33.333333333333336,-0.24,0.607,0.765
195805,1755601951444,14.08,38.36,-6.98,778,824,810,403,868,34.48275862068966,-0.241,0.608,0.768
195835,1755601951446,14.08,38.37,-6.99,783,837,811,305,871,33.333333333333336,-0.24,0.607,0.767
195864,1755601951448,14.07,38.36,-7.0,786,838,821,363,874,34.48275862068966,-0.24,0.607,0.766
195893,1755601951450,14.06,38.36,-7.02,786,836,812,453,869,34.48275862068966,-0.241,0.607,0.766
195923,1755601951452,14.07,38.36,-7.02,783,839,803,416,869,33.333333333333336,-0.242,0.609,0.766
195952,1755601951454,14.08,38.38,-7.02,786,832,812,309,869,34.48275862068966,-0.241,0.609,0.766
195982,1755601951456,14.07,38.38,-7.03,785,837,801,334,868,33.333333333333336,-0.239,0.608,0.765
196011,1755601951459,14.07,38.37,-7.05,785,832,807,455,869,34.48275862068966,-0.239,0.608,0.765
196041,1755601951461,14.07,38.35,-7.06,788,840,814,423,864,33.333333333333336,-0.241,0.607,0.767
196071,1755601951462,14.08,38.37,-7.06,783,845,817,329,865,33.333333333333336,-0.243,0.608,0.767
196100,1755601951464,14.08,38.39,-7.04,781,831,808,298,869,34.48275862068966,-0.242,0.609,0.766
196130,1755601951467,14.08,38.37,-7.04,785,834,807,364,867,33.333333333333336,-0.241,0.608,0.764
196159,1755601951469,14.07,38.38,-7.04,782,831,814,455,869,34.48275862068966,-0.241,0.609,0.766
196189,1755601951471,14.1,38.44,-7.04,786,836,807,398,868,33.333333333333336,-0.241,0.609,0.768
196218,1755601951473,14.1,38.46,-7.03,780,834,813,294,868,34.48275862068966,-0.241,0.608,0.767
196248,1755601951475,14.12,38.49,-7.03,794,849,814,338,868,33.333333333333336,-0.241,0.61,0.766
196277,1755601951477,14.12,38.5,-7.02,786,841,811,449,868,34.48275862068966,-0.241,0.611,0.767
196307,1755601951479,14.13,38.51,-7.01,785,835,814,404,866,33.333333333333336,-0.24,0.61,0.766
196336,1755601951481,14.12,38.51,-7.01,789,836,814,297,863,34.48275862068966,-0.239,0.61,0.764
196365,1755601951483,14.11,38.48,-7.03,781,835,813,320,874,34.48275862068966,-0.238,0.611,0.764
196395,1755601951485,14.1,38.48,-7.04,779,835,815,435,869,33.333333333333336,-0.239,0.611,0.766
196424,1755601951486,14.11,38.48,-7.04,781,834,811,436,861,34.48275862068966,-0.24,0.61,0.768
196454,1755601951489,14.09,38.47,-7.05,787,825,813,296,865,33.333333333333336,-0.239,0.61,0.765
196483,1755601951490,14.08,38.44,-7.08,786,831,809,304,859,34.48275862068966,-0.238,0.61,0.764
196513,1755601951493,14.07,38.42,-7.1,786,835,801,380,865,33.333333333333336,-0.239,0.61,0.766
196542,1755601951495,14.07,38.45,-7.11,787,830,812,443,861,34.48275862068966,-0.24,0.61,0.767
196572,1755601951497,14.06,38.47,-7.13,783,842,813,384,867,33.333333333333336,-0.24,0.608,0.767
196601,1755601951499,14.06,38.43,-7.14,785,840,810,289,873,34.48275862068966,-0.241,0.608,0.766
196631,1755601951501,14.05,38.41,-7.15,783,842,817,342,871,33.333333333333336,-0.242,0.608,0.766
196661,1755601951503,14.05,38.45,-7.15,782,842,808,457,873,33.333333333333336,-0.241,0.609,0.767
196690,1755601951505,14.04,38.47,-7.15,785,836,813,426,861,34.48275862068966,-0.241,0.609,0.768
196720,1755601951507,14.04,38.44,-7.16,785,840,795,314,860,33.333333333333336,-0.24,0.608,0.767
196749,1755601951509,14.05,38.43,-7.18,782,839,811,320,873,34.48275862068966,-0.241,0.609,0.768
196779,1755601951511,14.08,38.43,-7.2,784,841,808,424,864,33.333333333333336,-0.241,0.609,0.769
196808,1755601951513,14.1,38.41,-7.21,780,833,807,428,868,34.48275862068966,-0.242,0.608,0.768
196838,1755601951515,14.09,38.38,-7.2,788,830,809,348,874,33.333333333333336,-0.242,0.606,0.766
196867,1755601951517,14.1,38.38,-7.2,792,846,813,314,873,34.48275862068966,-0.242,0.608,0.768
196897,1755601951519,14.1,38.44,-7.18,782,825,806,366,865,33.333333333333336,-0.242,0.608,0.769
196927,1755601951521,14.12,38.46,-7.19,786,838,814,448,868,33.333333333333336,-0.24,0.608,0.768
196956,1755601951523,14.12,38.46,-7.2,781,834,819,416,869,34.48275862068966,-0.24,0.608,0.766
196986,1755601951525,14.11,38.46,-7.19,785,836,813,307,877,33.333333333333336,-0.242,0.607,0.768
197015,1755601951527,14.13,38.48,-7.19,787,837,812,331,861,34.48275862068966,-0.242,0.608,0.769
197045,1755601951529,14.14,38.53,-7.18,786,837,814,451,867,33.333333333333336,-0.242,0.608,0.767
197074,1755601951531,14.15,38.51,-7.17,787,835,810,429,865,34.48275862068966,-0.241,0.608,0.765
197104,1755601951533,14.13,38.48,-7.17,783,831,808,330,877,33.333333333333336,-0.239,0.608,0.764
197133,1755601951535,14.13,38.51,-7.18,784,835,812,327,870,34.48275862068966,-0.238,0.609,0.766
197153,1755601951537,14.14,38.52,-7.19,787,832,810,383,865,50.0,-0.239,0.609,0.767
197183,1755601951540,14.13,38.51,-7.19,789,838,811,355,873,33.333333333333336,-0.24,0.606,0.764
197213,1755601951542,14.11,38.51,-7.17,795,841,817,411,869,33.333333333333336,-0.239,0.606,0.764
197242,1755601951544,14.14,38.5,-7.19,787,837,810,436,873,34.48275862068966,-0.239,0.608,0.766
197272,1755601951546,14.13,38.53,-7.19,782,836,807,331,872,33.333333333333336,-0.24,0.609,0.766
197301,1755601951548,14.14,38.52,-7.2,785,839,813,278,875,34.48275862068966,-0.239,0.608,0.764
197331,1755601951550,14.14,38.49,-7.21,784,833,814,313,867,33.333333333333336,-0.239,0.608,0.764
197360,1755601951552,14.16,38.48,-7.22,786,840,811,425,868,34.48275862068966,-0.241,0.609,0.765
197390,1755601951554,14.15,38.47,-7.21,786,837,821,393,872,33.333333333333336,-0.242,0.61,0.764
197419,1755601951556,14.13,38.49,-7.2,787,837,812,300,871,34.48275862068966,-0.24,0.609,0.764
197449,1755601951557,14.14,38.49,-7.21,784,836,811,336,861,33.333333333333336,-0.241,0.609,0.767
197478,1755601951560,14.16,38.51,-7.21,787,838,824,456,871,34.48275862068966,-0.242,0.609,0.766
197508,1755601951562,14.16,38.52,-7.21,778,830,815,418,874,33.333333333333336,-0.241,0.609,0.763
197537,1755601951564,14.15,38.47,-7.2,788,837,810,313,864,34.48275862068966,-0.24,0.609,0.763
197567,1755601951566,14.15,38.49,-7.2,788,840,814,320,865,33.333333333333336,-0.241,0.611,0.766
197597,1755601951568,14.16,38.52,-7.21,783,841,812,385,868,33.333333333333336,-0.24,0.611,0.766
197626,1755601951569,14.16,38.55,-7.21,783,842,812,455,871,34.48275862068966,-0.239,0.61,0.763
197656,1755601951572,14.15,38.52,-7.22,788,839,809,396,863,33.333333333333336,-0.241,0.609,0.761
197676,1755601951574,14.14,38.49,-7.22,785,828,804,426,866,50.0,-0.243,0.61,0.762
197705,1755601951576,14.13,38.5,-7.21,789,832,816,372,872,34.48275862068966,-0.243,0.61,0.766
197735,1755601951578,14.14,38.52,-7.21,785,845,804,258,866,33.333333333333336,-0.241,0.61,0.767
197764,1755601951580,14.14,38.53,-7.22,785,842,814,347,876,34.48275862068966,-0.24,0.611,0.765
197794,1755601951582,14.13,38.5,-7.23,782,835,806,451,869,33.333333333333336,-0.24,0.609,0.764
197823,1755601951584,14.12,38.48,-7.24,785,833,814,413,871,34.48275862068966,-0.242,0.61,0.764
197853,1755601951586,14.11,38.53,-7.23,785,841,813,308,880,33.333333333333336,-0.242,0.611,0.767
197882,1755601951588,14.11,38.55,-7.23,783,825,812,337,863,34.48275862068966,-0.24,0.611,0.766
197912,1755601951590,14.11,38.52,-7.26,784,839,804,430,870,33.333333333333336,-0.239,0.611,0.762
197941,1755601951592,14.09,38.49,-7.27,785,833,809,409,875,34.48275862068966,-0.239,0.611,0.763
197971,1755601951594,14.08,38.49,-7.29,780,834,809,336,868,33.333333333333336,-0.241,0.612,0.766
198001,1755601951596,14.08,38.51,-7.29,786,840,816,299,868,33.333333333333336,-0.242,0.61,0.767
198030,1755601951598,14.09,38.5,-7.28,784,842,798,383,860,34.48275862068966,-0.241,0.609,0.765
198059,1755601951600,14.07,38.47,-7.28,785,830,803,445,861,34.48275862068966,-0.24,0.61,0.765
198089,1755601951602,14.08,38.45,-7.28,788,837,812,393,867,33.333333333333336,-0.239,0.61,0.767
198119,1755601951604,14.08,38.45,-7.29,786,844,808,305,866,33.333333333333336,-0.24,0.609,0.768
198148,1755601951606,14.08,38.44,-7.29,780,835,812,349,874,34.48275862068966,-0.241,0.608,0.768
198177,1755601951607,14.08,38.44,-7.29,786,838,817,449,865,34.48275862068966,-0.241,0.608,0.768
198207,1755601951610,14.09,38.45,-7.29,787,836,801,417,866,33.333333333333336,-0.241,0.609,0.768
198237,1755601951611,14.09,38.46,-7.29,783,834,803,309,871,33.333333333333336,-0.24,0.609,0.767
198266,1755601951614,14.08,38.45,-7.29,782,834,812,330,872,34.48275862068966,-0.239,0.61,0.767
198295,1755601951616,14.07,38.45,-7.3,781,827,812,441,869,34.48275862068966,-0.239,0.61,0.768
198325,1755601951617,14.07,38.47,-7.3,783,827,811,436,863,33.333333333333336,-0.24,0.61,0.768
198355,1755601951620,14.07,38.49,-7.3,785,840,806,348,868,33.333333333333336,-0.24,0.61,0.767
198384,1755601951622,14.08,38.48,-7.3,785,837,811,321,871,34.48275862068966,-0.239,0.61,0.766
198414,1755601951624,14.08,38.46,-7.3,785,839,813,397,867,33.333333333333336,-0.238,0.61,0.767
198443,1755601951626,14.09,38.43,-7.32,784,837,808,445,868,34.48275862068966,-0.238,0.61,0.768
198473,1755601951628,14.08,38.44,-7.34,787,836,817,398,862,33.333333333333336,-0.238,0.61,0.767
198503,1755601951630,14.06,38.46,-7.34,779,839,807,310,871,33.333333333333336,-0.239,0.609,0.766
198532,1755601951632,14.07,38.43,-7.34,785,836,817,347,860,34.48275862068966,-0.241,0.609,0.767
198562,1755601951634,14.07,38.42,-7.32,783,835,802,469,872,33.333333333333336,-0.242,0.609,0.767
198591,1755601951636,14.06,38.44,-7.3,785,832,807,427,875,34.48275862068966,-0.24,0.61,0.767
198620,1755601951638,14.05,38.44,-7.3,787,838,812,319,870,34.48275862068966,-0.237,0.61,0.767
198650,1755601951641,14.05,38.43,-7.32,789,841,811,330,873,33.333333333333336,-0.237,0.609,0.767
198679,1755601951643,14.05,38.43,-7.33,788,838,811,422,880,34.48275862068966,-0.239,0.609,0.768
198709,1755601951644,14.05,38.44,-7.32,782,835,808,440,870,33.333333333333336,-0.24,0.61,0.768
198739,1755601951646,14.03,38.46,-7.32,791,840,817,370,866,33.333333333333336,-0.239,0.61,0.766
198768,1755601951649,14.02,38.43,-7.34,784,836,814,307,872,34.48275862068966,-0.238,0.609,0.766
198797,1755601951651,14.02,38.44,-7.35,787,844,810,358,864,34.48275862068966,-0.238,0.609,0.768
198827,1755601951653,14.02,38.45,-7.36,780,844,808,460,873,33.333333333333336,-0.239,0.61,0.769
198856,1755601951655,14.03,38.46,-7.37,786,837,814,410,868,34.48275862068966,-0.239,0.609,0.767
198886,1755601951657,14.03,38.44,-7.37,785,841,813,292,871,33.333333333333336,-0.239,0.609,0.766
198916,1755601951659,14.02,38.39,-7.39,781,833,815,318,868,33.333333333333336,-0.24,0.61,0.767
198945,1755601951660,13.98,38.39,-7.38,785,842,818,457,864,34.48275862068966,-0.241,0.609,0.771
198975,1755601951663,13.88,38.43,-7.31,781,831,812,425,862,33.333333333333336,-0.241,0.608,0.779
199004,1755601951664,13.61,38.59,-7.1,783,837,807,317,875,34.48275862068966,-0.247,0.616,0.785
199024,1755601951666,13.5,38.69,-6.91,787,835,811,424,875,50.0,-0.25,0.615,0.8
199054,1755601951668,13.05,39.27,-6.84,790,840,816,334,863,33.333333333333336,-0.254,0.638,0.799
199084,1755601951670,13.05,39.77,-6.88,787,834,814,328,874,33.333333333333336,-0.245,0.638,0.781
199113,1755601951672,13.35,39.64,-7.01,792,832,824,430,874,34.48275862068966,-0.231,0.629,0.757
199142,1755601951674,13.34,39.16,-6.94,785,836,826,432,875,34.48275862068966,-0.226,0.62,0.739
199172,1755601951676,13.12,38.6,-6.9,784,836,823,357,872,33.333333333333336,-0.217,0.621,0.725
199201,1755601951678,13.11,37.6,-7.03,786,858,828,301,878,34.48275862068966,-0.22,0.618,0.729
199231,1755601951681,13.22,36.95,-7.05,784,841,834,383,873,33.333333333333336,-0.226,0.609,0.749
199260,1755601951682,13.31,36.73,-7.01,790,839,828,458,871,34.48275862068966,-0.226,0.602,0.776
199290,1755601951685,13.46,36.86,-6.97,787,835,826,370,882,33.333333333333336,-0.225,0.6,0.789
199319,1755601951687,13.7,37.01,-6.83,789,834,825,293,885,34.48275862068966,-0.222,0.598,0.792
199349,1755601951689,13.91,37.09,-6.75,790,843,832,350,877,33.333333333333336,-0.212,0.595,0.784
199378,1755601951690,14.39,37.06,-7.07,787,833,825,458,874,34.48275862068966,-0.208,0.593,0.776
199408,1755601951693,14.92,36.96,-7.33,785,838,826,427,879,33.333333333333336,-0.216,0.593,0.775
199437,1755601951695,15.19,36.86,-7.47,784,829,822,334,884,34.48275862068966,-0.226,0.588,0.781
199467,1755601951697,15.54,36.91,-7.7,781,840,826,328,880,33.333333333333336,-0.24,0.586,0.787
199496,1755601951699,16.09,37.05,-7.89,786,840,833,412,873,34.48275862068966,-0.254,0.586,0.786
199526,1755601951701,16.45,37.11,-7.97,782,835,828,446,866,33.333333333333336,-0.266,0.58,0.785
199555,1755601951703,16.73,37.2,-8.02,785,838,830,367,874,34.48275862068966,-0.272,0.581,0.78
199585,1755601951705,17.07,37.19,-8.13,788,839,823,299,875,33.333333333333336,-0.278,0.579,0.779
199615,1755601951707,17.35,37.19,-8.19,792,841,824,351,876,33.333333333333336,-0.279,0.579,0.774
199644,1755601951709,17.56,37.2,-8.28,790,838,821,443,877,34.48275862068966,-0.279,0.581,0.766
199674,1755601951711,17.89,37.21,-8.47,785,831,840,416,883,33.333333333333336,-0.28,0.584,0.762
199703,1755601951713,18.3,37.25,-8.68,789,838,828,295,883,34.48275862068966,-0.287,0.587,0.763
199733,1755601951715,18.69,37.26,-8.93,787,841,836,341,896,33.333333333333336,-0.291,0.585,0.76
199762,1755601951717,19.06,37.28,-9.24,787,835,823,452,874,34.48275862068966,-0.299,0.582,0.757
199792,1755601951719,19.43,37.33,-9.53,788,827,820,428,876,33.333333333333336,-0.31,0.58,0.776
199821,1755601951721,19.9,37.66,-9.72,786,831,830,339,875,34.48275862068966,-0.32,0.577,0.791
199851,1755601951723,20.36,38.19,-9.96,785,839,820,294,876,33.333333333333336,-0.336,0.582,0.784
199880,1755601951725,20.82,38.73,-10.07,784,832,822,379,871,34.48275862068966,-0.35,0.579,0.756
199910,1755601951727,21.27,38.88,-10.15,784,833,826,450,880,33.333333333333336,-0.368,0.575,0.719
199939,1755601951729,21.52,38.8,-10.18,779,827,820,383,878,34.48275862068966,-0.368,0.59,0.734
199969,1755601951731,21.6,38.96,-10.18,781,836,823,294,870,33.333333333333336,-0.357,0.595,0.738
199999,1755601951733,22.09,39.09,-10.27,783,824,814,341,869,33.333333333333336,-0.371,0.594,0.729
200028,1755601951734,22.36,39.02,-10.23,780,829,814,448,870,34.48275862068966,-0.389,0.589,0.717
200058,1755601951736,22.28,39.0,-10.03,784,834,823,423,875,33.333333333333336,-0.393,0.588,0.704
200078,1755601951738,22.25,39.05,-9.89,785,832,818,419,872,50.0,-0.389,0.586,0.704
200107,1755601951740,22.42,38.93,-9.79,783,833,817,401,876,34.48275862068966,-0.389,0.595,0.707
200137,1755601951742,22.56,38.84,-9.62,786,838,819,287,870,33.333333333333336,-0.389,0.596,0.708
200167,1755601951745,22.73,38.28,-9.55,774,835,820,314,872,33.333333333333336,-0.378,0.585,0.673
200196,1755601951746,22.63,38.22,-9.44,781,835,821,413,874,34.48275862068966,-0.384,0.595,0.701
200226,1755601951749,22.47,38.51,-9.41,781,827,816,438,869,33.333333333333336,-0.377,0.606,0.726
200256,1755601951751,22.78,38.7,-9.5,786,836,819,374,878,33.333333333333336,-0.378,0.597,0.714
200285,1755601951753,23.04,38.55,-9.56,781,825,818,308,872,34.48275862068966,-0.387,0.586,0.731
200315,1755601951755,23.0,39.15,-9.22,780,830,817,314,870,33.333333333333336,-0.402,0.59,0.731
200344,1755601951757,22.67,40.02,-8.59,785,833,815,441,873,34.48275862068966,-0.403,0.595,0.702
200374,1755601951759,22.7,40.1,-8.28,777,825,810,419,881,33.333333333333336,-0.395,0.604,0.681
200403,1755601951761,22.83,39.23,-8.06,780,825,815,324,900,34.48275862068966,-0.383,0.601,0.656
200433,1755601951763,22.75,37.94,-8.05,775,819,816,348,893,33.333333333333336,-0.369,0.594,0.665
200462,1755601951765,22.61,37.73,-7.81,784,830,815,421,937,34.48275862068966,-0.373,0.608,0.709
200492,1755601951767,22.67,38.21,-7.44,785,828,808,410,903,33.333333333333336,-0.396,0.608,0.712
200521,1755601951769,22.78,38.03,-7.14,785,835,810,333,915,34.48275862068966,-0.399,0.595,0.698
200551,1755601951771,22.38,37.8,-6.72,790,837,820,296,919,33.333333333333336,-0.378,0.594,0.697
200580,1755601951773,22.32,37.52,-6.34,783,822,812,411,933,34.48275862068966,-0.363,0.61,0.713
200609,1755601951775,22.27,36.98,-6.44,784,828,810,442,930,34.48275862068966,-0.339,0.613,0.711
200639,1755601951777,22.38,36.23,-6.74,788,830,810,338,938,33.333333333333336,-0.328,0.612,0.71
200669,1755601951779,22.4,35.58,-6.95,789,833,814,248,934,33.333333333333336,-0.339,0.601,0.727
200698,1755601951781,22.43,34.97,-7.17,780,821,808,333,938,34.48275862068966,-0.351,0.587,0.73
200728,1755601951783,22.75,34.3,-7.6,785,830,814,456,944,33.333333333333336,-0.354,0.582,0.735
200758,1755601951785,23.0,33.62,-7.96,792,828,816,389,934,33.333333333333336,-0.357,0.566,0.741
200787,1755601951786,23.35,32.91,-8.32,790,826,809,318,937,34.48275862068966,-0.365,0.56,0.754
200816,1755601951788,23.78,32.43,-8.6,779,823,812,322,957,34.48275862068966,-0.364,0.544,0.764
200846,1755601951790,24.47,32.04,-8.98,782,825,809,429,932,33.333333333333336,-0.366,0.532,0.767
200875,1755601951792,25.77,31.58,-9.34,781,820,809,437,932,34.48275862068966,-0.39,0.522,0.769
200904,1755601951794,26.42,31.25,-9.68,786,823,813,293,935,34.48275862068966,-0.409,0.507,0.773
200934,1755601951796,26.63,31.21,-9.66,789,822,819,283,937,33.333333333333336,-0.416,0.485,0.77
200954,1755601951798,26.71,31.31,-9.51,785,820,810,370,940,50.0,-0.439,0.479,0.77
200984,1755601951800,27.07,31.25,-9.6,788,815,828,323,945,33.333333333333336,-0.461,0.477,0.771
201013,1755601951802,27.59,31.36,-9.54,790,824,816,435,936,34.48275862068966,-0.493,0.482,0.771
201043,1755601951804,27.14,31.87,-8.84,786,817,811,473,932,33.333333333333336,-0.483,0.494,0.789
201072,1755601951806,27.18,32.21,-8.51,788,820,816,400,932,34.48275862068966,-0.442,0.49,0.761
201102,1755601951809,27.64,32.37,-8.46,789,809,806,301,934,33.333333333333336,-0.443,0.494,0.744
201131,1755601951811,27.45,32.69,-8.03,793,819,808,339,934,34.48275862068966,-0.45,0.5,0.751
201161,1755601951812,27.08,33.33,-7.63,787,826,819,463,940,33.333333333333336,-0.424,0.507,0.756
201191,1755601951814,27.27,33.79,-7.95,791,827,808,417,920,33.333333333333336,-0.404,0.51,0.747
201220,1755601951816,28.19,33.76,-8.68,784,820,816,298,932,34.48275862068966,-0.423,0.504,0.72
201250,1755601951818,28.64,33.5,-9.24,794,825,810,310,932,33.333333333333336,-0.442,0.49,0.698
201279,1755601951820,28.94,33.24,-9.72,804,821,814,437,932,34.48275862068966,-0.466,0.492,0.686
201309,1755601951822,29.05,32.63,-10.1,784,825,813,434,919,33.333333333333336,-0.473,0.484,0.699
201338,1755601951824,29.15,32.24,-10.44,787,827,808,324,910,34.48275862068966,-0.475,0.487,0.715
201367,1755601951825,29.79,31.76,-10.79,790,820,813,290,934,34.48275862068966,-0.504,0.493,0.731
201388,1755601951827,29.83,31.48,-10.68,791,820,806,357,927,47.61904761904762,-0.525,0.489,0.74
201417,1755601951829,29.48,31.39,-10.32,790,822,814,331,929,34.48275862068966,-0.521,0.472,0.737
201446,1755601951832,29.55,31.37,-9.84,795,814,814,420,928,34.48275862068966,-0.553,0.472,0.733
201476,1755601951833,28.95,31.89,-9.32,817,822,813,441,920,33.333333333333336,-0.537,0.468,0.742
201506,1755601951835,28.36,31.74,-8.85,828,831,819,366,915,33.333333333333336,-0.525,0.462,0.715
201536,1755601951838,27.88,31.83,-8.5,833,826,809,282,922,33.333333333333336,-0.49,0.462,0.712
201566,1755601951840,27.09,32.07,-8.4,834,817,815,326,931,33.333333333333336,-0.452,0.491,0.73
201595,1755601951842,26.91,31.74,-8.56,836,823,812,475,919,34.48275862068966,-0.473,0.497,0.752
201625,1755601951844,26.96,31.72,-8.52,839,831,815,448,927,33.333333333333336,-0.515,0.48,0.754
201654,1755601951847,27.22,31.81,-8.15,840,820,814,317,922,34.48275862068966,-0.528,0.459,0.749
201684,1755601951849,27.07,32.2,-7.6,824,817,818,313,922,33.333333333333336,-0.421,0.47,0.78
201713,1755601951851,26.74,32.85,-7.76,824,833,823,404,924,34.48275862068966,-0.382,0.5,0.793
201743,1755601951853,26.56,32.75,-7.74,813,828,816,464,924,33.333333333333336,-0.406,0.481,0.761
201763,1755601951855,26.42,32.78,-7.75,806,820,821,347,928,50.0,-0.439,0.464,0.735
201793,1755601951857,26.18,32.98,-7.56,822,828,827,420,925,33.333333333333336,-0.464,0.471,0.745
201822,1755601951859,25.51,33.52,-7.26,831,835,824,356,936,34.48275862068966,-0.47,0.482,0.746
201852,1755601951861,25.01,33.96,-7.1,824,823,830,299,932,33.333333333333336,-0.452,0.501,0.746
201882,1755601951863,24.79,34.08,-6.93,825,826,840,343,916,33.333333333333336,-0.447,0.515,0.744
201911,1755601951865,24.47,34.28,-6.93,826,824,845,468,916,34.48275862068966,-0.438,0.525,0.747
201941,1755601951867,24.13,34.56,-6.89,819,822,844,418,917,33.333333333333336,-0.432,0.528,0.747
201970,1755601951870,23.76,34.52,-7.07,821,826,845,288,920,34.48275862068966,-0.426,0.531,0.745
202000,1755601951872,23.8,34.39,-7.41,824,821,853,297,916,33.333333333333336,-0.404,0.513,0.751
202020,1755601951874,24.02,34.34,-7.8,831,821,852,333,922,50.0,-0.388,0.499,0.751
202049,1755601951876,24.45,34.64,-8.35,825,822,856,357,918,34.48275862068966,-0.409,0.511,0.761
202079,1755601951877,24.41,34.72,-8.59,827,811,848,498,918,33.333333333333336,-0.412,0.521,0.773
202109,1755601951879,24.26,35.18,-8.58,829,808,843,480,925,33.333333333333336,-0.413,0.51,0.766
202138,1755601951881,24.59,35.55,-8.77,829,813,854,308,910,34.48275862068966,-0.412,0.526,0.756
202168,1755601951884,24.66,36.07,-8.67,831,830,851,275,913,33.333333333333336,-0.42,0.532,0.765
202197,1755601951886,24.57,36.72,-8.46,833,821,847,342,917,34.48275862068966,-0.425,0.535,0.761
202227,1755601951889,24.68,37.19,-8.33,828,818,851,442,908,33.333333333333336,-0.433,0.552,0.749
202256,1755601951891,24.83,37.76,-7.95,833,826,844,376,906,34.48275862068966,-0.452,0.552,0.743
202286,1755601951893,24.63,38.71,-7.37,833,836,842,309,908,33.333333333333336,-0.435,0.553,0.732
202315,1755601951895,24.66,39.2,-7.25,836,826,839,336,915,34.48275862068966,-0.408,0.567,0.718
202345,1755601951897,24.85,39.54,-7.45,831,827,838,448,913,33.333333333333336,-0.404,0.576,0.709
202365,1755601951899,24.97,39.74,-7.72,835,826,837,314,919,50.0,-0.395,0.579,0.701
202395,1755601951901,25.1,40.1,-8.69,844,818,843,452,898,33.333333333333336,-0.387,0.579,0.687
202424,1755601951903,25.3,40.2,-9.59,834,822,834,420,901,34.48275862068966,-0.433,0.588,0.696
202454,1755601951905,25.08,40.52,-9.73,829,829,836,295,904,33.333333333333336,-0.432,0.583,0.693
202483,1755601951907,24.7,40.73,-9.54,829,821,839,320,905,34.48275862068966,-0.422,0.582,0.684
202513,1755601951909,24.79,41.03,-9.54,824,819,836,455,900,33.333333333333336,-0.431,0.599,0.675
202542,1755601951911,24.56,40.75,-9.57,826,817,834,473,891,34.48275862068966,-0.429,0.599,0.668
202572,1755601951913,24.17,40.31,-9.64,831,816,825,368,902,33.333333333333336,-0.425,0.6,0.662
202602,1755601951915,24.06,40.3,-9.52,822,806,828,303,909,33.333333333333336,-0.429,0.599,0.673
202632,1755601951917,23.76,40.45,-9.16,825,810,827,354,897,33.333333333333336,-0.449,0.611,0.695
202661,1755601951919,23.63,40.53,-8.88,826,811,810,477,896,34.48275862068966,-0.441,0.603,0.703
202691,1755601951921,23.77,40.95,-8.53,830,808,820,424,907,33.333333333333336,-0.443,0.6,0.713
202720,1755601951923,23.78,41.47,-7.95,825,808,815,262,899,34.48275862068966,-0.434,0.608,0.705
202750,1755601951925,23.78,41.68,-7.58,828,811,818,302,899,33.333333333333336,-0.42,0.614,0.687
202779,1755601951927,23.73,41.89,-7.2,825,809,815,473,895,34.48275862068966,-0.404,0.615,0.671
202809,1755601951929,23.53,41.76,-6.95,825,813,820,473,902,33.333333333333336,-0.401,0.617,0.666
202838,1755601951932,23.43,41.61,-6.92,827,813,817,319,880,34.48275862068966,-0.403,0.62,0.677
202868,1755601951934,23.31,41.61,-6.85,821,830,832,295,890,33.333333333333336,-0.409,0.626,0.688
202897,1755601951935,23.12,41.66,-6.87,822,838,841,378,900,34.48275862068966,-0.395,0.636,0.692
202927,1755601951938,22.9,41.63,-6.99,826,845,852,475,896,33.333333333333336,-0.38,0.634,0.687
202957,1755601951940,22.6,41.46,-7.17,823,882,864,408,895,33.333333333333336,-0.371,0.628,0.68
202986,1755601951942,22.48,41.26,-7.48,822,881,871,279,890,34.48275862068966,-0.39,0.634,0.675
203016,1755601951944,22.33,41.2,-7.33,822,888,882,318,899,33.333333333333336,-0.405,0.624,0.683
203045,1755601951946,22.09,41.36,-7.1,819,894,886,463,903,34.48275862068966,-0.395,0.63,0.677
203075,1755601951948,22.02,41.37,-6.99,819,882,884,448,903,33.333333333333336,-0.388,0.64,0.68
203105,1755601951950,22.0,41.3,-6.83,823,889,877,341,902,33.333333333333336,-0.373,0.615,0.679
203125,1755601951952,21.85,41.35,-6.78,818,878,882,454,904,50.0,-0.357,0.614,0.672
203155,1755601951954,21.85,41.06,-6.81,822,880,878,353,890,33.333333333333336,-0.353,0.608,0.687
203184,1755601951956,21.8,41.16,-6.78,816,881,878,270,901,34.48275862068966,-0.354,0.611,0.696
203214,1755601951958,21.71,41.19,-6.75,817,879,875,344,898,33.333333333333336,-0.347,0.615,0.695
203243,1755601951960,21.59,41.13,-6.84,821,880,869,418,897,34.48275862068966,-0.349,0.62,0.695
203273,1755601951962,21.42,40.84,-6.92,813,875,864,373,901,33.333333333333336,-0.351,0.629,0.685
203302,1755601951964,21.29,40.66,-7.13,823,882,868,291,903,34.48275862068966,-0.348,0.627,0.676
203332,1755601951966,21.67,40.15,-7.76,820,881,872,335,894,33.333333333333336,-0.363,0.631,0.682
203362,1755601951968,22.0,39.48,-8.31,814,878,864,464,897,33.333333333333336,-0.378,0.616,0.691
203391,1755601951970,22.09,38.91,-8.49,818,881,870,423,895,34.48275862068966,-0.38,0.605,0.702
203421,1755601951972,22.13,38.29,-8.82,821,880,884,334,890,33.333333333333336,-0.373,0.601,0.704
203451,1755601951974,22.13,37.45,-9.24,816,875,866,329,893,33.333333333333336,-0.371,0.601,0.704
203481,1755601951976,22.09,36.66,-9.66,820,881,862,394,902,33.333333333333336,-0.364,0.577,0.717
203510,1755601951978,22.11,36.29,-9.97,820,882,869,457,902,34.48275862068966,-0.382,0.57,0.727
203539,1755601951980,22.13,35.82,-10.12,820,873,867,348,903,34.48275862068966,-0.404,0.559,0.749
203569,1755601951982,21.89,35.61,-10.06,819,878,867,255,898,33.333333333333336,-0.409,0.54,0.761
203598,1755601951984,21.82,35.46,-9.99,822,880,865,272,885,34.48275862068966,-0.403,0.531,0.752
203628,1755601951987,22.11,35.15,-10.26,822,873,867,409,910,33.333333333333336,-0.402,0.53,0.758
203658,1755601951988,22.36,35.15,-10.31,822,870,873,400,902,33.333333333333336,-0.413,0.52,0.775
203687,1755601951991,22.49,35.52,-10.21,825,877,864,289,908,34.48275862068966,-0.414,0.522,0.786
203716,1755601951992,22.69,36.02,-10.01,811,879,867,306,905,34.48275862068966,-0.414,0.521,0.787
203746,1755601951994,22.78,36.61,-9.62,815,873,877,417,911,33.333333333333336,-0.405,0.527,0.779
203775,1755601951996,22.7,36.98,-9.48,827,879,868,432,904,34.48275862068966,-0.394,0.526,0.764
203804,1755601951998,22.75,36.97,-9.58,825,873,847,310,907,34.48275862068966,-0.385,0.527,0.753
203834,1755601952000,22.73,36.81,-9.72,816,873,871,302,908,33.333333333333336,-0.388,0.528,0.751
203863,1755601952002,22.63,36.72,-9.81,813,870,861,420,909,34.48275862068966,-0.397,0.53,0.753
203892,1755601952004,22.57,36.8,-9.91,818,876,861,451,914,34.48275862068966,-0.403,0.531,0.756
203922,1755601952006,22.58,36.92,-9.97,818,876,872,347,900,33.333333333333336,-0.406,0.527,0.759
203951,1755601952009,22.58,37.03,-10.15,818,878,869,299,898,34.48275862068966,-0.395,0.53,0.753
