timestamp_ms,recv_timestamp_ms,pitch,roll,yaw,flex1,flex2,flex3,flex4,flex5,sampling_hz,accel_x,accel_y,accel_z
189895,1755598506608,60.24,-64.72,-8.36,771,766,860,918,909,34.48275862068966,-0.864,-0.45,0.211
189925,1755598506611,60.2,-64.76,-8.4,765,772,859,917,897,33.333333333333336,-0.864,-0.452,0.21
189954,1755598506613,60.15,-64.81,-8.41,763,774,866,925,896,34.48275862068966,-0.869,-0.458,0.211
189984,1755598506615,60.16,-64.81,-8.37,768,765,857,923,905,33.333333333333336,-0.869,-0.458,0.214
190013,1755598506617,60.15,-64.78,-8.35,766,767,864,922,896,34.48275862068966,-0.864,-0.453,0.214
190043,1755598506619,60.13,-64.77,-8.39,765,767,853,919,902,33.333333333333336,-0.866,-0.453,0.212
190073,1755598506621,60.1,-64.78,-8.39,774,771,860,916,897,33.333333333333336,-0.87,-0.457,0.21
190102,1755598506623,60.11,-64.75,-8.35,767,773,858,921,902,34.48275862068966,-0.869,-0.458,0.213
190132,1755598506625,60.13,-64.72,-8.33,773,771,871,924,900,33.333333333333336,-0.865,-0.455,0.216
190162,1755598506628,60.12,-64.71,-8.35,770,769,860,920,901,33.333333333333336,-0.863,-0.453,0.214
190191,1755598506630,60.12,-64.71,-8.37,769,762,857,925,898,34.48275862068966,-0.866,-0.453,0.211
190221,1755598506632,60.09,-64.77,-8.38,768,765,865,923,898,33.333333333333336,-0.868,-0.455,0.209
190250,1755598506634,60.1,-64.81,-8.38,764,773,862,917,902,34.48275862068966,-0.866,-0.455,0.211
190271,1755598506636,60.11,-64.82,-8.39,766,770,858,924,902,47.61904761904762,-0.865,-0.455,0.214
190291,1755598506638,60.08,-64.79,-8.38,763,761,863,923,899,50.0,-0.865,-0.455,0.216
190320,1755598506640,60.09,-64.77,-8.38,771,771,859,919,900,34.48275862068966,-0.865,-0.454,0.215
190350,1755598506642,60.07,-64.8,-8.41,776,772,867,924,904,33.333333333333336,-0.864,-0.453,0.214
190380,1755598506644,60.07,-64.82,-8.44,767,762,867,917,904,33.333333333333336,-0.867,-0.456,0.213
190409,1755598506646,60.06,-64.81,-8.42,765,773,859,921,901,34.48275862068966,-0.866,-0.454,0.213
190439,1755598506648,60.08,-64.82,-8.43,769,762,853,916,901,33.333333333333336,-0.864,-0.453,0.215
190468,1755598506650,60.07,-64.83,-8.44,766,770,859,920,904,34.48275862068966,-0.865,-0.454,0.215
190498,1755598506652,60.07,-64.8,-8.44,769,770,869,924,899,33.333333333333336,-0.865,-0.455,0.213
190528,1755598506654,60.08,-64.83,-8.45,770,763,860,917,904,33.333333333333336,-0.865,-0.457,0.21
190557,1755598506656,60.05,-64.87,-8.45,768,757,866,922,903,34.48275862068966,-0.863,-0.457,0.212
190587,1755598506658,60.03,-64.85,-8.43,780,761,864,916,900,33.333333333333336,-0.866,-0.457,0.214
190617,1755598506659,60.06,-64.84,-8.42,768,765,864,910,908,33.333333333333336,-0.866,-0.455,0.214
190646,1755598506662,60.06,-64.83,-8.42,763,762,860,921,896,34.48275862068966,-0.864,-0.454,0.213
190676,1755598506664,60.04,-64.83,-8.43,772,775,863,919,900,33.333333333333336,-0.864,-0.456,0.212
190705,1755598506666,60.04,-64.86,-8.43,762,770,859,917,902,34.48275862068966,-0.865,-0.456,0.211
190735,1755598506667,60.07,-64.86,-8.43,770,772,872,925,897,33.333333333333336,-0.866,-0.455,0.212
190765,1755598506670,60.06,-64.85,-8.43,767,762,862,913,907,33.333333333333336,-0.866,-0.456,0.213
190794,1755598506671,60.06,-64.83,-8.42,762,764,865,919,896,34.48275862068966,-0.865,-0.456,0.213
190824,1755598506673,60.07,-64.83,-8.42,769,772,863,923,898,33.333333333333336,-0.865,-0.456,0.212
190853,1755598506676,60.05,-64.82,-8.42,766,772,860,924,903,34.48275862068966,-0.864,-0.456,0.21
190883,1755598506677,60.09,-64.83,-8.43,767,771,866,920,903,33.333333333333336,-0.866,-0.456,0.211
190913,1755598506679,60.08,-64.87,-8.42,763,770,862,921,904,33.333333333333336,-0.866,-0.457,0.211
190942,1755598506681,60.1,-64.88,-8.42,766,774,857,916,894,34.48275862068966,-0.866,-0.456,0.212
190972,1755598506683,60.05,-64.87,-8.43,767,767,864,924,903,33.333333333333336,-0.864,-0.455,0.212
191001,1755598506685,60.06,-64.87,-8.44,769,768,859,928,897,34.48275862068966,-0.866,-0.456,0.212
191031,1755598506688,60.06,-64.89,-8.42,766,761,865,921,903,33.333333333333336,-0.867,-0.458,0.211
191060,1755598506690,60.08,-64.9,-8.41,770,768,859,912,901,34.48275862068966,-0.866,-0.456,0.211
191090,1755598506692,60.05,-64.89,-8.43,760,764,858,928,901,33.333333333333336,-0.865,-0.456,0.212
191119,1755598506694,60.05,-64.86,-8.42,769,763,860,920,898,34.48275862068966,-0.867,-0.457,0.213
191149,1755598506696,60.02,-64.85,-8.41,769,767,859,922,904,33.333333333333336,-0.865,-0.456,0.212
191178,1755598506697,60.07,-64.88,-8.41,766,763,858,928,920,34.48275862068966,-0.868,-0.457,0.213
191208,1755598506699,60.02,-64.86,-8.4,769,764,854,924,901,33.333333333333336,-0.866,-0.456,0.211
191237,1755598506701,60.04,-64.87,-8.41,769,773,861,918,899,34.48275862068966,-0.863,-0.455,0.21
191267,1755598506703,60.04,-64.92,-8.45,766,766,867,914,891,33.333333333333336,-0.865,-0.457,0.212
191296,1755598506705,60.02,-64.95,-8.43,770,760,864,923,901,34.48275862068966,-0.868,-0.459,0.214
191326,1755598506708,60.05,-64.92,-8.39,771,765,868,922,899,33.333333333333336,-0.868,-0.458,0.215
191356,1755598506710,60.04,-64.88,-8.37,769,770,864,925,907,33.333333333333336,-0.865,-0.455,0.215
191386,1755598506712,60.0,-64.85,-8.4,770,773,862,919,904,33.333333333333336,-0.863,-0.454,0.213
191415,1755598506713,59.98,-64.85,-8.41,761,768,869,914,904,34.48275862068966,-0.866,-0.456,0.212
191435,1755598506716,60.0,-64.84,-8.4,769,771,859,925,894,50.0,-0.869,-0.458,0.212
191465,1755598506718,59.98,-64.82,-8.38,768,774,852,908,892,33.333333333333336,-0.869,-0.457,0.213
191494,1755598506719,59.97,-64.78,-8.37,768,770,863,921,898,34.48275862068966,-0.865,-0.454,0.213
191524,1755598506722,59.96,-64.76,-8.38,762,767,858,922,903,33.333333333333336,-0.864,-0.454,0.214
191554,1755598506724,59.96,-64.76,-8.39,772,771,861,921,899,33.333333333333336,-0.867,-0.456,0.213
191583,1755598506725,59.96,-64.77,-8.38,766,770,862,920,901,34.48275862068966,-0.867,-0.457,0.213
191613,1755598506728,59.93,-64.76,-8.38,764,768,863,915,902,33.333333333333336,-0.864,-0.454,0.213
191642,1755598506730,59.91,-64.78,-8.42,767,760,864,923,892,34.48275862068966,-0.871,-0.455,0.213
191672,1755598506732,59.88,-64.8,-8.43,768,766,866,919,904,33.333333333333336,-0.872,-0.457,0.213
191701,1755598506734,59.9,-64.81,-8.42,769,763,851,924,902,34.48275862068966,-0.87,-0.458,0.214
191731,1755598506736,59.88,-64.79,-8.41,770,775,859,914,893,33.333333333333336,-0.866,-0.456,0.216
191760,1755598506738,59.85,-64.78,-8.43,767,764,860,918,902,34.48275862068966,-0.866,-0.454,0.215
191790,1755598506740,59.84,-64.77,-8.44,768,769,869,915,896,33.333333333333336,-0.869,-0.455,0.215
191819,1755598506742,59.87,-64.77,-8.43,764,770,862,925,905,34.48275862068966,-0.868,-0.456,0.215
191849,1755598506743,59.89,-64.78,-8.43,766,772,863,916,905,33.333333333333336,-0.864,-0.456,0.216
191879,1755598506746,59.86,-64.76,-8.45,770,771,863,918,899,33.333333333333336,-0.864,-0.456,0.215
191909,1755598506748,59.84,-64.78,-8.46,772,770,857,916,905,33.333333333333336,-0.867,-0.456,0.214
191938,1755598506750,59.88,-64.78,-8.44,770,772,862,923,904,34.48275862068966,-0.868,-0.457,0.214
191968,1755598506752,59.86,-64.77,-8.43,766,770,861,918,897,33.333333333333336,-0.865,-0.457,0.215
191997,1755598506754,59.82,-64.75,-8.44,764,771,864,923,904,34.48275862068966,-0.863,-0.456,0.217
192027,1755598506756,59.84,-64.77,-8.46,771,772,858,925,906,33.333333333333336,-0.865,-0.456,0.217
192057,1755598506758,59.86,-64.75,-8.45,771,773,860,922,901,33.333333333333336,-0.866,-0.457,0.215
192086,1755598506760,59.84,-64.75,-8.44,771,768,872,921,896,34.48275862068966,-0.865,-0.457,0.214
192116,1755598506762,59.86,-64.75,-8.45,764,772,868,919,900,33.333333333333336,-0.863,-0.456,0.215
192146,1755598506764,59.84,-64.75,-8.46,768,768,868,921,900,33.333333333333336,-0.864,-0.456,0.217
192175,1755598506766,59.86,-64.73,-8.45,770,769,856,920,903,34.48275862068966,-0.867,-0.456,0.217
192205,1755598506768,59.87,-64.72,-8.45,768,768,863,922,887,33.333333333333336,-0.864,-0.455,0.216
192235,1755598506770,59.85,-64.71,-8.46,773,771,865,926,906,33.333333333333336,-0.865,-0.457,0.215
192265,1755598506772,59.84,-64.7,-8.44,771,771,863,922,882,33.333333333333336,-0.866,-0.458,0.215
192294,1755598506773,59.87,-64.69,-8.43,764,770,864,917,896,34.48275862068966,-0.865,-0.456,0.218
192324,1755598506775,59.85,-64.67,-8.44,773,767,864,919,907,33.333333333333336,-0.863,-0.456,0.218
192354,1755598506777,59.86,-64.7,-8.46,770,771,862,918,897,33.333333333333336,-0.865,-0.455,0.216
192383,1755598506779,59.87,-64.71,-8.45,771,766,863,923,903,34.48275862068966,-0.866,-0.456,0.215
192413,1755598506781,59.86,-64.72,-8.44,772,765,858,920,907,33.333333333333336,-0.865,-0.457,0.215
192442,1755598506783,59.89,-64.74,-8.44,767,769,861,930,904,34.48275862068966,-0.864,-0.456,0.216
192472,1755598506785,59.85,-64.72,-7.98,770,766,858,922,905,33.333333333333336,-0.865,-0.455,0.216
192501,1755598506787,59.9,-64.79,-7.98,766,767,856,914,903,34.48275862068966,-0.868,-0.456,0.215
192531,1755598506789,59.94,-64.83,-7.96,769,773,864,914,900,33.333333333333336,-0.867,-0.456,0.216
192561,1755598506791,59.93,-64.8,-7.93,767,768,866,923,905,33.333333333333336,-0.865,-0.457,0.216
192590,1755598506793,59.95,-64.8,-7.93,767,771,863,919,900,34.48275862068966,-0.865,-0.457,0.214
192611,1755598506795,59.97,-64.81,-7.93,768,775,839,914,900,47.61904761904762,-0.865,-0.457,0.211
192640,1755598506797,59.97,-64.84,-7.93,771,762,857,922,906,34.48275862068966,-0.866,-0.457,0.209
192670,1755598506799,59.97,-64.84,-7.93,771,772,867,915,898,33.333333333333336,-0.865,-0.456,0.21
192700,1755598506801,59.93,-64.82,-7.93,769,769,866,923,904,33.333333333333336,-0.865,-0.456,0.212
192729,1755598506803,59.93,-64.83,-7.93,767,770,862,922,895,34.48275862068966,-0.865,-0.456,0.213
192759,1755598506805,59.94,-64.85,-7.94,772,772,864,923,905,33.333333333333336,-0.865,-0.455,0.213
192788,1755598506807,59.92,-64.85,-7.95,766,773,861,922,907,34.48275862068966,-0.866,-0.455,0.212
192818,1755598506809,59.92,-64.85,-7.96,772,765,862,920,905,33.333333333333336,-0.866,-0.456,0.213
192848,1755598506812,59.87,-64.86,-7.96,768,773,858,923,898,33.333333333333336,-0.864,-0.456,0.213
192877,1755598506813,59.9,-64.85,-7.95,768,761,863,919,892,34.48275862068966,-0.865,-0.456,0.214
192907,1755598506816,59.89,-64.83,-7.94,771,759,863,921,895,33.333333333333336,-0.867,-0.455,0.214
192936,1755598506817,59.88,-64.81,-7.94,768,768,864,923,900,34.48275862068966,-0.864,-0.455,0.212
192966,1755598506820,59.86,-64.82,-7.96,765,765,866,914,901,33.333333333333336,-0.865,-0.457,0.211
192996,1755598506822,59.8,-64.85,-7.94,765,757,861,926,907,33.333333333333336,-0.866,-0.458,0.211
193025,1755598506824,59.85,-64.83,-7.92,767,774,867,912,897,34.48275862068966,-0.866,-0.456,0.216
193055,1755598506826,59.87,-64.79,-7.93,767,766,867,919,901,33.333333333333336,-0.862,-0.454,0.217
193085,1755598506828,59.84,-64.77,-7.96,767,766,864,920,893,33.333333333333336,-0.862,-0.455,0.213
193114,1755598506830,59.81,-64.8,-7.97,763,762,857,923,902,34.48275862068966,-0.866,-0.457,0.21
193144,1755598506832,59.8,-64.82,-7.97,762,765,868,920,902,33.333333333333336,-0.866,-0.456,0.212
193173,1755598506834,59.81,-64.85,-8.0,770,762,870,920,898,34.48275862068966,-0.864,-0.455,0.215
193203,1755598506837,59.78,-64.83,-8.02,774,772,870,918,896,33.333333333333336,-0.864,-0.456,0.215
193233,1755598506838,59.78,-64.83,-8.02,761,762,862,922,905,33.333333333333336,-0.867,-0.458,0.214
193262,1755598506840,59.82,-64.84,-7.99,768,765,859,919,902,34.48275862068966,-0.866,-0.458,0.215
193292,1755598506842,59.8,-64.81,-7.98,767,762,855,920,905,33.333333333333336,-0.862,-0.457,0.214
193321,1755598506845,59.77,-64.82,-8.0,772,770,856,919,904,34.48275862068966,-0.862,-0.456,0.212
193351,1755598506847,59.81,-64.85,-8.0,778,776,863,923,897,33.333333333333336,-0.867,-0.457,0.213
193381,1755598506848,59.82,-64.88,-7.97,768,769,862,917,904,33.333333333333336,-0.868,-0.458,0.213
193410,1755598506850,59.85,-64.89,-7.94,769,768,873,922,901,34.48275862068966,-0.865,-0.458,0.213
193440,1755598506853,59.81,-64.89,-7.94,765,768,853,925,898,33.333333333333336,-0.862,-0.456,0.213
193469,1755598506855,59.78,-64.88,-7.97,768,773,857,920,904,34.48275862068966,-0.862,-0.455,0.212
193489,1755598506857,59.77,-64.89,-7.99,765,765,859,910,898,50.0,-0.865,-0.457,0.211
193519,1755598506859,59.78,-64.94,-7.98,766,770,860,922,922,33.333333333333336,-0.869,-0.459,0.211
193548,1755598506861,59.82,-64.94,-7.94,769,768,860,926,898,34.48275862068966,-0.868,-0.459,0.214
193578,1755598506863,59.79,-64.92,-7.93,767,781,856,921,899,33.333333333333336,-0.864,-0.457,0.215
193608,1755598506865,59.77,-64.93,-7.96,770,771,860,923,897,33.333333333333336,-0.861,-0.455,0.212
193637,1755598506867,59.75,-64.93,-7.98,764,770,859,918,893,34.48275862068966,-0.865,-0.455,0.21
193667,1755598506869,59.76,-64.94,-7.97,768,764,860,922,898,33.333333333333336,-0.866,-0.456,0.211
193697,1755598506871,59.72,-64.94,-7.97,762,768,863,926,900,33.333333333333336,-0.862,-0.455,0.215
193726,1755598506873,59.71,-64.91,-8.01,767,772,865,916,891,34.48275862068966,-0.861,-0.456,0.217
193756,1755598506875,59.7,-64.9,-8.0,769,773,861,923,899,33.333333333333336,-0.867,-0.458,0.213
193785,1755598506877,59.76,-64.91,-7.97,770,766,869,920,900,34.48275862068966,-0.866,-0.458,0.21
193815,1755598506879,59.75,-64.93,-7.98,766,767,856,923,895,33.333333333333336,-0.862,-0.456,0.211
193844,1755598506881,59.71,-64.91,-8.0,771,769,860,931,902,34.48275862068966,-0.864,-0.458,0.212
193874,1755598506882,59.72,-64.91,-7.98,775,768,858,923,901,33.333333333333336,-0.866,-0.458,0.213
193904,1755598506885,59.82,-64.9,-7.96,770,769,857,916,904,33.333333333333336,-0.864,-0.456,0.215
193933,1755598506887,59.78,-64.86,-7.98,767,760,853,921,899,34.48275862068966,-0.861,-0.455,0.214
193963,1755598506889,59.82,-64.86,-8.01,767,768,869,919,905,33.333333333333336,-0.863,-0.455,0.211
193993,1755598506892,59.8,-64.9,-8.02,771,771,863,925,911,33.333333333333336,-0.867,-0.458,0.208
194022,1755598506894,59.79,-64.95,-7.99,771,768,861,915,905,34.48275862068966,-0.867,-0.459,0.212
194052,1755598506896,59.79,-64.96,-7.98,770,772,869,911,897,33.333333333333336,-0.863,-0.458,0.215
194081,1755598506898,59.79,-64.92,-7.99,767,769,867,917,910,34.48275862068966,-0.864,-0.458,0.213
194111,1755598506900,59.78,-64.93,-7.97,771,762,860,922,908,33.333333333333336,-0.867,-0.459,0.21
194141,1755598506902,59.81,-64.99,-7.97,767,771,860,923,888,33.333333333333336,-0.865,-0.456,0.211
194170,1755598506904,59.77,-64.97,-8.0,772,770,857,925,892,34.48275862068966,-0.863,-0.452,0.214
194199,1755598506906,59.68,-64.94,-8.05,767,774,862,920,900,34.48275862068966,-0.865,-0.454,0.213
194229,1755598506908,59.72,-64.96,-8.06,769,767,865,920,908,33.333333333333336,-0.867,-0.46,0.211
194259,1755598506910,59.74,-64.95,-8.03,770,772,868,924,900,33.333333333333336,-0.866,-0.462,0.211
194288,1755598506912,59.71,-64.94,-8.0,763,762,858,916,909,34.48275862068966,-0.863,-0.46,0.211
194308,1755598506914,59.72,-64.95,-8.0,766,761,859,917,898,50.0,-0.862,-0.457,0.212
194338,1755598506916,59.72,-64.97,-8.01,773,769,865,923,886,33.333333333333336,-0.862,-0.455,0.214
194367,1755598506918,59.73,-64.96,-8.03,772,776,860,920,897,34.48275862068966,-0.863,-0.454,0.216
194397,1755598506920,59.75,-64.93,-8.04,772,761,858,919,902,33.333333333333336,-0.863,-0.456,0.217
194426,1755598506922,59.73,-64.87,-8.04,765,767,861,924,898,34.48275862068966,-0.865,-0.458,0.214
194456,1755598506924,59.74,-64.9,-8.04,769,767,866,926,896,33.333333333333336,-0.864,-0.458,0.211
194485,1755598506926,59.75,-64.93,-8.04,766,764,863,922,901,34.48275862068966,-0.865,-0.458,0.211
194515,1755598506928,59.71,-64.93,-8.05,768,766,862,923,887,33.333333333333336,-0.866,-0.46,0.213
194544,1755598506930,59.74,-64.94,-8.03,766,765,863,920,892,34.48275862068966,-0.864,-0.46,0.212
194574,1755598506933,59.77,-64.97,-8.02,766,766,860,920,901,33.333333333333336,-0.864,-0.46,0.214
194604,1755598506935,59.75,-64.91,-8.0,768,765,861,916,901,33.333333333333336,-0.864,-0.457,0.213
194633,1755598506937,59.74,-64.9,-8.02,769,776,871,921,896,34.48275862068966,-0.865,-0.455,0.209
194663,1755598506939,59.71,-64.92,-8.02,769,779,863,923,897,33.333333333333336,-0.868,-0.458,0.209
194693,1755598506941,59.76,-64.96,-7.99,766,769,864,905,899,33.333333333333336,-0.867,-0.458,0.213
194722,1755598506943,59.77,-64.88,-7.97,770,766,864,922,894,34.48275862068966,-0.863,-0.457,0.218
194752,1755598506945,59.77,-64.82,-7.97,768,774,859,923,906,33.333333333333336,-0.863,-0.457,0.214
194782,1755598506947,59.78,-64.89,-7.98,768,767,856,921,904,33.333333333333336,-0.864,-0.457,0.21
194811,1755598506949,59.8,-64.92,-7.97,768,772,863,925,901,34.48275862068966,-0.865,-0.457,0.211
194841,1755598506951,59.82,-64.91,-7.95,771,772,868,924,897,33.333333333333336,-0.867,-0.457,0.214
194871,1755598506954,59.81,-64.89,-7.95,770,765,864,923,908,33.333333333333336,-0.864,-0.457,0.212
194900,1755598506956,59.83,-64.89,-7.94,763,771,868,918,889,34.48275862068966,-0.865,-0.457,0.211
194930,1755598506958,59.82,-64.88,-7.93,765,765,855,914,904,33.333333333333336,-0.866,-0.455,0.211
194960,1755598506959,59.78,-64.89,-7.96,767,772,862,915,897,33.333333333333336,-0.865,-0.453,0.21
194989,1755598506962,59.72,-64.89,-7.97,769,770,859,922,908,34.48275862068966,-0.868,-0.455,0.212
195019,1755598506964,59.61,-64.82,-7.95,771,768,860,917,896,33.333333333333336,-0.868,-0.457,0.216
195048,1755598506966,59.68,-64.81,-7.93,768,766,855,913,906,34.48275862068966,-0.867,-0.459,0.216
195078,1755598506968,59.72,-64.8,-7.89,768,769,852,927,896,33.333333333333336,-0.864,-0.457,0.215
195108,1755598506970,59.71,-64.82,-7.91,772,762,858,926,898,33.333333333333336,-0.861,-0.453,0.215
195137,1755598506972,59.7,-64.82,-7.93,768,775,856,918,900,34.48275862068966,-0.865,-0.454,0.218
195167,1755598506975,59.63,-64.79,-7.91,770,766,855,919,897,33.333333333333336,-0.869,-0.457,0.217
195197,1755598506977,59.68,-64.82,-7.87,765,761,860,921,900,33.333333333333336,-0.866,-0.457,0.215
195226,1755598506979,59.74,-64.8,-7.85,767,771,861,918,897,34.48275862068966,-0.861,-0.454,0.218
195256,1755598506981,59.68,-64.75,-7.88,764,769,860,917,906,33.333333333333336,-0.86,-0.452,0.217
195285,1755598506983,59.67,-64.76,-7.92,768,764,864,919,901,34.48275862068966,-0.866,-0.454,0.216
195315,1755598506985,59.7,-64.77,-7.92,769,768,861,914,906,33.333333333333336,-0.867,-0.455,0.217
195345,1755598506987,59.73,-64.76,-7.91,766,763,850,918,902,33.333333333333336,-0.864,-0.455,0.218
195374,1755598506989,59.74,-64.74,-7.93,762,769,870,919,903,34.48275862068966,-0.862,-0.454,0.217
195404,1755598506991,59.7,-64.76,-7.97,767,761,862,910,908,33.333333333333336,-0.862,-0.454,0.215
195433,1755598506993,59.71,-64.78,-7.97,770,775,851,919,897,34.48275862068966,-0.868,-0.456,0.215
195463,1755598506995,59.72,-64.79,-7.96,771,767,858,923,900,33.333333333333336,-0.867,-0.456,0.217
195492,1755598506998,59.73,-64.78,-7.97,769,770,863,917,895,34.48275862068966,-0.863,-0.455,0.219
195522,1755598507000,59.7,-64.76,-7.98,771,766,858,926,904,33.333333333333336,-0.864,-0.456,0.218
195551,1755598507001,59.71,-64.77,-7.99,770,772,862,916,898,34.48275862068966,-0.868,-0.457,0.216
195581,1755598507004,59.71,-64.8,-7.98,767,764,864,916,898,33.333333333333336,-0.867,-0.457,0.215
195611,1755598507006,59.71,-64.79,-7.98,770,769,859,919,904,33.333333333333336,-0.863,-0.456,0.216
195640,1755598507008,59.7,-64.76,-7.98,768,760,867,922,910,34.48275862068966,-0.864,-0.456,0.218
195669,1755598507010,59.68,-64.77,-7.97,775,771,858,918,906,34.48275862068966,-0.865,-0.457,0.218
195699,1755598507012,59.74,-64.74,-7.96,771,760,853,919,902,33.333333333333336,-0.865,-0.456,0.217
195729,1755598507014,59.67,-64.72,-7.98,773,770,865,913,904,33.333333333333336,-0.863,-0.456,0.215
195759,1755598507017,59.7,-64.78,-7.99,766,769,869,911,897,33.333333333333336,-0.867,-0.457,0.214
195779,1755598507019,59.71,-64.81,-7.99,776,773,864,924,900,50.0,-0.868,-0.457,0.214
195808,1755598507021,59.71,-64.81,-7.99,764,767,863,921,902,34.48275862068966,-0.865,-0.456,0.216
195838,1755598507023,59.73,-64.81,-8.02,769,767,857,921,905,33.333333333333336,-0.864,-0.457,0.218
195868,1755598507025,59.74,-64.82,-8.04,770,780,859,924,899,33.333333333333336,-0.865,-0.457,0.214
195897,1755598507027,59.83,-64.89,-8.06,768,767,856,922,898,34.48275862068966,-0.865,-0.457,0.211
195927,1755598507029,59.91,-65.05,-8.13,768,767,856,926,905,33.333333333333336,-0.864,-0.457,0.211
195956,1755598507031,59.93,-65.02,-8.22,769,763,866,918,907,34.48275862068966,-0.864,-0.461,0.217
195986,1755598507033,59.83,-64.92,-8.18,768,762,867,925,902,33.333333333333336,-0.869,-0.463,0.219
196015,1755598507035,59.8,-65.31,-8.0,762,769,848,924,899,34.48275862068966,-0.881,-0.467,0.213
196045,1755598507038,60.1,-65.79,-7.83,768,773,862,926,897,33.333333333333336,-0.873,-0.467,0.203
196075,1755598507040,60.89,-66.42,-7.81,771,766,860,924,903,33.333333333333336,-0.863,-0.471,0.2
196104,1755598507042,61.04,-66.87,-7.87,770,760,861,923,899,34.48275862068966,-0.851,-0.459,0.198
196134,1755598507044,60.42,-67.25,-8.24,770,773,865,927,904,33.333333333333336,-0.837,-0.453,0.192
196163,1755598507046,59.87,-68.08,-8.79,769,767,873,936,896,34.48275862068966,-0.845,-0.458,0.182
196193,1755598507048,59.49,-68.82,-9.32,772,763,889,930,901,33.333333333333336,-0.856,-0.465,0.181
196223,1755598507050,59.29,-69.03,-9.49,770,770,877,930,905,33.333333333333336,-0.872,-0.478,0.189
196252,1755598507052,58.93,-69.1,-9.45,763,765,874,935,907,34.48275862068966,-0.868,-0.486,0.196
196282,1755598507054,58.71,-69.16,-9.39,768,759,885,939,899,33.333333333333336,-0.856,-0.489,0.197
196312,1755598507056,58.75,-69.3,-9.39,767,775,870,932,899,33.333333333333336,-0.848,-0.491,0.191
196341,1755598507058,58.69,-69.45,-9.51,772,768,881,934,903,34.48275862068966,-0.844,-0.488,0.185
196371,1755598507061,58.39,-69.58,-9.72,772,764,885,931,900,33.333333333333336,-0.844,-0.487,0.18
196401,1755598507063,58.06,-69.46,-9.78,771,768,877,930,900,33.333333333333336,-0.841,-0.497,0.201
196430,1755598507065,58.05,-69.26,-9.8,773,769,880,932,904,34.48275862068966,-0.844,-0.502,0.204
196460,1755598507067,58.44,-69.54,-9.86,767,779,879,934,900,33.333333333333336,-0.856,-0.504,0.165
196489,1755598507068,58.23,-70.08,-9.91,764,766,878,933,914,34.48275862068966,-0.847,-0.501,0.153
196519,1755598507070,58.11,-70.28,-9.79,767,758,871,943,909,33.333333333333336,-0.851,-0.512,0.187
196548,1755598507072,58.21,-69.75,-9.42,772,771,876,931,907,34.48275862068966,-0.836,-0.523,0.245
196578,1755598507074,58.46,-69.18,-9.07,767,767,881,936,902,33.333333333333336,-0.845,-0.523,0.232
196598,1755598507076,58.8,-68.88,-8.89,773,765,878,939,899,50.0,-0.847,-0.511,0.19
196628,1755598507079,58.43,-68.75,-8.81,770,777,879,932,906,33.333333333333336,-0.848,-0.494,0.154
196657,1755598507081,57.91,-68.92,-8.96,765,765,891,937,902,34.48275862068966,-0.839,-0.49,0.162
196687,1755598507083,57.95,-69.11,-9.21,769,761,884,932,913,33.333333333333336,-0.83,-0.496,0.19
196717,1755598507086,57.76,-69.21,-9.45,763,768,879,931,918,33.333333333333336,-0.833,-0.499,0.207
196746,1755598507087,57.47,-69.01,-9.51,769,773,885,943,908,34.48275862068966,-0.845,-0.502,0.209
196776,1755598507090,57.13,-68.84,-9.5,773,762,886,938,923,33.333333333333336,-0.848,-0.501,0.205
196805,1755598507091,57.14,-68.8,-9.44,769,767,876,942,917,34.48275862068966,-0.849,-0.504,0.209
196835,1755598507093,57.03,-68.7,-9.39,770,768,876,938,905,33.333333333333336,-0.845,-0.506,0.215
196865,1755598507096,57.07,-68.65,-9.38,769,770,874,933,908,33.333333333333336,-0.837,-0.505,0.218
196894,1755598507097,57.07,-68.43,-9.36,769,770,875,935,930,34.48275862068966,-0.837,-0.501,0.215
196924,1755598507099,57.01,-68.34,-9.44,771,766,872,942,945,33.333333333333336,-0.823,-0.497,0.205
196953,1755598507101,57.37,-68.53,-9.65,767,768,874,933,933,34.48275862068966,-0.837,-0.505,0.204
196983,1755598507103,57.32,-68.63,-9.75,765,767,866,933,933,33.333333333333336,-0.839,-0.507,0.208
197013,1755598507105,57.34,-68.71,-9.82,771,768,880,934,938,33.333333333333336,-0.839,-0.508,0.21
197042,1755598507107,57.32,-68.79,-9.9,771,767,872,931,939,34.48275862068966,-0.84,-0.508,0.211
197072,1755598507109,57.37,-68.82,-9.99,760,771,871,931,937,33.333333333333336,-0.834,-0.506,0.214
197101,1755598507111,57.47,-68.78,-10.07,769,770,873,939,935,34.48275862068966,-0.836,-0.509,0.216
197131,1755598507113,57.49,-68.68,-10.11,763,767,879,930,946,33.333333333333336,-0.838,-0.513,0.216
197160,1755598507116,57.43,-68.61,-10.16,765,765,875,925,943,34.48275862068966,-0.836,-0.513,0.212
197190,1755598507118,57.48,-68.58,-10.19,769,763,894,928,945,33.333333333333336,-0.838,-0.513,0.212
197219,1755598507120,57.57,-68.53,-10.24,765,768,870,934,941,34.48275862068966,-0.835,-0.511,0.211
197249,1755598507122,57.69,-68.54,-10.32,772,773,869,935,950,33.333333333333336,-0.837,-0.513,0.209
197279,1755598507124,57.62,-68.51,-10.38,764,771,886,934,947,33.333333333333336,-0.834,-0.515,0.205
197308,1755598507126,57.49,-68.39,-10.43,770,762,879,937,935,34.48275862068966,-0.832,-0.515,0.204
197328,1755598507128,57.37,-68.32,-10.46,770,771,876,932,937,50.0,-0.833,-0.514,0.206
197358,1755598507130,57.24,-68.28,-10.52,767,772,877,932,927,33.333333333333336,-0.831,-0.515,0.204
197387,1755598507132,57.2,-68.22,-10.56,762,766,884,937,935,34.48275862068966,-0.837,-0.521,0.204
197417,1755598507134,56.82,-67.95,-10.5,765,768,873,933,952,33.333333333333336,-0.836,-0.523,0.203
197446,1755598507136,56.64,-67.83,-10.48,763,765,875,938,945,34.48275862068966,-0.829,-0.519,0.207
197476,1755598507138,56.72,-67.85,-10.49,771,765,853,932,948,33.333333333333336,-0.833,-0.518,0.211
197505,1755598507141,56.64,-67.82,-10.5,767,776,873,925,930,34.48275862068966,-0.833,-0.518,0.216
197535,1755598507143,56.51,-67.69,-10.5,771,763,875,940,929,33.333333333333336,-0.83,-0.518,0.219
197565,1755598507145,56.43,-67.6,-10.47,770,771,874,928,936,33.333333333333336,-0.832,-0.518,0.221
197594,1755598507147,56.3,-67.43,-10.45,768,763,871,934,937,34.48275862068966,-0.827,-0.517,0.225
197624,1755598507149,56.19,-67.21,-10.44,769,765,873,934,940,33.333333333333336,-0.83,-0.518,0.227
197654,1755598507151,55.98,-67.05,-10.43,768,770,876,929,961,33.333333333333336,-0.825,-0.517,0.23
197683,1755598507153,55.98,-66.96,-10.44,770,761,865,943,949,34.48275862068966,-0.824,-0.517,0.235
197713,1755598507155,55.92,-66.95,-10.44,773,769,870,934,954,33.333333333333336,-0.828,-0.519,0.238
197742,1755598507157,55.61,-66.84,-10.42,767,766,868,933,926,34.48275862068966,-0.828,-0.519,0.239
197772,1755598507159,55.18,-66.71,-10.43,772,768,866,930,934,33.333333333333336,-0.821,-0.515,0.238
197801,1755598507161,55.08,-66.74,-10.47,766,772,885,935,924,34.48275862068966,-0.826,-0.515,0.243
197831,1755598507163,54.92,-66.66,-10.5,768,769,869,937,968,33.333333333333336,-0.826,-0.515,0.241
197860,1755598507165,54.6,-66.41,-10.5,769,770,868,935,922,34.48275862068966,-0.83,-0.517,0.243
197890,1755598507167,54.38,-66.11,-10.42,773,772,873,937,958,33.333333333333336,-0.822,-0.514,0.246
197920,1755598507169,54.29,-65.74,-10.45,772,771,868,923,947,33.333333333333336,-0.807,-0.507,0.243
197949,1755598507171,54.34,-65.84,-10.55,768,766,875,926,967,34.48275862068966,-0.818,-0.507,0.239
197970,1755598507173,54.36,-65.97,-10.54,770,755,873,931,925,47.61904761904762,-0.835,-0.512,0.242
197999,1755598507174,54.83,-65.82,-10.11,770,769,866,932,897,34.48275862068966,-0.854,-0.517,0.264
198029,1755598507176,55.19,-65.4,-9.49,765,763,868,935,926,33.333333333333336,-0.852,-0.517,0.286
198058,1755598507178,55.23,-64.97,-8.97,761,770,868,931,919,34.48275862068966,-0.81,-0.5,0.27
198088,1755598507180,56.15,-64.86,-8.74,774,760,857,934,921,33.333333333333336,-0.827,-0.507,0.289
198118,1755598507182,56.24,-64.57,-8.63,768,766,864,931,918,33.333333333333336,-0.813,-0.5,0.281
198147,1755598507184,56.37,-64.12,-8.58,770,770,866,926,916,34.48275862068966,-0.816,-0.495,0.281
198177,1755598507186,55.66,-63.68,-8.67,769,765,869,930,913,33.333333333333336,-0.818,-0.489,0.278
198206,1755598507189,54.95,-63.21,-8.9,763,762,860,930,912,34.48275862068966,-0.812,-0.485,0.27
198236,1755598507191,54.19,-62.91,-9.2,770,771,871,928,918,33.333333333333336,-0.822,-0.481,0.268
198265,1755598507192,53.65,-62.69,-9.4,772,770,859,923,920,34.48275862068966,-0.832,-0.477,0.277
198295,1755598507195,53.05,-62.53,-9.56,766,768,865,919,931,33.333333333333336,-0.828,-0.475,0.289
198324,1755598507197,52.71,-62.42,-9.75,768,770,857,925,907,34.48275862068966,-0.813,-0.472,0.295
198354,1755598507199,52.85,-62.35,-9.94,769,772,869,920,921,33.333333333333336,-0.814,-0.477,0.307
198384,1755598507201,52.96,-62.2,-10.1,765,770,856,932,916,33.333333333333336,-0.822,-0.487,0.318
198413,1755598507203,52.88,-61.94,-10.11,770,766,860,914,924,34.48275862068966,-0.826,-0.494,0.322
198443,1755598507205,52.92,-61.65,-9.99,767,769,859,929,929,33.333333333333336,-0.825,-0.493,0.326
198472,1755598507207,53.07,-61.34,-9.85,769,763,892,921,920,34.48275862068966,-0.824,-0.491,0.331
198501,1755598507209,53.02,-61.01,-9.76,769,774,852,928,918,34.48275862068966,-0.814,-0.486,0.326
198531,1755598507211,53.02,-60.87,-9.75,770,775,853,924,922,33.333333333333336,-0.809,-0.484,0.32
198560,1755598507213,53.2,-60.88,-9.8,766,767,854,921,928,34.48275862068966,-0.809,-0.485,0.324
198590,1755598507216,53.27,-60.74,-9.82,766,761,852,926,926,33.333333333333336,-0.82,-0.485,0.334
198619,1755598507218,52.96,-60.48,-9.8,770,764,849,923,938,34.48275862068966,-0.812,-0.481,0.34
198649,1755598507220,52.87,-60.3,-9.79,773,772,857,929,927,33.333333333333336,-0.815,-0.485,0.345
