timestamp_ms,recv_timestamp_ms,pitch,roll,yaw,flex1,flex2,flex3,flex4,flex5,sampling_hz,accel_x,accel_y,accel_z
157746,1755608072783,16.25,-42.89,-13.14,785,775,784,394,838,34.48275862068966,-0.276,-0.655,0.703
157776,1755608072785,16.26,-42.88,-13.12,779,777,784,379,839,33.333333333333336,-0.277,-0.656,0.705
157806,1755608072788,16.26,-42.82,-13.1,787,779,783,330,837,33.333333333333336,-0.276,-0.656,0.706
157835,1755608072790,16.25,-42.8,-13.11,781,774,783,356,838,34.48275862068966,-0.275,-0.655,0.705
157865,1755608072792,16.26,-42.82,-13.11,786,774,780,412,842,33.333333333333336,-0.275,-0.654,0.704
157894,1755608072794,16.26,-42.86,-13.12,786,775,782,413,836,34.48275862068966,-0.276,-0.654,0.703
157924,1755608072796,16.24,-42.82,-13.12,787,774,779,343,849,33.333333333333336,-0.277,-0.654,0.705
157953,1755608072798,16.25,-42.8,-13.11,786,768,785,333,840,34.48275862068966,-0.277,-0.654,0.705
157983,1755608072800,16.24,-42.78,-13.11,787,778,778,387,834,33.333333333333336,-0.276,-0.654,0.705
158012,1755608072802,16.22,-42.78,-13.12,790,777,786,412,838,34.48275862068966,-0.276,-0.653,0.705
158042,1755608072804,16.23,-42.85,-13.15,787,779,778,386,835,33.333333333333336,-0.276,-0.654,0.705
158072,1755608072806,16.21,-42.84,-13.15,786,774,783,337,836,33.333333333333336,-0.276,-0.655,0.705
158102,1755608072808,16.18,-42.8,-13.15,783,779,784,352,837,33.333333333333336,-0.276,-0.655,0.705
158131,1755608072810,16.18,-42.84,-13.15,784,780,780,402,846,34.48275862068966,-0.276,-0.655,0.705
158161,1755608072812,16.18,-42.88,-13.15,784,775,786,405,838,33.333333333333336,-0.276,-0.655,0.706
158190,1755608072814,16.17,-42.86,-13.15,785,766,781,358,837,34.48275862068966,-0.276,-0.655,0.706
158220,1755608072817,16.17,-42.83,-13.15,783,778,779,345,831,33.333333333333336,-0.275,-0.655,0.706
158249,1755608072819,16.19,-42.84,-13.15,783,776,784,391,840,34.48275862068966,-0.275,-0.655,0.705
158279,1755608072821,16.21,-42.84,-13.14,787,778,778,418,836,33.333333333333336,-0.274,-0.655,0.706
158309,1755608072823,16.21,-42.81,-13.14,783,779,777,375,843,33.333333333333336,-0.274,-0.655,0.706
158338,1755608072825,16.21,-42.83,-13.15,786,780,785,352,838,34.48275862068966,-0.275,-0.654,0.705
158368,1755608072828,16.22,-42.86,-13.14,785,770,783,379,840,33.333333333333336,-0.277,-0.654,0.704
158398,1755608072830,16.21,-42.85,-13.14,784,779,782,413,837,33.333333333333336,-0.278,-0.655,0.705
158428,1755608072832,16.2,-42.84,-13.12,789,773,778,397,857,33.333333333333336,-0.276,-0.655,0.706
158457,1755608072834,16.21,-42.86,-13.11,784,776,780,356,838,34.48275862068966,-0.276,-0.655,0.707
158487,1755608072836,15.77,-42.79,-13.09,786,774,784,351,842,33.333333333333336,-0.276,-0.654,0.707
158516,1755608072838,15.76,-42.72,-13.09,786,780,782,388,836,34.48275862068966,-0.275,-0.654,0.705
158546,1755608072840,15.77,-42.73,-13.11,783,768,781,412,834,33.333333333333336,-0.275,-0.654,0.705
158575,1755608072842,15.75,-42.76,-13.13,783,779,781,355,831,34.48275862068966,-0.276,-0.655,0.705
158605,1755608072844,15.76,-42.76,-13.11,781,768,786,348,836,33.333333333333336,-0.276,-0.655,0.706
158635,1755608072846,15.78,-42.76,-13.09,785,774,786,368,840,33.333333333333336,-0.276,-0.653,0.706
158664,1755608072849,15.8,-42.83,-13.11,779,768,781,409,836,34.48275862068966,-0.275,-0.652,0.705
158694,1755608072851,15.82,-42.85,-13.11,782,776,778,389,838,33.333333333333336,-0.276,-0.653,0.705
158723,1755608072852,15.82,-42.84,-13.12,786,773,783,337,841,34.48275862068966,-0.276,-0.654,0.705
158753,1755608072854,15.82,-42.83,-13.12,780,778,780,339,847,33.333333333333336,-0.276,-0.655,0.707
158782,1755608072857,15.85,-42.82,-13.11,783,776,784,403,837,34.48275862068966,-0.276,-0.654,0.706
158812,1755608072859,15.86,-42.81,-13.11,785,776,783,422,839,33.333333333333336,-0.275,-0.653,0.706
158841,1755608072860,15.87,-42.8,-13.13,785,774,783,369,834,34.48275862068966,-0.275,-0.652,0.705
158871,1755608072863,15.87,-42.81,-13.16,783,775,783,348,837,33.333333333333336,-0.276,-0.653,0.704
158901,1755608072865,15.84,-42.82,-13.17,787,770,783,382,844,33.333333333333336,-0.276,-0.654,0.705
158930,1755608072867,15.87,-42.83,-13.16,781,771,782,391,835,34.48275862068966,-0.276,-0.654,0.706
158960,1755608072869,15.89,-42.83,-13.16,800,779,782,380,827,33.333333333333336,-0.277,-0.655,0.706
158989,1755608072871,15.88,-42.82,-13.17,783,776,779,334,837,34.48275862068966,-0.275,-0.654,0.705
159019,1755608072874,15.9,-42.83,-13.16,779,779,778,362,834,33.333333333333336,-0.275,-0.654,0.704
159049,1755608072875,15.91,-42.86,-13.17,785,777,778,411,841,33.333333333333336,-0.276,-0.655,0.704
159078,1755608072878,15.89,-42.84,-13.17,785,774,779,407,834,34.48275862068966,-0.276,-0.656,0.706
159108,1755608072880,15.89,-42.83,-13.17,787,786,784,363,840,33.333333333333336,-0.275,-0.656,0.706
159138,1755608072882,15.92,-42.84,-13.15,787,777,781,333,840,33.333333333333336,-0.275,-0.655,0.705
159167,1755608072884,15.93,-42.85,-13.16,788,780,781,384,837,34.48275862068966,-0.275,-0.655,0.704
159197,1755608072885,15.92,-42.81,-13.15,782,777,779,399,835,33.333333333333336,-0.276,-0.655,0.704
159226,1755608072888,15.91,-42.79,-13.17,782,775,791,384,838,34.48275862068966,-0.276,-0.655,0.705
159256,1755608072889,15.92,-42.79,-13.16,781,791,785,340,844,33.333333333333336,-0.275,-0.655,0.705
159285,1755608072891,15.93,-42.78,-13.14,788,771,781,368,841,34.48275862068966,-0.275,-0.655,0.705
159315,1755608072894,15.93,-42.79,-13.15,790,778,781,405,839,33.333333333333336,-0.275,-0.655,0.705
159345,1755608072896,15.92,-42.78,-13.15,782,778,778,399,838,33.333333333333336,-0.275,-0.654,0.706
159374,1755608072898,15.93,-42.81,-13.16,787,779,786,318,839,34.48275862068966,-0.274,-0.655,0.706
159404,1755608072900,15.96,-42.81,-13.15,786,773,780,329,840,33.333333333333336,-0.274,-0.654,0.707
159433,1755608072902,15.97,-42.81,-13.14,781,775,784,379,847,34.48275862068966,-0.274,-0.653,0.706
159463,1755608072904,15.96,-42.81,-13.15,787,774,772,407,840,33.333333333333336,-0.273,-0.653,0.705
159493,1755608072906,15.99,-42.83,-13.16,786,774,779,375,839,33.333333333333336,-0.274,-0.654,0.705
159522,1755608072908,15.99,-42.85,-13.18,786,775,781,345,841,34.48275862068966,-0.275,-0.654,0.704
159552,1755608072910,15.98,-42.87,-13.19,786,771,786,368,835,33.333333333333336,-0.276,-0.655,0.703
159581,1755608072912,15.99,-42.88,-13.18,786,775,782,411,839,34.48275862068966,-0.277,-0.656,0.705
159611,1755608072914,15.99,-42.89,-13.17,786,777,782,403,839,33.333333333333336,-0.276,-0.656,0.706
159641,1755608072916,15.99,-42.87,-13.16,783,777,781,339,835,33.333333333333336,-0.275,-0.655,0.705
159670,1755608072919,15.98,-42.88,-13.17,785,780,780,353,838,34.48275862068966,-0.274,-0.656,0.703
159700,1755608072921,15.97,-42.89,-13.18,783,773,781,393,841,33.333333333333336,-0.275,-0.657,0.704
159730,1755608072923,15.99,-42.88,-13.15,785,777,787,418,834,33.333333333333336,-0.276,-0.657,0.706
159759,1755608072925,15.98,-42.86,-13.14,782,774,777,372,844,34.48275862068966,-0.275,-0.656,0.706
159789,1755608072926,16.0,-42.82,-13.12,787,776,781,337,842,33.333333333333336,-0.274,-0.655,0.705
159819,1755608072929,16.0,-42.84,-13.13,787,774,785,356,839,33.333333333333336,-0.274,-0.654,0.704
159848,1755608072931,15.97,-42.82,-13.14,779,772,782,395,835,34.48275862068966,-0.274,-0.654,0.706
159878,1755608072933,15.97,-42.79,-13.13,786,773,777,396,835,33.333333333333336,-0.274,-0.654,0.707
159907,1755608072935,15.98,-42.77,-13.13,788,779,784,312,836,34.48275862068966,-0.274,-0.655,0.707
159937,1755608072937,15.98,-42.79,-13.14,784,775,777,346,839,33.333333333333336,-0.274,-0.654,0.706
159966,1755608072939,15.98,-42.81,-13.15,783,772,782,405,841,34.48275862068966,-0.274,-0.654,0.705
159996,1755608072942,15.98,-42.82,-13.15,782,769,784,407,838,33.333333333333336,-0.274,-0.654,0.705
160026,1755608072944,15.99,-42.8,-13.15,787,775,782,363,837,33.333333333333336,-0.275,-0.655,0.706
160055,1755608072945,16.0,-42.79,-13.15,786,773,783,329,834,34.48275862068966,-0.275,-0.655,0.706
160085,1755608072947,16.0,-42.79,-13.16,785,774,782,368,845,33.333333333333336,-0.275,-0.654,0.706
160115,1755608072950,16.02,-42.78,-13.15,789,774,783,412,841,33.333333333333336,-0.274,-0.655,0.706
160144,1755608072951,16.01,-42.78,-13.16,784,770,783,398,838,34.48275862068966,-0.275,-0.657,0.706
160174,1755608072954,16.02,-42.77,-13.15,786,775,781,353,839,33.333333333333336,-0.277,-0.657,0.705
160203,1755608072956,16.04,-42.78,-13.13,782,779,781,338,838,34.48275862068966,-0.276,-0.655,0.705
160233,1755608072958,16.03,-42.79,-13.13,786,771,782,382,838,33.333333333333336,-0.275,-0.654,0.706
160262,1755608072960,16.0,-42.73,-13.12,784,772,778,375,837,34.48275862068966,-0.274,-0.654,0.707
160292,1755608072962,16.0,-42.75,-13.15,786,775,781,345,837,33.333333333333336,-0.272,-0.654,0.708
160321,1755608072964,16.03,-42.75,-13.15,786,775,786,333,833,34.48275862068966,-0.273,-0.653,0.709
160351,1755608072966,16.05,-42.71,-13.15,787,778,778,394,834,33.333333333333336,-0.273,-0.652,0.709
160381,1755608072968,16.06,-42.69,-13.16,785,770,783,404,837,33.333333333333336,-0.273,-0.653,0.706
160410,1755608072971,16.05,-42.72,-13.17,787,774,773,369,842,34.48275862068966,-0.274,-0.654,0.703
160440,1755608072973,16.07,-42.77,-13.16,786,768,782,348,833,33.333333333333336,-0.276,-0.655,0.703
160469,1755608072975,16.06,-42.77,-13.14,782,767,783,375,839,34.48275862068966,-0.277,-0.655,0.706
160499,1755608072977,16.06,-42.74,-13.12,786,777,779,410,833,33.333333333333336,-0.276,-0.653,0.707
160529,1755608072979,16.07,-42.73,-13.11,783,770,780,400,837,33.333333333333336,-0.274,-0.652,0.706
160558,1755608072981,16.07,-42.77,-13.13,788,774,784,344,837,34.48275862068966,-0.273,-0.653,0.706
160588,1755608072983,16.05,-42.79,-13.14,786,767,783,336,837,33.333333333333336,-0.275,-0.655,0.707
160617,1755608072985,16.06,-42.77,-13.13,784,780,787,372,840,34.48275862068966,-0.276,-0.656,0.708
160647,1755608072987,16.09,-42.77,-13.11,787,779,780,394,830,33.333333333333336,-0.276,-0.655,0.706
160676,1755608072989,16.11,-42.82,-13.1,783,775,775,348,835,34.48275862068966,-0.276,-0.652,0.703
160706,1755608072992,16.1,-42.84,-13.1,786,773,779,339,840,33.333333333333336,-0.276,-0.652,0.704
160735,1755608072994,16.07,-42.82,-13.11,788,774,783,376,836,34.48275862068966,-0.275,-0.652,0.706
160765,1755608072996,16.07,-42.82,-13.12,787,779,780,406,837,33.333333333333336,-0.274,-0.653,0.707
160795,1755608072998,16.11,-42.86,-13.11,782,775,782,408,832,33.333333333333336,-0.273,-0.654,0.706
160824,1755608073000,16.1,-42.86,-13.12,786,772,784,358,843,34.48275862068966,-0.275,-0.655,0.706
160854,1755608073002,16.07,-42.81,-13.12,781,776,782,301,844,33.333333333333336,-0.275,-0.655,0.705
160883,1755608073004,16.08,-42.87,-13.13,784,769,781,378,826,34.48275862068966,-0.276,-0.655,0.703
160913,1755608073006,16.11,-42.92,-13.1,786,777,786,392,842,33.333333333333336,-0.277,-0.656,0.704
160943,1755608073008,16.08,-42.87,-13.08,786,779,779,364,837,33.333333333333336,-0.276,-0.655,0.705
160972,1755608073010,16.06,-42.87,-13.09,783,778,781,342,840,34.48275862068966,-0.274,-0.655,0.704
161002,1755608073012,16.1,-42.9,-13.07,786,772,781,373,835,33.333333333333336,-0.275,-0.656,0.705
161031,1755608073015,16.09,-42.89,-13.06,786,771,784,416,837,34.48275862068966,-0.275,-0.655,0.704
161061,1755608073017,16.07,-42.89,-13.07,783,776,779,392,837,33.333333333333336,-0.274,-0.655,0.703
161090,1755608073018,16.09,-42.93,-13.06,787,774,781,347,840,34.48275862068966,-0.275,-0.656,0.703
161120,1755608073021,16.1,-42.91,-13.04,786,779,779,355,834,33.333333333333336,-0.276,-0.656,0.704
161150,1755608073023,16.1,-42.88,-13.04,784,776,782,411,836,33.333333333333336,-0.275,-0.655,0.703
161179,1755608073025,16.11,-42.89,-13.05,787,779,779,408,841,34.48275862068966,-0.274,-0.655,0.703
161209,1755608073027,16.11,-42.89,-13.06,785,775,783,355,842,33.333333333333336,-0.275,-0.656,0.703
161238,1755608073029,16.13,-42.87,-13.05,784,779,782,344,839,34.48275862068966,-0.276,-0.655,0.704
161268,1755608073031,16.13,-42.84,-13.05,785,773,783,389,842,33.333333333333336,-0.276,-0.655,0.705
161297,1755608073033,16.14,-42.84,-13.06,785,777,787,386,841,34.48275862068966,-0.276,-0.654,0.703
161327,1755608073035,16.15,-42.84,-13.07,786,776,783,363,836,33.333333333333336,-0.276,-0.654,0.702
161357,1755608073037,16.13,-42.84,-13.09,784,770,784,330,837,33.333333333333336,-0.275,-0.655,0.702
161387,1755608073039,16.12,-42.82,-13.09,786,779,776,359,838,33.333333333333336,-0.275,-0.656,0.702
161407,1755608073041,16.13,-42.82,-13.09,788,767,789,372,840,50.0,-0.275,-0.655,0.701
161436,1755608073043,16.13,-42.86,-13.1,784,779,777,368,838,34.48275862068966,-0.276,-0.655,0.701
161466,1755608073045,16.11,-42.86,-13.12,780,765,785,418,835,33.333333333333336,-0.276,-0.656,0.702
161496,1755608073047,16.12,-42.83,-13.11,784,770,783,400,839,33.333333333333336,-0.276,-0.656,0.701
161525,1755608073049,16.13,-42.83,-13.09,782,773,780,355,836,34.48275862068966,-0.276,-0.657,0.7
161555,1755608073051,16.13,-42.84,-13.08,786,777,784,353,837,33.333333333333336,-0.277,-0.657,0.699
161585,1755608073054,16.08,-42.8,-13.07,786,792,780,401,839,33.333333333333336,-0.277,-0.657,0.7
161614,1755608073056,16.06,-42.81,-13.06,789,773,784,418,838,34.48275862068966,-0.276,-0.653,0.701
161644,1755608073058,16.1,-42.84,-13.05,785,775,781,390,839,33.333333333333336,-0.275,-0.652,0.702
161674,1755608073060,16.11,-42.85,-13.05,785,778,782,347,839,33.333333333333336,-0.273,-0.652,0.703
161703,1755608073062,16.08,-42.82,-13.07,786,775,785,347,835,34.48275862068966,-0.273,-0.655,0.703
161733,1755608073064,16.08,-42.79,-13.08,785,769,778,421,836,33.333333333333336,-0.273,-0.656,0.703
161753,1755608073066,16.1,-42.78,-13.06,784,774,784,345,835,50.0,-0.274,-0.656,0.701
161783,1755608073068,16.12,-42.78,-13.05,786,776,796,392,838,33.333333333333336,-0.275,-0.654,0.7
161812,1755608073070,16.09,-42.79,-13.06,789,778,786,380,835,34.48275862068966,-0.275,-0.653,0.7
161842,1755608073072,16.09,-42.78,-13.06,786,776,781,336,839,33.333333333333336,-0.275,-0.653,0.703
161872,1755608073074,16.1,-42.77,-13.06,785,773,780,333,836,33.333333333333336,-0.273,-0.654,0.704
161901,1755608073076,16.1,-42.77,-13.07,786,776,781,385,842,34.48275862068966,-0.273,-0.655,0.704
161931,1755608073078,16.12,-42.77,-13.06,785,768,784,414,836,33.333333333333336,-0.274,-0.654,0.703
161960,1755608073080,16.12,-42.79,-13.08,783,775,777,375,838,34.48275862068966,-0.274,-0.654,0.702
161990,1755608073082,16.1,-42.79,-13.09,784,777,779,346,840,33.333333333333336,-0.275,-0.655,0.702
162019,1755608073084,16.11,-42.79,-13.09,786,775,784,368,834,34.48275862068966,-0.276,-0.656,0.702
162049,1755608073086,16.14,-42.77,-13.06,788,778,785,410,835,33.333333333333336,-0.275,-0.656,0.703
162079,1755608073088,16.13,-42.77,-13.07,785,776,781,382,836,33.333333333333336,-0.274,-0.656,0.704
162108,1755608073090,16.12,-42.72,-13.07,786,784,777,355,837,34.48275862068966,-0.273,-0.654,0.705
162138,1755608073092,16.13,-42.67,-13.09,785,772,778,357,840,33.333333333333336,-0.273,-0.652,0.704
162158,1755608073094,16.14,-42.67,-13.1,788,767,778,375,840,50.0,-0.275,-0.653,0.702
162188,1755608073096,16.13,-42.68,-13.11,787,768,782,367,833,33.333333333333336,-0.276,-0.655,0.702
162217,1755608073098,16.16,-42.67,-13.09,785,774,785,405,846,34.48275862068966,-0.276,-0.654,0.701
162247,1755608073101,16.19,-42.68,-13.07,787,773,781,422,837,33.333333333333336,-0.276,-0.652,0.699
162276,1755608073102,16.17,-42.74,-13.09,784,773,775,380,836,34.48275862068966,-0.276,-0.651,0.698
162306,1755608073104,16.19,-42.83,-13.08,783,770,782,351,839,33.333333333333336,-0.276,-0.653,0.701
162336,1755608073106,16.26,-42.85,-13.04,787,774,781,367,833,33.333333333333336,-0.277,-0.655,0.704
162366,1755608073108,16.25,-42.81,-13.03,782,774,781,409,830,33.333333333333336,-0.276,-0.655,0.703
162395,1755608073111,16.22,-42.82,-13.04,784,777,780,409,843,34.48275862068966,-0.276,-0.655,0.7
162425,1755608073112,16.24,-42.87,-13.03,785,775,783,353,838,33.333333333333336,-0.277,-0.653,0.701
162454,1755608073115,16.23,-42.85,-13.02,786,780,779,349,839,34.48275862068966,-0.278,-0.654,0.703
162484,1755608073117,16.2,-42.81,-13.02,783,776,774,400,839,33.333333333333336,-0.276,-0.655,0.702
162514,1755608073119,16.2,-42.83,-13.02,791,779,784,414,839,33.333333333333336,-0.275,-0.654,0.7
162543,1755608073121,16.22,-42.89,-13.02,782,772,785,366,837,34.48275862068966,-0.276,-0.654,0.701
162573,1755608073122,16.21,-42.9,-13.02,785,771,783,337,834,33.333333333333336,-0.276,-0.655,0.704
162602,1755608073124,16.2,-42.86,-13.03,783,776,781,372,841,34.48275862068966,-0.274,-0.656,0.703
162622,1755608073127,16.21,-42.87,-13.02,784,775,781,356,839,50.0,-0.274,-0.656,0.701
162642,1755608073129,16.23,-42.9,-13.02,787,778,780,382,840,50.0,-0.275,-0.655,0.7
162672,1755608073131,16.24,-42.93,-13.02,787,774,779,349,837,33.333333333333336,-0.276,-0.654,0.699
162702,1755608073133,16.21,-42.92,-13.05,780,774,784,375,835,33.333333333333336,-0.276,-0.655,0.701
162731,1755608073135,16.21,-42.93,-13.06,781,782,784,397,840,34.48275862068966,-0.276,-0.656,0.702
162761,1755608073137,16.26,-42.92,-13.04,786,775,784,375,830,33.333333333333336,-0.275,-0.656,0.702
162781,1755608073139,16.28,-42.92,-13.03,785,770,783,393,840,50.0,-0.274,-0.656,0.702
162811,1755608073141,16.25,-42.92,-13.05,782,776,777,364,841,33.333333333333336,-0.275,-0.656,0.701
162840,1755608073143,16.24,-42.93,-13.05,783,777,778,292,833,34.48275862068966,-0.276,-0.655,0.701
162870,1755608073145,16.26,-42.93,-13.04,786,769,781,349,836,33.333333333333336,-0.277,-0.656,0.701
162899,1755608073147,16.24,-42.89,-13.03,780,770,783,404,834,34.48275862068966,-0.277,-0.651,0.702
162929,1755608073149,16.21,-42.87,-13.03,789,776,783,398,834,33.333333333333336,-0.276,-0.651,0.701
162958,1755608073151,16.2,-42.88,-13.03,786,780,780,331,851,34.48275862068966,-0.276,-0.652,0.702
162988,1755608073153,16.2,-42.84,-13.02,784,775,782,369,841,33.333333333333336,-0.275,-0.652,0.702
170715,1755608073156,24.63,-52.47,-11.79,794,1,784,388,883,0.12941633234114144,-0.379,-0.721,0.561
170744,1755608073159,24.84,-52.19,-11.81,795,0,780,354,889,34.48275862068966,-0.392,-0.728,0.561
170774,1755608073161,24.8,-52.04,-11.93,789,0,780,355,886,33.333333333333336,-0.403,-0.735,0.55
170803,1755608073163,24.76,-52.2,-11.95,791,0,783,407,902,34.48275862068966,-0.41,-0.74,0.538
170833,1755608073164,24.67,-52.31,-11.93,793,4,780,414,892,33.333333333333336,-0.414,-0.742,0.531
170863,1755608073167,24.56,-52.34,-11.89,790,2,780,361,888,33.333333333333336,-0.408,-0.738,0.532
170892,1755608073168,24.54,-52.36,-11.86,793,1,785,341,894,34.48275862068966,-0.403,-0.736,0.535
170922,1755608073171,24.43,-52.37,-11.83,790,2,780,344,886,33.333333333333336,-0.401,-0.736,0.539
170951,1755608073173,24.4,-52.43,-11.82,790,0,782,398,889,34.48275862068966,-0.398,-0.735,0.547
170981,1755608073175,24.24,-52.5,-11.9,795,0,782,371,887,33.333333333333336,-0.395,-0.732,0.548
171010,1755608073177,24.24,-52.46,-11.9,793,3,776,328,883,34.48275862068966,-0.397,-0.732,0.548
171040,1755608073179,24.13,-52.39,-11.95,796,4,781,310,887,33.333333333333336,-0.399,-0.731,0.547
171069,1755608073181,23.86,-52.46,-12.07,795,4,782,388,888,34.48275862068966,-0.398,-0.73,0.543
171099,1755608073204,23.77,-52.55,-12.12,793,10,792,347,884,33.333333333333336,-0.398,-0.73,0.541
171129,1755608073234,23.72,-52.61,-12.13,797,0,780,333,881,33.333333333333336,-0.395,-0.732,0.543
171149,1755608073253,23.62,-52.67,-12.16,797,0,783,393,883,50.0,-0.392,-0.735,0.553
171178,1755608073283,23.53,-52.59,-12.2,788,6,782,350,885,34.48275862068966,-0.388,-0.734,0.557
171208,1755608073312,23.62,-52.43,-12.15,793,0,783,346,888,33.333333333333336,-0.389,-0.734,0.559
171237,1755608073342,23.59,-52.4,-12.16,793,0,776,400,885,34.48275862068966,-0.385,-0.731,0.556
171267,1755608073372,23.55,-52.37,-12.22,794,2,776,395,886,33.333333333333336,-0.384,-0.729,0.557
171297,1755608073401,23.52,-52.25,-12.26,791,1,785,355,887,33.333333333333336,-0.385,-0.729,0.559
171326,1755608073431,23.6,-52.04,-12.22,793,0,784,322,885,34.48275862068966,-0.389,-0.735,0.563
171356,1755608073461,23.6,-51.87,-12.17,791,4,783,356,891,33.333333333333336,-0.388,-0.738,0.566
171386,1755608073491,23.5,-51.64,-12.19,798,0,780,396,891,33.333333333333336,-0.387,-0.735,0.566
171415,1755608073520,23.24,-51.38,-12.28,793,0,776,386,888,34.48275862068966,-0.383,-0.729,0.562
171445,1755608073550,23.05,-51.16,-12.36,788,2,781,339,881,33.333333333333336,-0.384,-0.729,0.564
171474,1755608073579,22.9,-50.98,-12.39,789,1,785,338,883,34.48275862068966,-0.383,-0.726,0.57
171504,1755608073609,22.83,-50.8,-12.4,788,1,781,401,889,33.333333333333336,-0.381,-0.722,0.574
171533,1755608073638,22.82,-50.7,-12.36,797,4,776,399,887,34.48275862068966,-0.38,-0.72,0.574
171563,1755608073668,22.87,-50.66,-12.32,788,0,782,351,885,33.333333333333336,-0.378,-0.721,0.577
171593,1755608073697,22.65,-50.6,-12.4,795,0,779,336,877,33.333333333333336,-0.374,-0.717,0.581
171622,1755608073727,22.52,-50.3,-12.47,793,2,780,386,886,34.48275862068966,-0.369,-0.715,0.587
171652,1755608073756,22.25,-50.01,-12.59,793,0,780,426,882,33.333333333333336,-0.367,-0.716,0.595
171681,1755608073786,21.86,-49.89,-12.73,792,0,783,411,882,34.48275862068966,-0.365,-0.712,0.593
171711,1755608073816,21.85,-49.88,-12.76,805,1,779,348,882,33.333333333333336,-0.364,-0.708,0.594
171741,1755608073846,21.99,-49.92,-12.75,793,5,778,351,882,33.333333333333336,-0.366,-0.709,0.596
171770,1755608073875,22.11,-49.98,-12.73,787,0,784,398,883,34.48275862068966,-0.366,-0.708,0.598
171800,1755608073905,22.21,-49.95,-12.72,793,2,782,390,882,33.333333333333336,-0.361,-0.705,0.599
171830,1755608073935,22.44,-49.74,-12.67,792,1,784,363,885,33.333333333333336,-0.363,-0.709,0.602
171850,1755608073954,22.4,-49.7,-12.69,790,8,782,415,876,50.0,-0.361,-0.711,0.605
171879,1755608073984,22.56,-49.63,-12.62,793,4,782,357,882,34.48275862068966,-0.364,-0.711,0.605
171909,1755608074013,22.44,-49.71,-12.64,788,1,780,354,878,33.333333333333336,-0.362,-0.707,0.6
171938,1755608074043,22.44,-49.81,-12.68,796,3,781,397,881,34.48275862068966,-0.364,-0.706,0.6
171968,1755608074072,22.59,-49.7,-12.65,792,13,782,429,878,33.333333333333336,-0.363,-0.702,0.606
171997,1755608074102,22.41,-49.77,-12.76,789,7,782,385,884,34.48275862068966,-0.362,-0.705,0.607
172027,1755608074131,22.41,-49.78,-12.76,791,0,781,301,879,33.333333333333336,-0.365,-0.707,0.609
172056,1755608074161,22.57,-49.62,-12.73,791,0,778,366,881,34.48275862068966,-0.365,-0.706,0.611
172086,1755608074190,22.56,-49.47,-12.72,794,4,779,417,878,33.333333333333336,-0.363,-0.7,0.607
172115,1755608074220,22.61,-49.57,-12.71,792,0,783,403,881,34.48275862068966,-0.362,-0.699,0.603
172145,1755608074249,22.61,-49.59,-12.74,793,4,783,346,878,33.333333333333336,-0.366,-0.7,0.607
172174,1755608074279,22.65,-49.49,-12.72,793,0,780,348,884,34.48275862068966,-0.368,-0.7,0.609
172204,1755608074309,22.62,-49.44,-12.73,789,2,784,423,914,33.333333333333336,-0.369,-0.702,0.609
172233,1755608074338,22.59,-49.43,-12.74,794,9,784,407,879,34.48275862068966,-0.367,-0.701,0.608
172263,1755608074368,22.62,-49.45,-12.74,789,1,779,366,881,33.333333333333336,-0.367,-0.701,0.607
172292,1755608074397,22.64,-49.39,-12.74,793,0,780,328,883,34.48275862068966,-0.369,-0.703,0.609
172322,1755608074427,22.69,-49.31,-12.72,796,0,780,389,883,33.333333333333336,-0.368,-0.704,0.609
172351,1755608074456,22.81,-49.21,-12.66,788,0,780,430,881,34.48275862068966,-0.37,-0.703,0.61
172381,1755608074485,22.79,-49.24,-12.65,794,2,779,388,881,33.333333333333336,-0.367,-0.699,0.607
172410,1755608074515,22.81,-49.24,-12.68,788,1,773,341,888,34.48275862068966,-0.369,-0.699,0.607
172440,1755608074545,22.76,-49.15,-12.68,789,5,779,370,876,33.333333333333336,-0.372,-0.701,0.608
172469,1755608074574,22.62,-49.26,-12.74,789,5,779,393,877,34.48275862068966,-0.37,-0.698,0.608
172499,1755608074604,22.81,-49.24,-12.67,795,0,795,393,884,33.333333333333336,-0.373,-0.702,0.614
172528,1755608074633,22.97,-48.9,-12.54,788,0,781,352,880,34.48275862068966,-0.372,-0.698,0.618
172558,1755608074663,23.02,-48.91,-12.6,788,3,780,358,883,33.333333333333336,-0.376,-0.7,0.614
172587,1755608074692,22.86,-49.11,-12.61,792,0,780,396,882,34.48275862068966,-0.371,-0.694,0.604
172617,1755608074722,23.0,-49.25,-12.65,792,3,780,408,884,33.333333333333336,-0.372,-0.695,0.604
172646,1755608074751,22.81,-49.25,-12.69,789,4,782,369,898,34.48275862068966,-0.376,-0.698,0.608
172676,1755608074781,22.74,-49.33,-12.75,791,4,782,350,882,33.333333333333336,-0.374,-0.698,0.608
172706,1755608074811,22.67,-49.34,-12.75,791,2,785,373,882,33.333333333333336,-0.375,-0.698,0.61
172735,1755608074840,22.57,-49.43,-12.83,791,0,780,415,882,34.48275862068966,-0.371,-0.699,0.605
172765,1755608074870,22.25,-49.68,-13.01,792,3,783,397,879,33.333333333333336,-0.371,-0.701,0.602
172795,1755608074899,22.13,-49.66,-13.04,791,0,781,298,879,33.333333333333336,-0.372,-0.704,0.608
172824,1755608074929,22.37,-49.32,-12.94,787,0,784,343,900,34.48275862068966,-0.375,-0.708,0.619
172854,1755608074958,22.42,-49.12,-12.87,792,0,781,397,887,33.333333333333336,-0.371,-0.706,0.618
172883,1755608074988,22.5,-49.15,-12.83,790,0,776,411,875,34.48275862068966,-0.366,-0.7,0.61
172913,1755608075018,22.51,-49.11,-12.82,790,0,781,355,883,33.333333333333336,-0.365,-0.698,0.606
172943,1755608075047,22.44,-49.11,-12.88,790,5,779,302,877,33.333333333333336,-0.367,-0.699,0.607
172972,1755608075077,22.51,-48.98,-12.83,792,0,782,381,878,34.48275862068966,-0.373,-0.704,0.614
173002,1755608075106,22.7,-48.86,-12.73,793,0,777,414,881,33.333333333333336,-0.374,-0.704,0.616
173031,1755608075136,22.78,-48.77,-12.68,787,9,779,392,884,34.48275862068966,-0.372,-0.701,0.614
173061,1755608075165,22.79,-48.71,-12.69,789,1,776,339,875,33.333333333333336,-0.368,-0.696,0.609
173090,1755608075195,22.8,-48.66,-12.7,787,0,781,351,880,34.48275862068966,-0.369,-0.694,0.608
173120,1755608075224,22.71,-48.71,-12.76,791,0,778,409,879,33.333333333333336,-0.373,-0.695,0.608
173149,1755608075254,22.74,-48.69,-12.74,787,4,774,406,879,34.48275862068966,-0.378,-0.697,0.611
173179,1755608075283,22.81,-48.62,-12.74,788,0,783,351,882,33.333333333333336,-0.377,-0.697,0.614
173208,1755608075313,22.87,-48.5,-12.73,791,17,784,370,879,34.48275862068966,-0.375,-0.694,0.616
173238,1755608075342,22.85,-48.51,-12.76,792,1,777,425,881,33.333333333333336,-0.373,-0.692,0.614
173267,1755608075372,22.9,-48.52,-12.75,785,0,775,427,882,34.48275862068966,-0.373,-0.692,0.612
173297,1755608075401,22.94,-48.53,-12.72,789,6,779,360,882,33.333333333333336,-0.374,-0.693,0.612
173326,1755608075431,22.95,-48.51,-12.72,789,0,775,333,882,34.48275862068966,-0.377,-0.695,0.613
173356,1755608075461,22.9,-48.49,-12.69,790,2,779,378,884,33.333333333333336,-0.377,-0.692,0.612
173385,1755608075490,22.85,-48.47,-12.69,791,3,783,401,880,34.48275862068966,-0.377,-0.692,0.613
173415,1755608075520,22.8,-48.49,-12.69,785,0,778,388,882,33.333333333333336,-0.376,-0.693,0.615
173444,1755608075549,22.79,-48.45,-12.69,789,1,779,340,881,34.48275862068966,-0.375,-0.69,0.618
173474,1755608075579,22.79,-48.39,-12.71,789,0,775,365,877,33.333333333333336,-0.375,-0.688,0.619
173504,1755608075608,22.79,-48.32,-12.75,792,0,781,422,879,33.333333333333336,-0.377,-0.689,0.616
173533,1755608075638,22.77,-48.36,-12.76,788,0,782,407,882,34.48275862068966,-0.377,-0.69,0.612
173563,1755608075667,22.82,-48.31,-12.75,792,0,781,359,880,33.333333333333336,-0.378,-0.692,0.616
173592,1755608075697,22.76,-48.3,-12.78,786,4,784,333,882,34.48275862068966,-0.376,-0.691,0.618
173621,1755608075726,22.83,-48.29,-12.78,785,0,777,388,879,34.48275862068966,-0.376,-0.69,0.62
173651,1755608075756,22.86,-48.21,-12.77,789,0,779,404,882,33.333333333333336,-0.376,-0.689,0.617
173680,1755608075785,22.92,-48.18,-12.75,790,0,783,351,882,34.48275862068966,-0.377,-0.69,0.617
173710,1755608075815,22.87,-48.2,-12.76,791,5,778,326,875,33.333333333333336,-0.377,-0.691,0.617
173740,1755608075844,22.9,-48.18,-12.76,792,5,783,359,882,33.333333333333336,-0.375,-0.69,0.618
173769,1755608075874,22.86,-48.18,-12.76,787,2,775,407,881,34.48275862068966,-0.375,-0.689,0.619
173799,1755608075904,22.91,-48.19,-12.77,793,7,778,393,881,33.333333333333336,-0.376,-0.69,0.618
173829,1755608075934,22.82,-48.19,-12.78,802,2,777,342,881,33.333333333333336,-0.378,-0.69,0.618
173849,1755608075953,22.91,-48.14,-12.76,790,0,776,418,881,50.0,-0.381,-0.691,0.618
173878,1755608075983,22.83,-48.13,-12.73,786,6,783,352,878,34.48275862068966,-0.38,-0.69,0.618
173908,1755608076012,23.06,-48.02,-12.66,785,2,779,355,878,33.333333333333336,-0.379,-0.689,0.621
173937,1755608076042,22.85,-48.01,-12.73,787,2,781,399,877,34.48275862068966,-0.376,-0.686,0.618
173967,1755608076071,22.96,-48.03,-12.72,791,2,783,390,880,33.333333333333336,-0.378,-0.687,0.619
173996,1755608076101,23.01,-47.91,-12.7,790,9,782,346,883,34.48275862068966,-0.382,-0.687,0.62
174026,1755608076131,23.1,-47.77,-12.67,785,6,778,342,874,33.333333333333336,-0.384,-0.686,0.62
174055,1755608076160,23.03,-47.82,-12.67,791,0,777,393,881,34.48275862068966,-0.382,-0.684,0.617
174085,1755608076190,23.08,-47.85,-12.67,790,0,774,414,883,33.333333333333336,-0.381,-0.683,0.616
174115,1755608076220,23.0,-47.87,-12.7,785,0,782,369,885,33.333333333333336,-0.382,-0.684,0.618
174144,1755608076250,22.92,-47.94,-12.73,784,4,781,340,882,34.48275862068966,-0.382,-0.686,0.62
174165,1755608076269,22.93,-47.96,-12.72,789,7,778,398,887,47.61904761904762,-0.383,-0.687,0.622
174194,1755608076299,22.95,-48.0,-12.69,790,2,784,362,881,34.48275862068966,-0.383,-0.686,0.618
