timestamp_ms,recv_timestamp_ms,pitch,roll,yaw,flex1,flex2,flex3,flex4,flex5,sampling_hz,accel_x,accel_y,accel_z
144399,1755604200307,8.64,67.44,-17.95,804,844,815,327,869,34.48275862068966,-0.139,0.916,0.389
144429,1755604200309,8.65,67.42,-17.99,799,840,812,352,849,33.333333333333336,-0.14,0.915,0.39
144458,1755604200311,8.62,67.42,-17.96,805,844,808,409,846,34.48275862068966,-0.14,0.915,0.39
144488,1755604200313,8.6,67.39,-17.96,801,844,803,413,845,33.333333333333336,-0.139,0.915,0.388
144517,1755604200315,8.58,67.27,-17.98,798,848,812,336,844,34.48275862068966,-0.139,0.915,0.388
144547,1755604200317,8.54,67.28,-17.95,797,847,803,337,846,33.333333333333336,-0.139,0.915,0.392
144576,1755604200319,8.57,67.3,-17.97,797,843,810,372,844,34.48275862068966,-0.139,0.916,0.393
144606,1755604200321,8.57,67.32,-17.97,804,846,801,398,850,33.333333333333336,-0.139,0.916,0.392
144636,1755604200324,8.55,67.3,-17.98,806,832,809,375,837,33.333333333333336,-0.139,0.914,0.391
144665,1755604200326,8.55,67.3,-17.98,802,848,816,301,841,34.48275862068966,-0.139,0.915,0.392
144695,1755604200328,8.53,67.29,-17.98,802,850,814,339,851,33.333333333333336,-0.138,0.914,0.393
144724,1755604200330,8.55,67.74,-17.98,799,836,808,409,847,34.48275862068966,-0.139,0.915,0.394
144754,1755604200332,8.55,67.74,-17.97,797,847,809,358,842,33.333333333333336,-0.138,0.915,0.394
144784,1755604200334,8.55,67.71,-17.98,803,844,809,338,843,33.333333333333336,-0.136,0.913,0.392
144813,1755604200336,8.55,67.7,-18.0,793,833,814,354,842,34.48275862068966,-0.137,0.915,0.391
144843,1755604200337,8.55,67.71,-18.0,806,839,808,381,843,33.333333333333336,-0.137,0.915,0.392
144873,1755604200339,8.57,67.66,-18.02,792,836,810,407,849,33.333333333333336,-0.137,0.913,0.391
144893,1755604200341,8.57,67.65,-18.03,802,857,807,365,848,50.0,-0.137,0.914,0.392
144923,1755604200343,8.56,67.62,-18.03,804,844,812,394,839,33.333333333333336,-0.137,0.914,0.393
144952,1755604200345,8.57,67.59,-18.05,811,835,816,366,849,34.48275862068966,-0.138,0.913,0.392
144982,1755604200348,8.57,67.59,-18.05,803,837,811,347,854,33.333333333333336,-0.139,0.914,0.395
145011,1755604200349,8.57,67.6,-18.05,801,840,816,363,849,34.48275862068966,-0.139,0.914,0.394
145041,1755604200351,8.57,67.58,-18.07,800,841,799,400,847,33.333333333333336,-0.138,0.913,0.394
145071,1755604200353,8.54,67.58,-18.05,793,833,813,386,850,33.333333333333336,-0.138,0.915,0.394
145101,1755604200356,8.54,67.62,-18.07,803,835,809,335,844,33.333333333333336,-0.138,0.915,0.397
145130,1755604200357,8.55,67.62,-18.08,803,842,816,330,849,34.48275862068966,-0.137,0.914,0.394
145160,1755604200360,8.53,67.6,-18.08,804,841,814,379,843,33.333333333333336,-0.136,0.914,0.391
145189,1755604200361,8.53,67.62,-18.12,799,837,810,383,852,34.48275862068966,-0.136,0.916,0.393
145219,1755604200363,8.54,67.61,-18.15,795,843,802,347,848,33.333333333333336,-0.137,0.915,0.394
145249,1755604200365,8.54,67.6,-18.15,802,840,808,346,843,33.333333333333336,-0.137,0.914,0.392
145278,1755604200367,8.53,67.59,-18.17,805,846,813,352,846,34.48275862068966,-0.137,0.915,0.391
145307,1755604200369,8.54,67.57,-18.18,799,835,811,409,849,34.48275862068966,-0.138,0.915,0.394
145337,1755604200371,8.55,67.57,-18.17,801,835,802,405,845,33.333333333333336,-0.139,0.914,0.396
145366,1755604200373,8.56,67.62,-18.14,804,847,811,308,850,34.48275862068966,-0.138,0.916,0.394
145396,1755604200376,8.55,67.59,-18.16,801,838,805,330,847,33.333333333333336,-0.135,0.915,0.391
145425,1755604200377,8.55,67.55,-18.21,800,838,814,401,846,34.48275862068966,-0.136,0.914,0.391
145455,1755604200379,8.58,67.49,-18.33,802,840,810,396,842,33.333333333333336,-0.14,0.915,0.394
145484,1755604200382,8.57,67.54,-18.28,800,835,814,354,841,34.48275862068966,-0.141,0.915,0.395
145514,1755604200384,8.58,67.56,-18.27,806,846,811,344,846,33.333333333333336,-0.141,0.914,0.394
145543,1755604200385,8.6,67.57,-18.25,802,828,808,396,848,34.48275862068966,-0.139,0.915,0.393
145573,1755604200388,8.59,67.56,-18.24,799,842,811,411,845,33.333333333333336,-0.138,0.914,0.392
145603,1755604200390,8.59,67.6,-18.27,798,837,814,376,850,33.333333333333336,-0.137,0.916,0.392
145633,1755604200392,8.58,67.58,-18.31,803,846,812,341,843,33.333333333333336,-0.136,0.914,0.39
145662,1755604200394,8.58,67.53,-18.34,813,847,810,350,856,34.48275862068966,-0.137,0.915,0.388
145692,1755604200396,8.56,67.52,-18.36,803,832,809,401,847,33.333333333333336,-0.137,0.916,0.391
145722,1755604200398,8.56,67.5,-18.41,802,844,803,391,845,33.333333333333336,-0.138,0.916,0.392
145751,1755604200400,8.56,67.51,-18.46,805,839,812,347,852,34.48275862068966,-0.139,0.915,0.393
145781,1755604200401,8.55,67.51,-18.44,798,835,810,336,835,33.333333333333336,-0.14,0.914,0.393
145810,1755604200404,8.55,67.47,-18.45,806,835,810,386,854,34.48275862068966,-0.139,0.914,0.392
145839,1755604200406,8.54,67.45,-18.48,801,849,813,411,841,34.48275862068966,-0.138,0.915,0.392
145869,1755604200408,8.52,67.44,-18.5,799,840,809,387,848,33.333333333333336,-0.138,0.915,0.393
145899,1755604200410,8.54,67.45,-18.54,797,843,806,338,846,33.333333333333336,-0.14,0.914,0.393
145928,1755604200412,8.55,67.47,-18.57,801,834,816,372,851,34.48275862068966,-0.139,0.915,0.392
145958,1755604200414,8.55,67.48,-18.62,802,840,804,417,848,33.333333333333336,-0.137,0.914,0.388
145987,1755604200416,8.53,67.41,-18.68,796,841,806,408,841,34.48275862068966,-0.14,0.913,0.39
146017,1755604200418,8.5,67.41,-18.69,801,843,808,353,850,33.333333333333336,-0.144,0.915,0.395
146046,1755604200420,8.52,67.46,-18.7,795,835,806,338,853,34.48275862068966,-0.145,0.913,0.396
146076,1755604200422,8.53,67.47,-18.68,795,842,818,386,844,33.333333333333336,-0.145,0.912,0.391
146105,1755604200423,8.51,67.43,-18.68,801,834,807,400,843,34.48275862068966,-0.142,0.913,0.389
146135,1755604200425,8.52,67.44,-18.7,802,842,809,368,849,33.333333333333336,-0.141,0.914,0.391
146164,1755604200428,8.51,67.45,-18.71,799,843,808,339,842,34.48275862068966,-0.14,0.915,0.392
146194,1755604200430,8.52,67.43,-18.75,801,845,805,388,846,33.333333333333336,-0.139,0.914,0.389
146223,1755604200432,8.53,67.37,-18.79,800,841,810,401,844,34.48275862068966,-0.141,0.913,0.388
146253,1755604200433,8.52,67.33,-18.8,795,844,803,381,828,33.333333333333336,-0.145,0.915,0.391
146282,1755604200436,8.55,67.33,-18.8,804,835,812,357,841,34.48275862068966,-0.147,0.915,0.395
146312,1755604200437,8.59,67.38,-18.77,804,848,809,355,847,33.333333333333336,-0.145,0.914,0.398
146341,1755604200440,8.6,67.41,-18.73,804,835,811,408,847,34.48275862068966,-0.141,0.915,0.396
146371,1755604200442,8.63,67.41,-18.77,799,855,808,392,844,33.333333333333336,-0.14,0.915,0.395
146391,1755604200444,8.65,67.42,-18.8,801,845,807,383,846,50.0,-0.141,0.915,0.394
146420,1755604200445,8.65,67.42,-18.8,797,844,815,393,852,34.48275862068966,-0.142,0.914,0.391
146450,1755604200447,8.67,67.41,-18.83,799,851,820,338,842,33.333333333333336,-0.143,0.914,0.39
146480,1755604200449,8.68,67.4,-18.84,800,835,805,340,841,33.333333333333336,-0.144,0.915,0.393
146510,1755604200451,8.69,67.41,-18.83,797,843,809,395,854,33.333333333333336,-0.144,0.914,0.393
146539,1755604200453,8.72,67.4,-18.85,802,848,815,407,845,34.48275862068966,-0.143,0.914,0.393
146568,1755604200455,8.73,67.42,-18.85,796,834,814,370,849,34.48275862068966,-0.144,0.915,0.394
146598,1755604200457,8.73,67.47,-18.84,796,841,820,354,844,33.333333333333336,-0.144,0.914,0.392
146627,1755604200460,8.75,67.47,-18.84,802,836,808,388,851,34.48275862068966,-0.144,0.913,0.389
146657,1755604200461,8.77,67.43,-18.84,803,841,813,406,850,33.333333333333336,-0.144,0.913,0.39
146686,1755604200464,8.77,67.45,-18.83,799,843,811,364,843,34.48275862068966,-0.142,0.914,0.391
146706,1755604200466,8.78,67.46,-18.85,798,846,810,381,842,50.0,-0.14,0.915,0.389
146736,1755604200468,8.77,67.43,-18.87,802,841,821,357,854,33.333333333333336,-0.139,0.915,0.387
146766,1755604200470,8.75,67.38,-18.86,796,841,807,343,849,33.333333333333336,-0.14,0.914,0.388
146795,1755604200472,8.75,67.36,-18.91,803,849,814,355,846,34.48275862068966,-0.141,0.914,0.388
146825,1755604200474,8.75,67.33,-18.93,802,833,811,401,847,33.333333333333336,-0.144,0.914,0.391
146854,1755604200476,8.75,67.32,-18.93,798,826,814,400,844,34.48275862068966,-0.143,0.914,0.393
146884,1755604200478,8.77,67.3,-18.97,804,844,805,346,851,33.333333333333336,-0.143,0.914,0.391
146913,1755604200480,8.75,67.25,-18.97,794,834,809,358,852,34.48275862068966,-0.142,0.914,0.392
146942,1755604200482,8.71,67.26,-18.97,802,834,812,394,840,34.48275862068966,-0.14,0.915,0.394
146972,1755604200484,8.74,67.29,-19.04,801,845,806,408,843,33.333333333333336,-0.141,0.915,0.395
147001,1755604200486,8.74,67.26,-19.09,806,842,813,317,847,34.48275862068966,-0.142,0.912,0.393
147031,1755604200488,8.76,67.17,-19.19,796,844,811,295,843,33.333333333333336,-0.144,0.909,0.39
147060,1755604200490,8.84,67.05,-19.32,798,839,812,362,850,34.48275862068966,-0.145,0.907,0.39
147090,1755604200492,8.92,66.88,-19.39,807,845,805,380,848,33.333333333333336,-0.151,0.912,0.389
147119,1755604200494,8.91,66.77,-19.35,803,840,813,361,843,34.48275862068966,-0.145,0.915,0.396
147149,1755604200496,8.98,66.79,-19.5,799,843,817,342,846,33.333333333333336,-0.144,0.918,0.403
147178,1755604200499,9.01,66.85,-19.56,800,837,806,367,844,34.48275862068966,-0.147,0.914,0.402
147208,1755604200501,8.98,66.79,-19.61,796,840,807,406,853,33.333333333333336,-0.151,0.911,0.402
147237,1755604200503,9.02,66.82,-19.63,798,845,808,402,842,34.48275862068966,-0.156,0.91,0.403
147267,1755604200504,9.02,66.85,-19.58,797,843,813,329,844,33.333333333333336,-0.157,0.912,0.401
147296,1755604200506,9.04,66.88,-19.58,799,843,805,336,846,34.48275862068966,-0.154,0.912,0.4
147326,1755604200509,9.08,66.92,-19.58,808,847,805,388,847,33.333333333333336,-0.153,0.909,0.397
147356,1755604200511,9.03,66.85,-19.58,800,848,809,408,852,33.333333333333336,-0.153,0.908,0.396
147386,1755604200513,9.04,66.74,-19.63,802,838,807,369,844,33.333333333333336,-0.153,0.906,0.397
147415,1755604200515,8.99,66.76,-19.62,799,839,812,345,840,34.48275862068966,-0.153,0.91,0.401
147445,1755604200517,9.0,66.75,-19.7,804,842,816,353,832,33.333333333333336,-0.152,0.909,0.401
147474,1755604200519,9.02,66.72,-19.74,801,841,810,405,851,34.48275862068966,-0.153,0.907,0.402
147504,1755604200520,9.0,66.71,-19.76,807,841,813,395,848,33.333333333333336,-0.154,0.909,0.406
147533,1755604200522,9.04,66.74,-19.86,797,846,811,339,847,34.48275862068966,-0.154,0.909,0.405
147563,1755604200524,9.05,66.72,-19.94,804,843,807,333,885,33.333333333333336,-0.154,0.905,0.4
147583,1755604200527,9.03,66.69,-19.95,806,849,806,373,845,50.0,-0.155,0.905,0.396
147613,1755604200528,9.03,66.63,-19.99,800,845,810,354,851,33.333333333333336,-0.157,0.909,0.395
147642,1755604200531,9.03,66.66,-20.01,798,849,813,408,842,34.48275862068966,-0.16,0.91,0.398
147671,1755604200532,9.04,66.61,-19.95,802,833,809,401,846,34.48275862068966,-0.163,0.906,0.398
147701,1755604200535,9.04,66.57,-19.82,804,845,818,365,845,33.333333333333336,-0.162,0.907,0.4
147730,1755604200536,9.06,66.48,-19.58,805,846,808,364,851,34.48275862068966,-0.157,0.905,0.408
147760,1755604200538,9.08,66.49,-19.62,800,835,810,383,852,33.333333333333336,-0.152,0.909,0.41
147789,1755604200540,9.11,66.55,-19.67,801,832,808,404,845,34.48275862068966,-0.147,0.908,0.408
147819,1755604200542,9.13,66.52,-19.72,798,842,807,367,840,33.333333333333336,-0.148,0.905,0.406
147849,1755604200544,9.14,66.54,-19.71,803,842,810,349,852,33.333333333333336,-0.15,0.907,0.404
147878,1755604200546,9.14,66.56,-19.77,798,847,814,385,845,34.48275862068966,-0.153,0.907,0.405
147907,1755604200548,9.13,66.69,-19.81,804,843,810,412,851,34.48275862068966,-0.154,0.908,0.407
147937,1755604200550,9.15,66.81,-19.84,797,834,804,399,848,33.333333333333336,-0.152,0.907,0.405
147967,1755604200552,9.15,66.79,-19.88,797,843,810,315,847,33.333333333333336,-0.153,0.909,0.401
147997,1755604200554,9.13,66.82,-19.85,805,846,813,344,846,33.333333333333336,-0.155,0.908,0.407
148026,1755604200556,9.17,66.89,-19.81,798,845,809,387,844,34.48275862068966,-0.156,0.908,0.405
148056,1755604200558,9.19,66.93,-19.79,800,843,811,388,853,33.333333333333336,-0.155,0.907,0.396
148085,1755604200560,9.17,66.85,-19.77,803,846,808,340,845,34.48275862068966,-0.155,0.91,0.393
148115,1755604200563,9.14,66.83,-19.72,803,841,811,347,846,33.333333333333336,-0.154,0.91,0.399
148144,1755604200565,9.17,66.88,-19.73,801,846,791,383,857,34.48275862068966,-0.153,0.911,0.402
148174,1755604200567,9.21,66.9,-19.74,800,844,806,406,846,33.333333333333336,-0.153,0.91,0.402
148203,1755604200568,9.23,66.91,-19.73,799,842,811,370,845,34.48275862068966,-0.154,0.909,0.4
148233,1755604200570,9.27,66.92,-19.72,800,847,811,344,868,33.333333333333336,-0.155,0.908,0.398
148262,1755604200572,9.29,66.95,-19.68,796,836,814,359,854,34.48275862068966,-0.155,0.909,0.398
148292,1755604200574,9.3,66.94,-19.64,799,845,809,385,851,33.333333333333336,-0.153,0.909,0.397
148322,1755604200576,9.32,66.92,-19.65,810,849,813,397,838,33.333333333333336,-0.151,0.91,0.4
148352,1755604200579,9.33,66.98,-19.62,803,834,801,350,839,33.333333333333336,-0.152,0.912,0.401
148381,1755604200581,9.32,67.07,-19.58,796,842,816,333,848,34.48275862068966,-0.15,0.913,0.397
148411,1755604200583,9.32,67.07,-19.62,811,845,808,381,841,33.333333333333336,-0.149,0.912,0.392
148440,1755604200585,9.3,67.05,-19.62,802,841,809,407,855,34.48275862068966,-0.15,0.911,0.395
148470,1755604200587,9.3,67.1,-19.57,793,845,800,364,851,33.333333333333336,-0.151,0.912,0.399
148500,1755604200589,9.36,67.15,-19.61,795,837,803,329,845,33.333333333333336,-0.15,0.912,0.396
148520,1755604200591,9.38,67.2,-19.63,802,839,816,387,850,50.0,-0.148,0.913,0.392
148549,1755604200593,9.36,67.25,-19.6,802,839,807,356,849,34.48275862068966,-0.147,0.912,0.391
148579,1755604200595,9.37,67.25,-19.65,800,838,808,378,848,33.333333333333336,-0.149,0.914,0.39
148608,1755604200596,9.37,67.21,-19.63,801,837,804,423,849,34.48275862068966,-0.149,0.913,0.39
148638,1755604200598,9.37,67.19,-19.65,805,842,807,403,846,33.333333333333336,-0.149,0.916,0.393
148668,1755604200601,9.4,67.26,-19.67,801,839,807,342,840,33.333333333333336,-0.15,0.916,0.394
148698,1755604200602,9.38,67.26,-19.65,800,850,810,338,840,33.333333333333336,-0.151,0.914,0.392
148718,1755604200605,9.36,67.25,-19.63,796,844,813,381,852,50.0,-0.15,0.913,0.391
148747,1755604200607,9.37,67.24,-19.63,802,846,803,355,848,34.48275862068966,-0.148,0.913,0.393
148777,1755604200609,9.36,67.27,-19.65,803,841,816,386,849,33.333333333333336,-0.148,0.915,0.391
148806,1755604200611,9.38,67.28,-19.69,802,844,808,385,865,34.48275862068966,-0.148,0.913,0.391
148836,1755604200613,9.37,67.26,-19.7,798,838,809,350,847,33.333333333333336,-0.149,0.914,0.391
148865,1755604200615,9.35,67.28,-19.68,799,841,803,327,845,34.48275862068966,-0.15,0.912,0.392
148895,1755604200617,9.37,67.28,-19.69,797,842,806,381,840,33.333333333333336,-0.149,0.914,0.393
148924,1755604200619,9.36,67.32,-19.69,802,843,808,418,844,34.48275862068966,-0.148,0.914,0.392
148954,1755604200622,9.35,67.33,-19.72,804,839,815,389,846,33.333333333333336,-0.147,0.919,0.392
148983,1755604200624,9.37,67.34,-19.79,802,837,808,350,846,34.48275862068966,-0.149,0.92,0.394
149013,1755604200626,9.38,67.42,-19.79,799,845,810,354,840,33.333333333333336,-0.15,0.918,0.393
149042,1755604200628,9.43,67.51,-19.79,805,845,809,391,844,34.48275862068966,-0.15,0.917,0.394
149072,1755604200630,9.58,67.71,-19.86,800,839,807,402,845,33.333333333333336,-0.148,0.92,0.398
149102,1755604200632,9.95,67.77,-19.88,801,850,808,371,854,33.333333333333336,-0.156,0.921,0.4
149132,1755604200634,10.07,67.79,-19.8,803,844,808,367,847,33.333333333333336,-0.148,0.919,0.387
149161,1755604200636,10.3,67.49,-19.6,806,844,819,425,853,34.48275862068966,-0.147,0.911,0.384
149191,1755604200638,10.54,67.42,-19.51,803,855,837,425,858,33.333333333333336,-0.148,0.919,0.383
149220,1755604200640,10.78,67.14,-19.53,805,878,848,395,860,34.48275862068966,-0.15,0.922,0.379
149250,1755604200643,10.89,66.82,-19.54,800,897,848,345,852,33.333333333333336,-0.147,0.918,0.378
149279,1755604200644,11.05,66.53,-19.52,801,907,859,367,863,34.48275862068966,-0.151,0.915,0.383
149309,1755604200647,11.16,66.47,-19.49,801,921,880,414,875,33.333333333333336,-0.156,0.918,0.388
149338,1755604200648,11.26,66.36,-19.5,808,924,896,409,880,34.48275862068966,-0.161,0.918,0.392
149368,1755604200650,11.28,66.09,-19.51,802,924,886,347,889,33.333333333333336,-0.165,0.917,0.388
149397,1755604200653,11.17,65.76,-19.32,810,935,897,362,901,34.48275862068966,-0.163,0.912,0.391
149426,1755604200655,11.09,65.27,-19.25,806,931,896,401,913,34.48275862068966,-0.159,0.911,0.401
149456,1755604200657,10.9,65.11,-19.22,809,935,909,390,922,33.333333333333336,-0.16,0.913,0.409
149486,1755604200659,10.71,65.13,-19.17,813,940,907,352,923,33.333333333333336,-0.155,0.905,0.415
149515,1755604200661,10.56,65.19,-19.1,819,941,917,337,932,34.48275862068966,-0.156,0.906,0.413
149535,1755604200664,10.49,65.21,-19.11,826,952,913,378,942,50.0,-0.146,0.903,0.408
149565,1755604200666,10.47,64.99,-19.3,839,943,914,363,937,33.333333333333336,-0.146,0.903,0.401
149595,1755604200667,10.48,64.87,-19.51,847,949,921,365,930,33.333333333333336,-0.149,0.895,0.41
149624,1755604200669,10.49,64.85,-19.66,853,942,906,402,929,34.48275862068966,-0.151,0.897,0.421
149654,1755604200671,10.76,64.7,-20.08,869,949,914,384,940,33.333333333333336,-0.15,0.891,0.426
149684,1755604200673,10.86,64.83,-20.26,870,938,911,342,927,33.333333333333336,-0.16,0.893,0.43
149713,1755604200675,10.9,64.49,-20.27,875,934,921,368,937,34.48275862068966,-0.158,0.891,0.426
149743,1755604200678,10.8,64.26,-20.36,871,939,922,386,941,33.333333333333336,-0.157,0.891,0.42
149772,1755604200680,10.89,64.09,-20.73,872,930,915,377,941,34.48275862068966,-0.161,0.895,0.424
149802,1755604200682,10.98,63.68,-20.95,869,939,914,307,938,33.333333333333336,-0.169,0.89,0.439
149831,1755604200684,10.93,63.67,-20.95,869,932,915,289,925,34.48275862068966,-0.177,0.888,0.442
149860,1755604200686,10.87,63.79,-20.97,874,938,913,381,942,34.48275862068966,-0.174,0.886,0.437
149890,1755604200688,10.48,63.64,-21.16,870,934,914,403,940,33.333333333333336,-0.175,0.889,0.437
149919,1755604200690,10.48,63.47,-21.33,874,933,914,360,932,34.48275862068966,-0.174,0.891,0.441
149949,1755604200692,10.52,62.99,-21.46,869,936,914,347,932,33.333333333333336,-0.175,0.88,0.445
149978,1755604200694,10.3,63.06,-21.54,871,944,921,378,939,34.48275862068966,-0.181,0.872,0.453
150008,1755604200696,10.15,63.41,-21.52,864,947,915,400,937,33.333333333333336,-0.192,0.879,0.459
150038,1755604200698,9.94,63.26,-21.41,867,947,923,388,945,33.333333333333336,-0.191,0.877,0.453
150067,1755604200700,9.79,63.04,-21.46,862,944,909,339,942,34.48275862068966,-0.181,0.86,0.456
150097,1755604200701,9.7,62.83,-21.49,858,950,922,339,936,33.333333333333336,-0.184,0.872,0.454
150126,1755604200704,9.3,62.42,-21.39,863,945,920,397,939,34.48275862068966,-0.182,0.871,0.456
150156,1755604200705,9.13,61.76,-21.28,856,947,921,401,947,33.333333333333336,-0.181,0.867,0.459
150185,1755604200708,9.01,61.44,-21.35,861,950,904,315,942,34.48275862068966,-0.179,0.865,0.467
150215,1755604200710,8.81,60.95,-21.49,856,949,921,291,945,33.333333333333336,-0.17,0.863,0.473
150245,1755604200711,8.71,61.11,-21.39,853,943,911,356,942,33.333333333333336,-0.174,0.863,0.489
150274,1755604200714,8.75,60.94,-21.42,852,945,918,390,951,34.48275862068966,-0.166,0.862,0.491
150304,1755604200716,8.75,60.85,-21.61,852,946,915,368,934,33.333333333333336,-0.166,0.852,0.496
150333,1755604200718,9.01,61.2,-21.74,861,948,923,334,938,34.48275862068966,-0.167,0.857,0.491
150363,1755604200720,9.15,60.88,-21.91,859,944,919,338,934,33.333333333333336,-0.169,0.851,0.493
150392,1755604200721,9.35,61.16,-21.89,864,943,915,374,934,34.48275862068966,-0.18,0.857,0.501
150422,1755604200723,9.66,61.13,-21.97,863,941,920,380,938,33.333333333333336,-0.181,0.866,0.498
150451,1755604200725,9.72,61.11,-21.88,871,947,928,333,975,34.48275862068966,-0.179,0.855,0.499
150481,1755604200727,9.95,61.21,-21.88,868,945,922,347,937,33.333333333333336,-0.183,0.854,0.499
150510,1755604200729,10.11,61.14,-21.9,868,944,925,396,941,34.48275862068966,-0.185,0.854,0.497
150540,1755604200731,10.16,61.02,-21.81,869,946,920,392,932,33.333333333333336,-0.185,0.846,0.503
150570,1755604200733,10.15,61.1,-21.84,871,933,914,351,950,33.333333333333336,-0.18,0.847,0.5
150599,1755604200735,10.12,61.25,-21.82,863,941,916,301,933,34.48275862068966,-0.187,0.853,0.497
150629,1755604200737,9.94,61.36,-21.76,869,941,910,358,941,33.333333333333336,-0.186,0.856,0.493
150658,1755604200739,9.93,61.4,-21.85,866,936,909,401,938,34.48275862068966,-0.183,0.856,0.502
150688,1755604200741,10.05,61.61,-21.95,869,937,911,387,943,33.333333333333336,-0.176,0.854,0.502
150717,1755604200743,10.11,61.56,-22.0,873,943,912,341,943,34.48275862068966,-0.175,0.853,0.495
150747,1755604200745,10.15,61.62,-22.13,870,941,906,353,941,33.333333333333336,-0.182,0.857,0.487
150776,1755604200748,10.12,61.68,-22.15,874,941,911,405,935,34.48275862068966,-0.188,0.86,0.485
150806,1755604200750,10.04,61.65,-22.14,874,940,900,396,939,33.333333333333336,-0.192,0.865,0.488
150836,1755604200752,10.12,61.58,-22.21,871,934,915,352,939,33.333333333333336,-0.198,0.861,0.497
150865,1755604200754,10.1,61.46,-22.1,870,929,908,350,942,34.48275862068966,-0.196,0.856,0.499
150894,1755604200756,10.06,61.36,-22.11,867,938,914,398,926,34.48275862068966,-0.196,0.859,0.491
150924,1755604200758,9.91,61.16,-22.24,872,941,912,412,941,33.333333333333336,-0.176,0.855,0.483
150954,1755604200760,10.08,61.22,-22.42,867,935,915,383,941,33.333333333333336,-0.177,0.865,0.492
150983,1755604200762,10.48,61.23,-22.74,867,938,915,343,935,34.48275862068966,-0.185,0.872,0.498
151013,1755604200764,10.68,61.14,-23.11,873,931,903,356,933,33.333333333333336,-0.199,0.861,0.498
151043,1755604200765,10.77,61.35,-23.2,871,933,906,401,936,33.333333333333336,-0.206,0.857,0.498
151073,1755604200768,10.85,61.57,-23.04,866,935,906,404,936,33.333333333333336,-0.214,0.855,0.505
151102,1755604200769,10.85,61.68,-22.81,861,930,915,363,931,34.48275862068966,-0.216,0.847,0.501
151131,1755604200772,10.55,62.13,-23.1,863,935,897,367,929,34.48275862068966,-0.13,0.878,0.483
151161,1755604200774,10.99,62.29,-23.88,865,928,913,399,930,33.333333333333336,-0.141,0.873,0.48
151190,1755604200776,10.95,62.57,-24.03,870,938,909,407,936,34.48275862068966,-0.188,0.853,0.468
151220,1755604200778,11.43,62.57,-24.23,859,929,911,359,933,33.333333333333336,-0.238,0.837,0.444
151250,1755604200780,11.49,62.53,-24.23,858,941,902,341,932,33.333333333333336,-0.255,0.846,0.441
151279,1755604200782,11.12,62.53,-23.9,862,936,924,381,925,34.48275862068966,-0.233,0.849,0.461
151309,1755604200784,10.98,62.52,-24.04,861,936,908,408,940,33.333333333333336,-0.197,0.856,0.466
151338,1755604200786,11.03,62.45,-24.01,858,933,911,392,932,34.48275862068966,-0.196,0.845,0.477
151367,1755604200788,10.86,62.32,-23.78,860,931,901,340,936,34.48275862068966,-0.218,0.843,0.485
151397,1755604200790,10.91,62.15,-23.49,856,938,898,350,926,33.333333333333336,-0.255,0.86,0.487
151417,1755604200792,11.12,62.1,-23.23,855,936,904,356,931,50.0,-0.269,0.869,0.494
151446,1755604200794,10.84,62.41,-22.82,851,933,895,366,934,34.48275862068966,-0.222,0.87,0.493
151476,1755604200796,10.71,62.6,-22.68,862,929,905,412,931,33.333333333333336,-0.194,0.859,0.487
151506,1755604200798,10.5,62.64,-22.72,858,930,904,398,937,33.333333333333336,-0.173,0.855,0.468
151535,1755604200800,10.32,62.6,-22.91,854,922,907,356,930,34.48275862068966,-0.167,0.857,0.479
151564,1755604200802,10.13,62.34,-23.22,855,934,899,363,933,34.48275862068966,-0.167,0.858,0.485
151594,1755604200804,9.82,62.38,-23.56,849,930,902,404,922,33.333333333333336,-0.192,0.862,0.48
151623,1755604200806,9.83,62.06,-23.7,851,926,900,415,924,34.48275862068966,-0.191,0.865,0.482
151653,1755604200808,9.82,62.04,-23.76,856,930,906,379,931,33.333333333333336,-0.193,0.865,0.49
151682,1755604200810,9.9,62.07,-23.94,853,934,901,348,925,34.48275862068966,-0.2,0.871,0.501
151711,1755604200812,9.78,62.34,-23.79,857,935,908,381,925,34.48275862068966,-0.193,0.869,0.49
151741,1755604200815,9.5,62.4,-23.58,859,926,901,408,931,33.333333333333336,-0.191,0.863,0.48
151770,1755604200816,9.29,62.45,-23.39,864,935,910,363,926,34.48275862068966,-0.189,0.854,0.486
151800,1755604200818,9.08,62.55,-23.37,861,936,905,335,929,33.333333333333336,-0.179,0.858,0.493
151829,1755604200820,9.29,62.65,-23.61,847,928,899,358,934,34.48275862068966,-0.202,0.862,0.511
151859,1755604200822,9.67,62.97,-23.5,856,930,904,395,937,33.333333333333336,-0.216,0.854,0.512
151888,1755604200824,9.68,62.98,-23.5,855,926,904,382,928,34.48275862068966,-0.189,0.854,0.48
151918,1755604200826,9.76,62.89,-23.77,859,920,910,355,936,33.333333333333336,-0.184,0.859,0.465
151948,1755604200828,9.86,62.86,-23.94,850,925,904,363,952,33.333333333333336,-0.194,0.865,0.467
151977,1755604200830,9.76,62.83,-23.98,855,920,905,395,928,34.48275862068966,-0.199,0.863,0.464
152007,1755604200832,9.9,62.71,-24.12,857,931,898,389,931,33.333333333333336,-0.204,0.864,0.467
152037,1755604200835,10.08,62.66,-24.14,847,930,900,353,929,33.333333333333336,-0.209,0.865,0.476
152066,1755604200837,10.17,62.67,-24.04,854,930,902,296,931,34.48275862068966,-0.207,0.861,0.476
152095,1755604200838,10.33,62.64,-24.09,856,930,901,365,922,34.48275862068966,-0.202,0.863,0.471
152125,1755604200840,10.35,62.58,-24.08,854,929,897,400,936,33.333333333333336,-0.198,0.865,0.469
152154,1755604200842,10.34,62.48,-24.05,857,926,916,373,934,34.48275862068966,-0.197,0.866,0.47
152184,1755604200844,10.36,62.47,-24.03,849,924,897,346,919,33.333333333333336,-0.203,0.865,0.473
152214,1755604200846,10.28,62.38,-23.86,852,941,910,366,923,33.333333333333336,-0.205,0.864,0.472
152243,1755604200848,10.31,62.29,-23.83,852,924,901,421,927,34.48275862068966,-0.202,0.866,0.473
152272,1755604200850,10.33,62.28,-23.8,855,921,896,401,928,34.48275862068966,-0.198,0.867,0.475
152302,1755604200852,10.27,62.26,-23.71,849,933,901,360,923,33.333333333333336,-0.195,0.866,0.476
152332,1755604200855,10.31,62.19,-23.77,847,924,898,348,924,33.333333333333336,-0.193,0.866,0.477
152361,1755604200857,10.37,62.19,-23.79,850,919,897,397,921,34.48275862068966,-0.194,0.868,0.48
152391,1755604200859,10.36,62.2,-23.73,858,925,898,419,923,33.333333333333336,-0.191,0.866,0.477
152420,1755604200861,10.42,62.15,-23.81,847,921,893,369,920,34.48275862068966,-0.19,0.867,0.472
152450,1755604200863,10.48,62.1,-23.84,849,921,899,350,928,33.333333333333336,-0.196,0.866,0.476
152480,1755604200865,10.47,62.15,-23.78,854,928,895,364,925,33.333333333333336,-0.196,0.865,0.476
152509,1755604200867,10.53,62.14,-23.81,851,928,900,411,924,34.48275862068966,-0.191,0.865,0.475
152539,1755604200869,10.62,62.05,-23.91,852,928,902,388,929,33.333333333333336,-0.19,0.866,0.481
152569,1755604200871,10.7,61.99,-23.96,867,928,902,347,926,33.333333333333336,-0.191,0.863,0.481
152598,1755604200873,10.78,62.03,-24.02,853,920,901,339,927,34.48275862068966,-0.194,0.863,0.482
152628,1755604200875,10.8,62.1,-24.01,851,930,891,399,923,33.333333333333336,-0.197,0.863,0.478
152657,1755604200877,10.78,62.07,-24.0,854,922,897,399,921,34.48275862068966,-0.196,0.862,0.475
152687,1755604200879,10.75,61.97,-24.01,854,925,895,361,916,33.333333333333336,-0.193,0.862,0.476
152716,1755604200881,10.69,62.03,-23.9,854,924,907,351,925,34.48275862068966,-0.2,0.863,0.484
152746,1755604200883,10.7,61.99,-23.83,856,926,896,381,932,33.333333333333336,-0.202,0.862,0.478
152775,1755604200885,10.77,61.9,-23.83,853,919,898,408,927,34.48275862068966,-0.199,0.86,0.48
152805,1755604200888,10.83,61.97,-23.74,849,925,899,385,925,33.333333333333336,-0.198,0.862,0.481
152834,1755604200890,10.8,62.0,-23.62,854,924,897,349,923,34.48275862068966,-0.194,0.862,0.48
152864,1755604200892,10.83,61.92,-23.59,849,919,900,376,926,33.333333333333336,-0.191,0.859,0.478
152893,1755604200893,10.87,61.88,-23.52,857,921,898,407,929,34.48275862068966,-0.191,0.86,0.478
152923,1755604200896,10.81,61.93,-23.36,851,924,890,405,930,33.333333333333336,-0.192,0.863,0.478
152953,1755604200898,10.75,62.01,-23.26,849,922,901,357,922,33.333333333333336,-0.188,0.863,0.473
152982,1755604200900,10.74,61.91,-23.29,848,927,897,335,925,34.48275862068966,-0.183,0.861,0.473
153002,1755604200901,10.75,61.85,-23.31,853,928,892,358,919,50.0,-0.186,0.863,0.475
153032,1755604200904,10.71,61.84,-23.2,854,920,897,362,920,33.333333333333336,-0.188,0.864,0.469
153061,1755604200906,10.62,61.75,-23.09,847,926,899,395,925,34.48275862068966,-0.184,0.869,0.471
153091,1755604200908,10.61,61.7,-23.09,856,929,897,396,932,33.333333333333336,-0.176,0.868,0.477
153120,1755604200910,10.61,61.7,-23.16,853,923,894,369,921,34.48275862068966,-0.173,0.868,0.478
153150,1755604200912,10.59,61.67,-23.22,857,927,897,354,922,33.333333333333336,-0.171,0.867,0.477
