timestamp_ms,recv_timestamp_ms,pitch,roll,yaw,flex1,flex2,flex3,flex4,flex5,sampling_hz,accel_x,accel_y,accel_z
161517,1755608570880,10.49,70.42,-85.41,790,805,792,327,825,33.333333333333336,-0.182,0.951,0.264
161546,1755608570883,10.49,70.39,-85.45,792,809,794,368,818,34.48275862068966,-0.184,0.951,0.264
161576,1755608570884,10.5,70.36,-85.47,793,803,793,430,824,33.333333333333336,-0.187,0.95,0.267
161605,1755608570886,10.51,70.39,-85.47,791,807,796,415,838,34.48275862068966,-0.189,0.951,0.268
161635,1755608570888,10.51,70.42,-85.44,793,806,798,322,824,33.333333333333336,-0.186,0.951,0.266
161664,1755608570890,10.48,70.38,-85.49,788,805,799,331,821,34.48275862068966,-0.181,0.95,0.263
161694,1755608570892,10.46,70.32,-85.55,792,800,797,439,826,33.333333333333336,-0.182,0.95,0.266
161723,1755608570894,10.45,70.29,-85.56,794,801,795,432,821,34.48275862068966,-0.187,0.951,0.271
161753,1755608570896,10.45,70.33,-85.58,791,801,799,336,819,33.333333333333336,-0.188,0.951,0.271
161782,1755608570898,10.47,70.34,-85.61,793,805,800,331,824,34.48275862068966,-0.185,0.95,0.268
161812,1755608570900,10.45,70.29,-85.64,789,804,796,391,826,33.333333333333336,-0.183,0.95,0.266
161842,1755608570902,10.42,70.28,-85.68,792,810,796,452,824,33.333333333333336,-0.185,0.951,0.27
161871,1755608570904,10.44,70.29,-85.71,793,806,796,410,820,34.48275862068966,-0.187,0.951,0.272
161901,1755608570906,10.47,70.32,-85.74,793,810,793,307,828,33.333333333333336,-0.186,0.95,0.27
161930,1755608570908,10.45,70.3,-85.78,793,807,796,329,823,34.48275862068966,-0.182,0.949,0.267
161959,1755608570910,10.44,70.26,-85.84,793,804,792,431,822,34.48275862068966,-0.182,0.951,0.268
161989,1755608570912,10.45,70.25,-85.91,792,809,798,405,833,33.333333333333336,-0.186,0.951,0.271
162019,1755608570914,10.44,70.29,-85.92,794,806,792,315,821,33.333333333333336,-0.186,0.951,0.269
162049,1755608570916,10.44,70.3,-85.94,793,803,798,311,820,33.333333333333336,-0.186,0.95,0.268
162078,1755608570918,10.43,70.3,-86.01,790,799,795,384,821,34.48275862068966,-0.185,0.949,0.267
162108,1755608570921,10.43,70.24,-86.08,791,800,798,415,821,33.333333333333336,-0.186,0.948,0.267
162137,1755608570922,10.43,70.23,-86.12,792,801,797,366,826,34.48275862068966,-0.19,0.95,0.268
162167,1755608570925,10.42,70.25,-86.13,790,808,793,301,821,33.333333333333336,-0.189,0.95,0.267
162196,1755608570927,10.41,70.2,-86.2,790,807,792,335,824,34.48275862068966,-0.187,0.947,0.267
162226,1755608570929,10.41,70.18,-86.25,793,821,795,417,828,33.333333333333336,-0.191,0.948,0.272
162255,1755608570931,10.43,70.19,-86.27,792,802,796,406,815,34.48275862068966,-0.192,0.95,0.274
162284,1755608570933,10.44,70.2,-86.33,785,804,791,319,820,34.48275862068966,-0.189,0.948,0.269
162314,1755608570935,10.44,70.15,-86.43,790,803,794,335,824,33.333333333333336,-0.189,0.946,0.267
162343,1755608570938,10.42,70.08,-86.46,786,809,797,437,818,34.48275862068966,-0.192,0.948,0.27
162373,1755608570939,10.42,70.08,-86.47,794,813,797,428,817,33.333333333333336,-0.193,0.948,0.273
162402,1755608570942,10.44,70.1,-86.55,792,808,795,331,823,34.48275862068966,-0.192,0.947,0.272
162432,1755608570943,10.44,70.09,-86.59,789,803,796,323,822,33.333333333333336,-0.193,0.946,0.273
162461,1755608570946,10.45,70.07,-86.66,793,802,792,405,823,34.48275862068966,-0.192,0.948,0.272
162491,1755608570948,10.54,70.02,-86.84,793,806,796,437,821,33.333333333333336,-0.198,0.948,0.275
162520,1755608570950,10.52,70.04,-86.82,792,808,797,361,820,34.48275862068966,-0.196,0.945,0.272
162550,1755608570952,10.56,70.05,-86.86,794,804,796,302,819,33.333333333333336,-0.198,0.947,0.272
162579,1755608570954,10.54,70.05,-86.86,792,808,797,357,832,34.48275862068966,-0.2,0.947,0.275
162608,1755608570956,10.58,70.07,-86.87,792,807,798,436,822,34.48275862068966,-0.201,0.946,0.275
162638,1755608570959,10.6,70.06,-86.88,796,806,799,383,826,33.333333333333336,-0.199,0.946,0.273
162667,1755608570961,10.61,70.03,-86.9,795,807,793,291,820,34.48275862068966,-0.198,0.945,0.274
162697,1755608570963,10.62,70.05,-86.88,790,808,796,300,818,33.333333333333336,-0.199,0.948,0.275
162726,1755608570964,10.66,70.05,-86.91,792,805,798,421,819,34.48275862068966,-0.199,0.946,0.276
162747,1755608570966,10.69,70.09,-86.93,791,808,792,335,821,47.61904761904762,-0.201,0.945,0.275
162776,1755608570969,10.71,70.09,-86.89,787,804,796,414,816,34.48275862068966,-0.2,0.945,0.274
162806,1755608570971,10.74,70.08,-86.9,796,799,802,416,824,33.333333333333336,-0.198,0.947,0.271
162836,1755608570973,10.75,70.08,-86.89,791,805,795,332,820,33.333333333333336,-0.198,0.946,0.272
162865,1755608570975,10.76,70.07,-86.88,793,804,797,322,823,34.48275862068966,-0.196,0.945,0.273
162895,1755608570977,10.78,70.07,-86.91,793,798,796,386,822,33.333333333333336,-0.195,0.947,0.274
162925,1755608570979,10.79,70.08,-86.94,792,804,799,438,823,33.333333333333336,-0.195,0.947,0.272
162955,1755608570981,10.81,70.07,-86.96,794,805,793,402,825,33.333333333333336,-0.196,0.946,0.271
162985,1755608570983,10.8,70.07,-86.97,794,805,799,312,819,33.333333333333336,-0.197,0.945,0.27
163015,1755608570985,10.81,70.04,-87.0,794,810,797,331,819,33.333333333333336,-0.198,0.946,0.27
163044,1755608570987,10.8,70.0,-87.0,792,807,796,422,825,34.48275862068966,-0.198,0.946,0.271
163074,1755608570989,10.84,69.98,-86.99,793,810,788,439,820,33.333333333333336,-0.198,0.945,0.274
163103,1755608570991,10.87,69.96,-87.02,791,809,798,339,818,34.48275862068966,-0.194,0.947,0.271
163132,1755608570994,10.87,69.93,-87.08,793,808,794,328,820,34.48275862068966,-0.193,0.946,0.273
163162,1755608570996,10.89,69.9,-87.14,791,809,796,387,820,33.333333333333336,-0.193,0.946,0.276
163191,1755608570998,10.95,69.91,-87.21,792,804,795,427,824,34.48275862068966,-0.2,0.947,0.276
163221,1755608571000,10.92,69.92,-87.16,787,802,794,382,824,33.333333333333336,-0.196,0.946,0.272
163251,1755608571002,10.95,69.89,-87.21,793,805,800,307,827,33.333333333333336,-0.197,0.945,0.273
163280,1755608571005,10.93,69.89,-87.18,793,806,801,351,825,34.48275862068966,-0.199,0.947,0.278
163300,1755608571007,10.94,69.93,-87.16,791,802,793,355,819,50.0,-0.199,0.947,0.281
163330,1755608571009,10.97,70.0,-87.19,794,810,795,381,812,33.333333333333336,-0.196,0.946,0.276
163360,1755608571011,10.96,69.97,-87.2,792,804,793,454,824,33.333333333333336,-0.197,0.945,0.273
163389,1755608571013,10.95,70.0,-87.18,787,804,796,432,818,34.48275862068966,-0.196,0.947,0.274
163419,1755608571015,10.94,70.01,-87.2,791,806,793,329,824,33.333333333333336,-0.195,0.947,0.273
163448,1755608571017,10.96,69.99,-87.26,793,807,796,332,822,34.48275862068966,-0.196,0.945,0.271
163478,1755608571019,10.96,69.96,-87.24,791,803,792,412,826,33.333333333333336,-0.199,0.945,0.273
163507,1755608571021,10.94,69.98,-87.2,789,802,797,376,816,34.48275862068966,-0.197,0.948,0.272
163536,1755608571023,10.96,70.01,-87.27,789,801,795,284,820,34.48275862068966,-0.193,0.947,0.272
163566,1755608571025,10.94,69.97,-87.31,790,801,799,289,855,33.333333333333336,-0.194,0.945,0.273
163595,1755608571027,10.93,69.96,-87.31,792,806,799,381,824,34.48275862068966,-0.196,0.945,0.276
163625,1755608571029,10.96,69.99,-87.36,791,801,805,431,820,33.333333333333336,-0.197,0.948,0.274
163654,1755608571031,10.93,70.05,-87.37,794,805,792,379,822,34.48275862068966,-0.194,0.946,0.272
163684,1755608571033,10.93,69.96,-87.43,787,796,800,306,818,33.333333333333336,-0.194,0.945,0.269
163713,1755608571035,10.89,69.94,-87.49,791,806,795,310,820,34.48275862068966,-0.195,0.945,0.273
163743,1755608571037,10.85,69.97,-87.47,790,800,799,373,823,33.333333333333336,-0.198,0.946,0.276
163772,1755608571039,10.83,69.97,-87.51,781,810,793,380,837,34.48275862068966,-0.199,0.947,0.267
163802,1755608571041,10.88,69.11,-87.67,790,807,799,310,821,33.333333333333336,-0.199,0.94,0.268
163831,1755608571043,10.75,68.46,-87.83,791,816,799,340,822,34.48275862068966,-0.204,0.944,0.264
163861,1755608571046,10.66,68.24,-87.98,793,848,821,425,848,33.333333333333336,-0.202,0.942,0.282
163881,1755608571048,10.62,67.98,-88.21,793,881,855,326,823,50.0,-0.198,0.956,0.286
163910,1755608571050,10.67,66.9,-88.5,789,899,880,428,820,34.48275862068966,-0.199,0.946,0.3
163940,1755608571052,10.37,66.41,-88.28,790,914,898,426,824,33.333333333333336,-0.203,0.947,0.306
163969,1755608571053,10.05,65.61,-88.04,792,925,901,332,825,34.48275862068966,-0.201,0.941,0.311
163999,1755608571056,10.0,64.53,-88.14,789,929,898,340,830,33.333333333333336,-0.197,0.937,0.313
164028,1755608571058,9.84,63.39,-88.18,792,925,888,409,828,34.48275862068966,-0.199,0.923,0.334
164058,1755608571060,9.62,62.8,-87.96,791,928,881,446,824,33.333333333333336,-0.214,0.928,0.346
164087,1755608571061,9.04,62.24,-87.93,794,925,873,375,823,34.48275862068966,-0.203,0.919,0.363
164116,1755608571063,8.72,61.93,-88.02,789,921,867,313,825,34.48275862068966,-0.214,0.927,0.379
164146,1755608571065,8.43,60.86,-88.33,790,921,866,357,825,33.333333333333336,-0.185,0.888,0.396
164175,1755608571067,7.92,61.04,-87.86,789,918,858,446,824,34.48275862068966,-0.203,0.888,0.415
164205,1755608571069,7.34,61.4,-87.48,793,916,855,391,825,33.333333333333336,-0.195,0.89,0.424
164235,1755608571071,7.01,61.53,-87.15,801,918,861,290,826,33.333333333333336,-0.186,0.889,0.439
164264,1755608571074,6.89,61.84,-86.99,813,918,863,325,821,34.48275862068966,-0.175,0.881,0.45
164294,1755608571075,6.87,62.62,-86.7,825,919,858,450,819,33.333333333333336,-0.164,0.893,0.433
164323,1755608571078,6.69,62.69,-86.58,841,917,861,384,824,34.48275862068966,-0.153,0.887,0.425
164353,1755608571080,6.63,62.92,-86.38,853,923,851,310,826,33.333333333333336,-0.146,0.878,0.423
164383,1755608571082,6.58,63.0,-86.32,855,925,856,304,825,33.333333333333336,-0.143,0.892,0.41
164412,1755608571084,6.46,62.79,-86.4,858,929,857,379,818,34.48275862068966,-0.136,0.89,0.414
164442,1755608571086,6.49,62.89,-86.37,862,931,854,435,820,33.333333333333336,-0.137,0.891,0.423
164471,1755608571088,6.5,62.95,-86.22,867,930,854,382,816,34.48275862068966,-0.135,0.902,0.418
164500,1755608571090,6.52,62.76,-86.17,868,932,849,301,823,34.48275862068966,-0.13,0.899,0.415
164530,1755608571093,6.65,62.93,-85.92,865,928,854,359,822,33.333333333333336,-0.133,0.898,0.423
164559,1755608571095,6.81,63.04,-85.79,865,932,853,454,826,34.48275862068966,-0.128,0.906,0.42
164589,1755608571097,7.05,63.23,-85.75,864,920,845,418,821,33.333333333333336,-0.127,0.905,0.418
164618,1755608571100,7.34,63.41,-85.81,868,929,850,318,821,34.48275862068966,-0.123,0.906,0.41
164648,1755608571102,7.46,63.49,-85.76,865,930,845,338,823,33.333333333333336,-0.116,0.904,0.403
164677,1755608571103,7.66,63.69,-85.77,865,924,847,440,828,34.48275862068966,-0.112,0.901,0.41
164707,1755608571106,7.86,64.13,-85.64,864,926,848,427,818,33.333333333333336,-0.12,0.911,0.41
164736,1755608571108,7.91,64.34,-85.52,864,919,849,337,817,34.48275862068966,-0.113,0.915,0.397
164766,1755608571110,8.2,64.73,-85.72,857,918,850,309,822,33.333333333333336,-0.118,0.911,0.394
164795,1755608571112,8.24,64.88,-85.54,855,924,847,373,822,34.48275862068966,-0.13,0.914,0.387
164825,1755608571114,8.05,64.88,-85.36,858,917,848,448,821,33.333333333333336,-0.116,0.913,0.376
164854,1755608571115,8.06,64.82,-85.49,857,916,846,386,825,34.48275862068966,-0.115,0.917,0.374
164884,1755608571118,7.93,64.67,-85.49,856,916,841,297,814,33.333333333333336,-0.117,0.922,0.377
164913,1755608571120,7.9,64.57,-85.38,859,908,848,332,835,34.48275862068966,-0.123,0.926,0.385
164943,1755608571122,7.86,64.56,-85.21,860,919,846,450,822,33.333333333333336,-0.119,0.924,0.386
164972,1755608571124,7.89,64.59,-85.12,857,909,845,416,820,34.48275862068966,-0.123,0.931,0.38
165002,1755608571126,7.97,64.69,-85.08,860,918,843,301,819,33.333333333333336,-0.114,0.928,0.386
165032,1755608571128,8.13,64.7,-85.33,861,924,840,323,820,33.333333333333336,-0.11,0.93,0.383
165061,1755608571130,8.11,64.76,-85.46,860,922,846,414,818,34.48275862068966,-0.111,0.93,0.373
165091,1755608571132,8.21,64.71,-85.64,857,914,846,444,822,33.333333333333336,-0.109,0.923,0.377
165120,1755608571134,8.28,64.71,-85.66,855,921,842,371,825,34.48275862068966,-0.122,0.921,0.381
165150,1755608571136,8.22,64.68,-85.53,860,918,840,300,816,33.333333333333336,-0.121,0.919,0.375
165180,1755608571138,8.28,64.6,-85.49,860,922,840,372,817,33.333333333333336,-0.126,0.919,0.375
165209,1755608571140,8.31,64.51,-85.35,859,922,844,457,817,34.48275862068966,-0.13,0.921,0.373
165239,1755608571142,8.32,64.48,-85.23,861,913,840,407,818,33.333333333333336,-0.129,0.922,0.374
165268,1755608571144,8.23,64.53,-85.12,859,922,836,305,820,34.48275862068966,-0.112,0.924,0.374
165298,1755608571146,8.32,64.57,-85.25,859,920,840,337,820,33.333333333333336,-0.112,0.929,0.373
165327,1755608571148,8.31,64.53,-85.27,857,919,842,450,818,34.48275862068966,-0.111,0.925,0.378
165357,1755608571150,8.39,64.61,-85.32,861,911,842,439,821,33.333333333333336,-0.117,0.924,0.381
165386,1755608571152,8.51,64.72,-85.32,857,909,839,337,818,34.48275862068966,-0.125,0.923,0.377
165416,1755608571154,8.36,64.69,-85.17,857,915,840,311,817,33.333333333333336,-0.129,0.925,0.362
165446,1755608571156,8.14,64.55,-85.07,857,915,842,371,820,33.333333333333336,-0.121,0.922,0.359
165475,1755608571158,8.09,64.54,-85.04,859,919,832,460,816,34.48275862068966,-0.114,0.925,0.371
165504,1755608571160,8.12,64.58,-85.08,858,915,836,408,822,34.48275862068966,-0.112,0.932,0.378
165534,1755608571162,8.13,64.65,-85.14,857,917,838,315,819,33.333333333333336,-0.111,0.927,0.38
165564,1755608571165,8.1,64.77,-85.19,854,912,840,351,821,33.333333333333336,-0.108,0.925,0.378
165593,1755608571167,8.1,64.84,-85.25,853,921,839,457,815,34.48275862068966,-0.109,0.926,0.374
165623,1755608571168,8.07,64.86,-85.36,858,908,836,423,818,33.333333333333336,-0.116,0.925,0.377
165653,1755608571171,7.99,64.91,-85.37,852,914,836,320,818,33.333333333333336,-0.118,0.928,0.375
165682,1755608571173,7.91,64.85,-85.43,851,914,841,313,820,34.48275862068966,-0.115,0.925,0.37
165712,1755608571175,7.89,64.78,-85.5,854,910,833,392,820,33.333333333333336,-0.115,0.923,0.37
165741,1755608571177,7.88,64.74,-85.51,849,910,836,441,820,34.48275862068966,-0.117,0.925,0.373
165771,1755608571179,7.81,64.78,-85.61,853,913,837,391,855,33.333333333333336,-0.116,0.93,0.371
165800,1755608571181,7.83,64.77,-85.74,851,909,836,267,820,34.48275862068966,-0.117,0.93,0.369
165830,1755608571183,7.8,64.7,-85.82,853,910,834,322,823,33.333333333333336,-0.118,0.923,0.37
165859,1755608571185,7.79,64.71,-85.86,851,910,837,429,817,34.48275862068966,-0.126,0.923,0.374
165889,1755608571187,7.75,64.72,-85.85,851,904,835,390,817,33.333333333333336,-0.128,0.925,0.374
165918,1755608571189,7.75,64.75,-85.86,849,902,836,288,817,34.48275862068966,-0.122,0.926,0.37
165948,1755608571191,7.75,64.78,-85.88,851,910,839,314,819,33.333333333333336,-0.12,0.925,0.372
165977,1755608571193,7.72,64.82,-85.94,850,911,836,430,824,34.48275862068966,-0.116,0.928,0.369
166007,1755608571195,7.71,64.81,-86.02,850,913,837,433,818,33.333333333333336,-0.119,0.928,0.369
166036,1755608571197,7.72,64.76,-86.1,851,901,838,330,818,34.48275862068966,-0.122,0.926,0.367
166057,1755608571199,7.74,64.77,-86.15,854,912,835,434,826,47.61904761904762,-0.123,0.925,0.367
166086,1755608571201,7.72,64.71,-86.21,853,904,837,331,818,34.48275862068966,-0.13,0.927,0.369
166116,1755608571203,7.65,64.7,-86.18,851,898,837,307,839,33.333333333333336,-0.131,0.926,0.371
166145,1755608571206,7.65,64.7,-86.14,847,902,837,402,818,34.48275862068966,-0.127,0.927,0.371
166175,1755608571207,7.65,64.73,-86.18,843,896,843,441,817,33.333333333333336,-0.124,0.929,0.364
166204,1755608571209,7.58,64.56,-86.26,846,904,840,378,820,34.48275862068966,-0.124,0.926,0.362
166234,1755608571212,7.49,64.51,-86.28,852,905,837,306,816,33.333333333333336,-0.125,0.926,0.368
166264,1755608571213,7.52,64.56,-86.31,848,904,837,339,821,33.333333333333336,-0.129,0.929,0.375
166284,1755608571216,7.54,64.64,-86.32,846,909,840,339,820,50.0,-0.134,0.932,0.374
166313,1755608571218,7.55,64.63,-86.33,851,899,835,376,817,34.48275862068966,-0.13,0.927,0.37
166343,1755608571219,7.59,64.67,-86.33,850,903,839,466,818,33.333333333333336,-0.129,0.924,0.37
166372,1755608571221,7.63,64.76,-86.3,851,902,841,413,818,34.48275862068966,-0.129,0.93,0.371
166402,1755608571223,7.64,64.73,-86.34,848,905,839,293,813,33.333333333333336,-0.126,0.93,0.369
166431,1755608571225,7.59,64.72,-86.34,848,904,835,311,815,34.48275862068966,-0.125,0.927,0.359
166461,1755608571227,7.5,64.58,-86.29,850,896,831,426,818,33.333333333333336,-0.125,0.925,0.363
166490,1755608571229,7.4,64.52,-86.24,855,908,836,420,817,34.48275862068966,-0.121,0.924,0.368
166520,1755608571231,7.49,64.56,-86.34,849,911,832,296,813,33.333333333333336,-0.13,0.929,0.369
166549,1755608571233,7.47,64.55,-86.35,851,905,834,289,819,34.48275862068966,-0.128,0.924,0.369
166579,1755608571235,7.52,64.63,-86.33,848,898,836,338,821,33.333333333333336,-0.126,0.919,0.371
166608,1755608571238,7.48,64.65,-86.3,850,908,839,421,820,34.48275862068966,-0.123,0.926,0.368
166638,1755608571239,7.49,64.61,-86.34,852,905,832,379,815,33.333333333333336,-0.118,0.928,0.366
166668,1755608571241,7.51,64.64,-86.38,848,903,835,295,819,33.333333333333336,-0.121,0.927,0.369
166697,1755608571243,7.43,64.64,-86.36,853,908,829,343,821,34.48275862068966,-0.124,0.929,0.367
166727,1755608571245,7.32,64.59,-86.31,856,907,834,462,819,33.333333333333336,-0.117,0.924,0.366
166756,1755608571247,7.38,64.6,-86.39,848,907,830,422,818,34.48275862068966,-0.121,0.925,0.372
166785,1755608571249,7.4,64.62,-86.38,854,907,835,295,820,34.48275862068966,-0.128,0.932,0.371
166815,1755608571251,7.41,64.61,-86.38,849,900,834,313,814,33.333333333333336,-0.128,0.925,0.367
166844,1755608571253,7.45,64.66,-86.35,851,909,835,447,818,34.48275862068966,-0.119,0.919,0.367
166874,1755608571255,7.48,64.68,-86.34,851,910,833,427,819,33.333333333333336,-0.116,0.924,0.369
166903,1755608571257,7.44,64.66,-86.41,847,907,835,321,817,34.48275862068966,-0.117,0.93,0.367
166932,1755608571259,7.37,64.68,-86.45,851,905,838,275,816,34.48275862068966,-0.116,0.925,0.366
166962,1755608571261,7.44,64.71,-86.5,851,905,834,359,820,33.333333333333336,-0.125,0.927,0.363
166992,1755608571262,7.36,64.54,-86.5,853,904,828,429,832,33.333333333333336,-0.123,0.928,0.361
167022,1755608571278,7.38,64.64,-86.52,845,906,835,384,819,33.333333333333336,-0.124,0.928,0.367
167051,1755608571308,7.38,64.71,-86.55,852,897,833,286,819,34.48275862068966,-0.119,0.929,0.367
167081,1755608571337,7.42,64.76,-86.62,853,906,834,283,816,33.333333333333336,-0.12,0.925,0.367
167110,1755608571367,7.42,64.76,-86.63,851,910,837,437,810,34.48275862068966,-0.123,0.922,0.367
167140,1755608571396,7.43,64.79,-86.63,846,905,839,417,819,33.333333333333336,-0.125,0.925,0.364
167169,1755608571426,7.47,64.75,-86.66,850,904,846,290,829,34.48275862068966,-0.128,0.927,0.365
167198,1755608571455,7.46,64.75,-86.64,847,901,837,323,812,34.48275862068966,-0.128,0.928,0.364
167228,1755608571484,7.43,64.77,-86.65,849,901,835,445,835,33.333333333333336,-0.122,0.928,0.364
167257,1755608571513,7.41,64.78,-86.68,849,907,833,443,820,34.48275862068966,-0.116,0.93,0.363
167286,1755608571543,7.42,64.82,-86.76,849,903,834,327,820,34.48275862068966,-0.116,0.931,0.366
167316,1755608571572,7.47,64.86,-86.84,847,903,835,319,818,33.333333333333336,-0.124,0.932,0.366
167345,1755608571602,7.49,64.94,-86.85,851,899,832,412,812,34.48275862068966,-0.129,0.93,0.361
167375,1755608571632,7.52,64.93,-86.86,850,908,835,457,815,33.333333333333336,-0.13,0.926,0.358
167404,1755608571661,7.54,64.89,-86.83,849,903,833,386,825,34.48275862068966,-0.129,0.926,0.359
167434,1755608571691,7.58,64.95,-86.79,851,898,833,304,816,33.333333333333336,-0.124,0.931,0.365
167464,1755608571720,7.64,65.02,-86.87,850,909,831,333,851,33.333333333333336,-0.123,0.933,0.362
167493,1755608571750,7.63,65.05,-86.9,848,903,834,453,818,34.48275862068966,-0.12,0.928,0.358
167523,1755608571779,7.62,65.08,-86.95,844,904,830,434,812,33.333333333333336,-0.12,0.927,0.357
167552,1755608571809,7.61,65.13,-87.02,845,897,833,310,818,34.48275862068966,-0.124,0.932,0.356
167582,1755608571838,7.64,65.15,-87.06,843,900,833,329,816,33.333333333333336,-0.13,0.932,0.358
167611,1755608571868,7.69,65.28,-87.07,846,898,832,449,816,34.48275862068966,-0.129,0.93,0.358
167640,1755608571897,7.72,65.38,-87.13,849,900,830,457,821,34.48275862068966,-0.127,0.931,0.354
167670,1755608571926,7.67,65.42,-87.2,845,904,831,339,819,33.333333333333336,-0.129,0.932,0.354
167699,1755608571956,7.69,65.51,-87.2,846,906,832,324,817,34.48275862068966,-0.131,0.934,0.353
167729,1755608571985,7.74,65.42,-87.25,850,902,831,404,815,33.333333333333336,-0.132,0.931,0.346
167758,1755608572015,7.7,65.39,-87.2,845,902,834,451,820,34.48275862068966,-0.131,0.927,0.347
167788,1755608572045,7.71,65.44,-87.18,851,899,831,402,819,33.333333333333336,-0.131,0.931,0.351
167808,1755608572065,7.74,65.5,-87.18,847,905,833,419,818,50.0,-0.132,0.937,0.351
167837,1755608572094,7.69,65.61,-87.22,848,902,834,373,816,34.48275862068966,-0.127,0.936,0.35
167867,1755608572123,7.68,65.65,-87.3,846,906,832,295,814,33.333333333333336,-0.122,0.934,0.347
167896,1755608572153,7.63,65.63,-87.35,844,905,837,354,820,34.48275862068966,-0.122,0.936,0.348
167926,1755608572183,7.63,65.66,-87.42,843,901,831,438,814,33.333333333333336,-0.129,0.936,0.347
167956,1755608572212,7.19,65.64,-87.43,846,900,837,396,807,33.333333333333336,-0.134,0.935,0.343
167985,1755608572242,7.17,65.56,-87.45,848,902,833,292,816,34.48275862068966,-0.133,0.93,0.343
168014,1755608572271,7.14,65.53,-87.45,848,903,829,309,816,34.48275862068966,-0.132,0.935,0.344
168044,1755608572300,7.2,65.58,-87.48,851,906,831,435,816,33.333333333333336,-0.134,0.937,0.35
168073,1755608572330,7.25,65.57,-87.54,852,892,829,405,814,34.48275862068966,-0.131,0.936,0.347
168103,1755608572359,7.24,65.56,-87.57,844,898,839,299,818,33.333333333333336,-0.129,0.932,0.347
168132,1755608572389,7.17,65.5,-87.63,846,906,834,323,812,34.48275862068966,-0.127,0.933,0.347
168161,1755608572418,7.13,65.53,-87.66,849,905,831,427,820,34.48275862068966,-0.131,0.937,0.351
168191,1755608572448,7.14,65.66,-87.7,847,906,832,432,809,33.333333333333336,-0.134,0.936,0.352
168220,1755608572477,7.13,65.71,-87.73,842,906,838,359,820,34.48275862068966,-0.134,0.934,0.345
168250,1755608572507,7.13,65.61,-87.77,844,902,831,312,814,33.333333333333336,-0.134,0.931,0.339
168280,1755608572536,7.15,65.54,-87.77,841,906,834,357,818,33.333333333333336,-0.139,0.931,0.346
168309,1755608572566,7.18,65.62,-87.73,848,899,834,470,814,34.48275862068966,-0.14,0.933,0.354
168338,1755608572595,7.2,65.72,-87.72,848,899,832,421,819,34.48275862068966,-0.136,0.934,0.35
168368,1755608572625,7.18,65.72,-87.71,846,905,832,296,813,33.333333333333336,-0.13,0.932,0.345
168397,1755608572654,7.15,65.66,-87.75,843,900,832,333,816,34.48275862068966,-0.127,0.933,0.346
168427,1755608572683,7.16,65.64,-87.82,845,902,842,443,814,33.333333333333336,-0.134,0.935,0.347
168456,1755608572713,7.18,65.63,-87.86,848,899,834,438,819,34.48275862068966,-0.137,0.932,0.346
168486,1755608572742,7.2,65.63,-87.87,846,899,834,317,820,33.333333333333336,-0.135,0.93,0.343
168515,1755608572772,7.18,65.63,-87.86,840,900,829,314,819,34.48275862068966,-0.131,0.933,0.343
168544,1755608572801,7.16,65.61,-87.9,847,904,831,433,817,34.48275862068966,-0.128,0.936,0.347
168574,1755608572830,7.18,65.63,-87.99,845,902,827,431,817,33.333333333333336,-0.13,0.935,0.35
168603,1755608572860,7.23,65.64,-88.05,843,893,839,335,819,34.48275862068966,-0.133,0.934,0.348
168632,1755608572889,7.29,65.66,-88.1,842,902,832,301,818,34.48275862068966,-0.14,0.93,0.346
168662,1755608572918,7.25,65.61,-88.06,848,905,832,392,812,33.333333333333336,-0.137,0.932,0.341
168691,1755608572948,7.26,65.57,-88.1,842,900,833,426,818,34.48275862068966,-0.133,0.932,0.343
168721,1755608572978,7.28,65.58,-88.13,847,904,831,379,817,33.333333333333336,-0.135,0.934,0.347
168751,1755608573007,7.27,65.61,-88.12,846,903,834,299,820,33.333333333333336,-0.133,0.933,0.348
168780,1755608573037,7.27,65.64,-88.17,841,901,832,327,819,34.48275862068966,-0.132,0.933,0.346
168809,1755608573066,7.25,65.64,-88.2,841,901,834,452,809,34.48275862068966,-0.135,0.935,0.345
168839,1755608573095,7.28,65.65,-88.26,843,904,836,407,819,33.333333333333336,-0.138,0.934,0.345
168868,1755608573125,7.32,65.65,-88.28,845,906,834,300,823,34.48275862068966,-0.138,0.933,0.344
168898,1755608573154,7.31,65.61,-88.31,847,900,828,337,817,33.333333333333336,-0.135,0.934,0.341
168927,1755608573184,7.34,65.5,-88.48,845,902,834,443,817,34.48275862068966,-0.131,0.933,0.344
168957,1755608573214,7.33,65.6,-88.49,847,901,843,418,817,33.333333333333336,-0.134,0.935,0.347
168986,1755608573243,7.34,65.62,-88.53,844,906,833,332,823,34.48275862068966,-0.139,0.934,0.345
169016,1755608573272,7.36,65.61,-88.55,843,901,832,322,819,33.333333333333336,-0.141,0.93,0.345
169045,1755608573302,7.41,65.58,-88.54,847,893,824,391,820,34.48275862068966,-0.142,0.931,0.344
169075,1755608573331,7.45,65.59,-88.51,844,908,833,451,822,33.333333333333336,-0.14,0.933,0.346
169104,1755608573361,7.47,65.61,-88.54,846,902,829,369,815,34.48275862068966,-0.135,0.934,0.346
169124,1755608573381,7.48,65.66,-88.59,842,902,833,418,818,50.0,-0.132,0.934,0.346
169154,1755608573411,7.47,65.68,-88.61,844,895,836,329,837,33.333333333333336,-0.135,0.933,0.348
169174,1755608573430,7.48,65.72,-88.63,844,897,830,420,819,50.0,-0.136,0.934,0.348
169203,1755608573460,7.5,65.76,-88.68,846,899,840,336,816,34.48275862068966,-0.137,0.935,0.344
169233,1755608573490,7.47,65.75,-88.69,841,904,830,317,821,33.333333333333336,-0.138,0.932,0.342
169262,1755608573519,7.48,65.74,-88.71,844,904,832,373,826,34.48275862068966,-0.141,0.931,0.344
169292,1755608573549,7.5,65.77,-88.69,840,899,833,460,815,33.333333333333336,-0.144,0.932,0.347
169321,1755608573578,7.55,65.79,-88.69,844,902,835,394,815,34.48275862068966,-0.143,0.933,0.348
169351,1755608573607,7.56,65.83,-88.73,846,904,833,303,816,33.333333333333336,-0.138,0.935,0.343
169380,1755608573637,7.51,65.78,-88.76,844,900,834,360,819,34.48275862068966,-0.137,0.933,0.342
169410,1755608573666,7.54,65.74,-88.82,838,909,834,454,814,33.333333333333336,-0.143,0.934,0.347
169439,1755608573696,7.55,65.81,-88.79,841,893,824,415,815,34.48275862068966,-0.143,0.935,0.346
169468,1755608573725,7.57,65.81,-88.84,844,901,826,315,818,34.48275862068966,-0.138,0.932,0.342
169498,1755608573755,7.54,65.8,-88.85,841,900,826,340,819,33.333333333333336,-0.137,0.932,0.344
169528,1755608573785,7.54,65.86,-88.83,844,900,833,439,820,33.333333333333336,-0.139,0.935,0.348
169557,1755608573814,7.61,65.98,-88.85,846,920,832,456,819,34.48275862068966,-0.145,0.936,0.347
169587,1755608573843,7.58,66.03,-88.84,840,903,834,353,820,33.333333333333336,-0.136,0.931,0.339
169616,1755608573873,7.54,65.99,-88.86,843,895,831,315,819,34.48275862068966,-0.134,0.934,0.336
169646,1755608573903,7.5,65.94,-88.89,843,898,833,361,816,33.333333333333336,-0.138,0.938,0.339
169675,1755608573932,7.52,66.01,-88.87,843,897,832,441,819,34.48275862068966,-0.144,0.935,0.346
169705,1755608573962,7.53,66.03,-88.85,846,905,832,411,814,33.333333333333336,-0.145,0.937,0.342
169735,1755608573992,7.53,66.01,-88.84,844,904,831,296,818,33.333333333333336,-0.14,0.936,0.336
169765,1755608574021,7.55,65.93,-88.84,843,899,830,323,819,33.333333333333336,-0.141,0.934,0.338
169794,1755608574051,7.55,65.92,-88.81,845,893,831,431,820,34.48275862068966,-0.138,0.937,0.342
169824,1755608574081,7.57,65.94,-88.86,845,891,831,425,816,33.333333333333336,-0.136,0.94,0.343
169853,1755608574110,7.58,65.92,-88.91,844,902,825,344,822,34.48275862068966,-0.136,0.937,0.344
169883,1755608574139,7.55,65.98,-88.91,844,902,833,315,816,33.333333333333336,-0.135,0.936,0.341
169912,1755608574169,7.56,65.99,-88.94,844,899,831,377,820,34.48275862068966,-0.138,0.936,0.34
169942,1755608574198,7.62,65.93,-88.95,840,897,831,442,811,33.333333333333336,-0.141,0.935,0.341
169971,1755608574227,7.68,65.9,-88.92,844,893,831,387,821,34.48275862068966,-0.143,0.934,0.343
170000,1755608574257,7.71,65.84,-88.9,843,893,827,295,822,34.48275862068966,-0.139,0.933,0.342
170030,1755608574287,7.71,65.83,-88.94,839,899,832,348,816,33.333333333333336,-0.136,0.934,0.342
170059,1755608574317,7.72,65.81,-88.96,845,903,834,459,817,34.48275862068966,-0.135,0.937,0.345
170080,1755608574337,7.71,65.84,-88.96,843,900,829,329,815,47.61904761904762,-0.134,0.938,0.344
170109,1755608574366,7.7,65.79,-89.03,841,891,823,434,814,34.48275862068966,-0.132,0.933,0.342
170139,1755608574396,7.69,65.68,-89.2,844,902,833,401,815,33.333333333333336,-0.13,0.932,0.342
170169,1755608574426,7.71,65.7,-89.21,852,901,834,301,825,33.333333333333336,-0.141,0.937,0.347
170189,1755608574446,7.72,65.72,-89.22,841,901,834,435,817,50.0,-0.142,0.935,0.349
170218,1755608574475,7.72,65.78,-89.2,839,905,832,325,819,34.48275862068966,-0.138,0.933,0.345
170248,1755608574505,7.7,65.77,-89.2,845,901,834,314,815,33.333333333333336,-0.138,0.935,0.343
