timestamp_ms,recv_timestamp_ms,pitch,roll,yaw,flex1,flex2,flex3,flex4,flex5,sampling_hz,accel_x,accel_y,accel_z
45043,1755585651726,21.7,-60.36,-56.84,767,774,765,807,821,33.333333333333336,-0.362,-0.806,0.463
45072,1755585651756,21.75,-60.23,-56.82,755,780,774,803,828,34.48275862068966,-0.368,-0.807,0.46
45101,1755585651785,21.75,-60.28,-56.81,763,781,769,814,821,34.48275862068966,-0.368,-0.804,0.454
45131,1755585651815,21.79,-60.35,-56.81,765,773,771,807,807,33.333333333333336,-0.367,-0.804,0.459
45160,1755585651844,21.65,-60.27,-56.88,767,776,768,798,851,34.48275862068966,-0.364,-0.802,0.462
45190,1755585651874,21.7,-60.32,-56.9,763,767,774,824,830,33.333333333333336,-0.362,-0.803,0.468
45220,1755585651903,21.77,-60.35,-56.91,767,772,776,814,825,33.333333333333336,-0.365,-0.805,0.469
45249,1755585651933,21.78,-60.32,-56.9,766,772,766,811,820,34.48275862068966,-0.36,-0.8,0.467
45279,1755585651963,21.91,-60.28,-56.9,766,774,771,817,824,33.333333333333336,-0.359,-0.797,0.467
45308,1755585651992,22.03,-60.31,-56.92,761,769,774,808,831,34.48275862068966,-0.36,-0.801,0.467
45338,1755585652022,22.25,-60.44,-56.9,767,771,768,815,819,33.333333333333336,-0.36,-0.802,0.467
45368,1755585652051,22.49,-60.36,-56.89,764,771,772,814,832,33.333333333333336,-0.374,-0.809,0.471
45397,1755585652081,22.32,-60.08,-56.92,756,786,769,802,829,34.48275862068966,-0.376,-0.805,0.457
45427,1755585652111,22.44,-60.01,-56.87,763,772,770,811,819,33.333333333333336,-0.375,-0.801,0.45
45456,1755585652141,22.43,-60.1,-56.88,760,776,770,814,828,34.48275862068966,-0.372,-0.802,0.455
45486,1755585652170,22.39,-60.07,-56.91,767,780,772,818,841,33.333333333333336,-0.37,-0.8,0.462
45516,1755585652200,22.41,-60.0,-56.92,767,779,763,809,830,33.333333333333336,-0.374,-0.799,0.465
45546,1755585652230,22.42,-59.96,-56.97,764,776,774,814,815,33.333333333333336,-0.382,-0.801,0.461
45575,1755585652259,22.32,-59.96,-56.95,759,779,781,808,825,34.48275862068966,-0.382,-0.801,0.45
45605,1755585652289,22.46,-60.21,-56.9,767,779,766,810,818,33.333333333333336,-0.373,-0.797,0.458
45634,1755585652318,22.45,-60.28,-56.95,762,783,773,813,827,34.48275862068966,-0.373,-0.798,0.471
45664,1755585652348,22.36,-60.12,-57.02,759,780,774,812,821,33.333333333333336,-0.372,-0.801,0.472
45693,1755585652377,22.51,-60.16,-56.99,762,770,769,806,827,34.48275862068966,-0.373,-0.802,0.47
45723,1755585652407,22.54,-60.06,-56.98,760,779,784,814,825,33.333333333333336,-0.379,-0.801,0.465
45752,1755585652436,22.44,-60.05,-57.04,760,777,769,807,825,34.48275862068966,-0.379,-0.795,0.456
45782,1755585652466,22.47,-60.14,-57.06,760,780,767,814,823,33.333333333333336,-0.376,-0.794,0.461
45812,1755585652495,22.43,-60.12,-57.15,764,780,776,810,828,33.333333333333336,-0.373,-0.798,0.47
45841,1755585652525,22.45,-59.95,-57.21,769,764,772,813,831,34.48275862068966,-0.37,-0.801,0.474
45871,1755585652554,22.61,-59.86,-57.17,770,777,767,818,828,33.333333333333336,-0.367,-0.802,0.471
45900,1755585652584,22.74,-59.75,-57.16,764,770,763,816,824,34.48275862068966,-0.371,-0.802,0.468
45930,1755585652613,22.61,-59.64,-57.26,762,769,763,813,831,33.333333333333336,-0.374,-0.794,0.463
45959,1755585652643,22.69,-59.63,-57.28,760,772,765,814,824,34.48275862068966,-0.379,-0.798,0.461
45989,1755585652673,22.67,-59.62,-57.26,755,777,766,811,834,33.333333333333336,-0.382,-0.803,0.46
46019,1755585652703,22.61,-59.62,-57.23,767,778,768,814,824,33.333333333333336,-0.38,-0.799,0.459
46048,1755585652732,22.6,-59.68,-57.23,770,776,773,809,825,34.48275862068966,-0.374,-0.793,0.464
46078,1755585652762,22.56,-59.73,-57.3,761,763,782,805,817,33.333333333333336,-0.378,-0.795,0.465
46107,1755585652791,22.48,-59.7,-57.27,764,783,774,813,818,34.48275862068966,-0.379,-0.797,0.461
46137,1755585652821,22.56,-59.87,-57.22,766,778,772,811,825,33.333333333333336,-0.376,-0.799,0.465
46166,1755585652850,22.46,-59.87,-57.27,767,770,770,811,821,34.48275862068966,-0.373,-0.797,0.471
46196,1755585652880,22.41,-59.81,-57.29,766,773,773,811,833,33.333333333333336,-0.374,-0.797,0.469
46226,1755585652909,22.48,-59.88,-57.26,770,770,767,808,826,33.333333333333336,-0.375,-0.798,0.468
46255,1755585652939,22.39,-59.89,-57.27,758,774,775,807,825,34.48275862068966,-0.374,-0.798,0.469
46285,1755585652969,22.39,-59.9,-57.29,762,780,777,811,825,33.333333333333336,-0.371,-0.794,0.473
46314,1755585652998,22.45,-59.84,-57.31,763,779,768,804,815,34.48275862068966,-0.374,-0.796,0.475
46344,1755585653028,22.32,-59.87,-57.33,769,773,771,812,824,33.333333333333336,-0.38,-0.797,0.467
46373,1755585653057,22.51,-60.05,-57.22,762,776,768,802,834,34.48275862068966,-0.377,-0.795,0.46
46403,1755585653087,22.71,-60.34,-57.12,761,779,761,799,824,33.333333333333336,-0.374,-0.795,0.463
46432,1755585653116,22.75,-60.37,-57.13,763,779,772,814,823,34.48275862068966,-0.376,-0.799,0.475
46462,1755585653146,22.59,-60.21,-57.18,759,772,757,817,824,33.333333333333336,-0.373,-0.797,0.47
46492,1755585653176,22.66,-60.24,-57.16,759,766,763,811,822,33.333333333333336,-0.373,-0.798,0.465
46521,1755585653205,22.66,-60.32,-57.12,761,775,771,803,829,34.48275862068966,-0.375,-0.799,0.469
46551,1755585653235,22.62,-60.28,-57.18,760,777,769,817,829,33.333333333333336,-0.375,-0.798,0.469
46580,1755585653264,22.64,-60.27,-57.19,761,779,766,813,823,34.48275862068966,-0.377,-0.798,0.465
46610,1755585653294,22.7,-60.3,-57.16,767,770,769,807,831,33.333333333333336,-0.38,-0.8,0.463
46640,1755585653323,22.64,-60.33,-57.17,763,770,766,812,843,33.333333333333336,-0.379,-0.793,0.462
46669,1755585653353,22.74,-60.46,-57.22,767,780,768,817,825,34.48275862068966,-0.377,-0.797,0.463
46698,1755585653382,22.57,-60.44,-57.3,760,786,773,814,835,34.48275862068966,-0.377,-0.8,0.465
46728,1755585653412,22.66,-60.46,-57.3,762,773,778,810,823,33.333333333333336,-0.377,-0.8,0.461
46758,1755585653442,22.73,-60.4,-57.27,759,771,763,815,826,33.333333333333336,-0.385,-0.802,0.462
46787,1755585653471,22.67,-60.33,-57.26,767,773,771,818,825,34.48275862068966,-0.383,-0.797,0.459
46817,1755585653501,22.85,-60.55,-57.18,764,777,771,815,827,33.333333333333336,-0.379,-0.796,0.457
46846,1755585653530,22.97,-60.8,-57.13,764,779,770,819,832,34.48275862068966,-0.379,-0.8,0.462
46876,1755585653560,22.88,-60.9,-57.19,764,773,772,808,826,33.333333333333336,-0.38,-0.798,0.461
46905,1755585653589,22.83,-60.95,-57.26,766,763,773,814,823,34.48275862068966,-0.385,-0.799,0.452
46935,1755585653619,22.9,-60.99,-57.23,765,778,766,807,817,33.333333333333336,-0.39,-0.807,0.451
46964,1755585653648,22.94,-61.03,-57.17,763,778,771,807,827,34.48275862068966,-0.382,-0.806,0.453
46994,1755585653678,22.93,-61.02,-57.2,760,773,767,817,817,33.333333333333336,-0.376,-0.804,0.46
47023,1755585653708,22.81,-60.8,-57.32,760,781,769,808,820,34.48275862068966,-0.377,-0.804,0.46
47053,1755585653737,22.76,-60.67,-57.39,766,776,769,806,826,33.333333333333336,-0.38,-0.804,0.453
47083,1755585653767,22.83,-60.75,-57.39,764,771,773,812,822,33.333333333333336,-0.386,-0.803,0.451
47113,1755585653797,22.77,-60.67,-57.41,765,775,773,806,828,33.333333333333336,-0.389,-0.804,0.451
47142,1755585653826,22.62,-60.49,-57.48,764,776,775,808,822,34.48275862068966,-0.384,-0.802,0.452
47172,1755585653855,22.62,-60.55,-57.51,765,778,772,809,821,33.333333333333336,-0.379,-0.802,0.452
47201,1755585653885,22.64,-60.65,-57.52,765,773,775,811,827,34.48275862068966,-0.379,-0.802,0.459
47231,1755585653914,22.63,-60.6,-57.53,766,775,765,811,810,33.333333333333336,-0.376,-0.802,0.461
47260,1755585653944,22.69,-60.52,-57.55,760,768,792,807,821,34.48275862068966,-0.379,-0.804,0.458
47290,1755585653974,22.65,-60.54,-57.55,761,765,767,814,822,33.333333333333336,-0.381,-0.805,0.452
47319,1755585654003,22.62,-60.61,-57.52,762,767,770,810,831,34.48275862068966,-0.377,-0.8,0.454
47349,1755585654033,22.66,-60.87,-57.52,762,781,771,807,860,33.333333333333336,-0.373,-0.797,0.455
47378,1755585654062,22.67,-61.11,-57.61,765,771,762,818,809,34.48275862068966,-0.381,-0.8,0.455
47408,1755585654092,22.54,-61.07,-57.68,761,779,774,816,827,33.333333333333336,-0.382,-0.802,0.451
47437,1755585654121,22.6,-60.99,-57.62,768,771,776,813,827,34.48275862068966,-0.374,-0.803,0.451
47467,1755585654151,22.55,-60.94,-57.67,762,773,770,817,819,33.333333333333336,-0.369,-0.805,0.457
47497,1755585654180,22.53,-60.8,-57.73,767,776,764,816,821,33.333333333333336,-0.368,-0.804,0.457
47526,1755585654210,22.59,-60.79,-57.75,762,773,767,811,824,34.48275862068966,-0.37,-0.803,0.454
47556,1755585654239,22.63,-60.74,-57.78,768,769,761,811,815,33.333333333333336,-0.376,-0.805,0.454
47585,1755585654269,22.56,-60.67,-57.82,764,777,766,807,826,34.48275862068966,-0.376,-0.804,0.454
47615,1755585654299,22.6,-60.69,-57.85,764,783,766,814,828,33.333333333333336,-0.374,-0.802,0.453
47644,1755585654328,22.6,-60.67,-57.87,766,775,770,815,820,34.48275862068966,-0.375,-0.804,0.453
47674,1755585654357,22.58,-60.63,-57.87,760,772,780,808,825,33.333333333333336,-0.376,-0.804,0.452
47703,1755585654387,22.6,-60.7,-57.91,769,776,770,814,820,34.48275862068966,-0.376,-0.806,0.45
47733,1755585654417,22.56,-60.71,-57.92,768,779,769,807,823,33.333333333333336,-0.377,-0.801,0.452
47762,1755585654447,22.6,-60.73,-57.97,763,771,767,810,826,34.48275862068966,-0.379,-0.803,0.456
47792,1755585654476,22.61,-60.68,-57.97,765,780,772,816,822,33.333333333333336,-0.377,-0.804,0.456
47822,1755585654506,22.6,-60.75,-57.99,764,772,774,813,824,33.333333333333336,-0.375,-0.802,0.453
47851,1755585654535,22.59,-60.82,-58.05,762,778,766,814,826,34.48275862068966,-0.374,-0.802,0.457
47881,1755585654565,22.54,-60.82,-58.1,765,778,776,807,827,33.333333333333336,-0.375,-0.806,0.457
47910,1755585654594,22.57,-60.84,-58.09,767,776,769,813,831,34.48275862068966,-0.375,-0.807,0.455
47940,1755585654624,22.57,-60.89,-58.09,758,769,775,816,823,33.333333333333336,-0.378,-0.809,0.455
47969,1755585654654,22.49,-60.84,-58.13,764,772,768,811,826,34.48275862068966,-0.376,-0.807,0.453
47999,1755585654683,22.41,-60.8,-58.15,763,781,772,814,824,33.333333333333336,-0.37,-0.805,0.453
48029,1755585654713,22.45,-60.83,-58.19,756,782,774,818,819,33.333333333333336,-0.37,-0.808,0.458
48058,1755585654742,22.37,-60.77,-58.22,761,778,764,819,824,34.48275862068966,-0.372,-0.808,0.459
48088,1755585654772,22.32,-60.68,-58.23,771,781,770,820,820,33.333333333333336,-0.371,-0.806,0.456
48117,1755585654801,22.34,-60.64,-58.23,764,768,770,814,822,34.48275862068966,-0.371,-0.804,0.456
48147,1755585654831,22.34,-60.69,-58.25,764,778,768,807,828,33.333333333333336,-0.369,-0.804,0.459
48177,1755585654860,22.37,-60.72,-58.26,768,772,769,808,832,33.333333333333336,-0.368,-0.804,0.459
48206,1755585654890,22.38,-60.75,-58.29,768,774,767,818,826,34.48275862068966,-0.368,-0.806,0.456
48236,1755585654920,22.41,-60.78,-58.28,765,778,764,809,822,33.333333333333336,-0.366,-0.805,0.456
48265,1755585654949,22.43,-60.82,-58.29,770,782,771,819,826,34.48275862068966,-0.368,-0.806,0.459
48295,1755585654979,22.38,-60.77,-58.33,763,784,768,810,818,33.333333333333336,-0.37,-0.806,0.459
48325,1755585655009,22.44,-60.8,-58.31,761,778,775,809,824,33.333333333333336,-0.371,-0.808,0.455
48354,1755585655038,22.42,-60.86,-58.3,776,765,779,807,826,34.48275862068966,-0.368,-0.807,0.453
48384,1755585655068,22.39,-60.83,-58.32,765,778,772,804,814,33.333333333333336,-0.366,-0.805,0.456
48414,1755585655097,22.39,-60.8,-58.36,762,776,773,812,832,33.333333333333336,-0.365,-0.805,0.457
48443,1755585655127,22.41,-60.79,-58.38,766,771,773,812,831,34.48275862068966,-0.368,-0.809,0.459
48473,1755585655157,22.37,-60.75,-58.39,767,777,766,810,826,33.333333333333336,-0.37,-0.808,0.457
48502,1755585655186,22.42,-60.78,-58.36,762,768,774,809,822,34.48275862068966,-0.369,-0.805,0.455
48532,1755585655216,22.43,-60.76,-58.39,764,783,766,815,825,33.333333333333336,-0.37,-0.804,0.456
48561,1755585655245,22.35,-60.76,-58.45,765,765,765,809,821,34.48275862068966,-0.369,-0.802,0.453
48591,1755585655275,22.41,-60.84,-58.46,762,767,769,810,823,33.333333333333336,-0.369,-0.805,0.456
48621,1755585655304,22.37,-60.79,-58.48,769,780,778,807,825,33.333333333333336,-0.369,-0.807,0.462
48650,1755585655334,22.37,-60.78,-58.52,762,774,773,805,827,34.48275862068966,-0.366,-0.804,0.461
48679,1755585655363,22.37,-60.77,-58.52,764,779,772,806,820,34.48275862068966,-0.362,-0.807,0.456
48709,1755585655393,22.35,-60.76,-58.52,764,769,770,809,827,33.333333333333336,-0.36,-0.806,0.455
48739,1755585655422,22.38,-60.84,-58.57,761,782,767,813,827,33.333333333333336,-0.361,-0.804,0.459
48768,1755585655453,22.34,-60.73,-58.64,763,764,773,811,829,34.48275862068966,-0.368,-0.807,0.46
48788,1755585655472,22.28,-60.64,-58.66,758,777,771,813,828,50.0,-0.373,-0.808,0.454
48818,1755585655502,22.34,-60.74,-58.6,757,775,768,812,826,33.333333333333336,-0.374,-0.809,0.451
48847,1755585655531,22.35,-60.79,-58.57,751,777,759,803,820,34.48275862068966,-0.371,-0.807,0.457
48877,1755585655561,22.27,-60.75,-58.62,762,771,769,812,819,33.333333333333336,-0.365,-0.805,0.457
48906,1755585655590,22.28,-60.73,-58.66,763,781,770,807,824,34.48275862068966,-0.365,-0.805,0.456
48936,1755585655620,22.26,-60.72,-58.68,755,780,762,804,831,33.333333333333336,-0.369,-0.807,0.456
48965,1755585655649,22.26,-60.77,-58.67,765,769,778,816,846,34.48275862068966,-0.37,-0.806,0.454
48995,1755585655679,22.32,-60.82,-58.66,760,777,773,808,826,33.333333333333336,-0.367,-0.806,0.456
49025,1755585655708,22.35,-60.8,-58.67,772,767,770,806,828,33.333333333333336,-0.365,-0.807,0.458
49054,1755585655738,22.31,-60.76,-58.71,755,780,771,809,820,34.48275862068966,-0.364,-0.807,0.456
49074,1755585655758,22.3,-60.76,-58.72,762,774,772,807,822,50.0,-0.364,-0.807,0.451
49104,1755585655788,22.31,-60.78,-58.73,763,777,768,820,819,33.333333333333336,-0.366,-0.804,0.452
49133,1755585655818,22.35,-60.85,-58.76,767,771,768,806,827,34.48275862068966,-0.369,-0.805,0.454
49163,1755585655847,22.32,-60.82,-58.77,766,775,765,805,828,33.333333333333336,-0.37,-0.807,0.452
49193,1755585655876,22.29,-60.82,-58.78,766,775,766,815,816,33.333333333333336,-0.368,-0.805,0.451
49222,1755585655906,22.28,-60.91,-58.82,766,775,770,817,821,34.48275862068966,-0.366,-0.808,0.454
49252,1755585655936,22.3,-60.9,-58.83,764,778,774,810,825,33.333333333333336,-0.362,-0.806,0.456
49281,1755585655965,22.33,-60.87,-58.89,764,779,755,814,828,34.48275862068966,-0.365,-0.807,0.459
49311,1755585655995,22.26,-60.77,-58.96,765,776,765,810,825,33.333333333333336,-0.373,-0.81,0.453
49340,1755585656024,22.32,-60.83,-58.91,766,776,762,806,823,34.48275862068966,-0.373,-0.809,0.448
49370,1755585656054,22.33,-60.94,-58.91,759,772,769,816,811,33.333333333333336,-0.371,-0.809,0.45
49400,1755585656084,22.24,-60.86,-58.95,756,776,768,809,821,33.333333333333336,-0.368,-0.809,0.453
49429,1755585656113,22.26,-60.9,-58.98,765,771,774,816,826,34.48275862068966,-0.365,-0.807,0.453
49459,1755585656143,22.25,-60.95,-59.01,761,784,774,813,825,33.333333333333336,-0.367,-0.807,0.455
49488,1755585656172,22.18,-60.86,-59.03,762,782,778,817,827,34.48275862068966,-0.368,-0.808,0.455
49518,1755585656202,22.25,-60.87,-59.02,762,776,775,813,821,33.333333333333336,-0.365,-0.809,0.454
49547,1755585656231,22.27,-60.87,-59.04,764,777,785,808,823,34.48275862068966,-0.367,-0.811,0.454
49577,1755585656261,22.25,-60.8,-59.04,760,779,766,809,822,33.333333333333336,-0.367,-0.811,0.45
49607,1755585656291,22.23,-60.83,-59.0,760,779,772,814,821,33.333333333333336,-0.367,-0.808,0.451
49636,1755585656320,22.17,-60.91,-59.05,761,771,771,816,822,34.48275862068966,-0.367,-0.805,0.453
49666,1755585656350,22.13,-60.88,-59.06,761,780,777,806,827,33.333333333333336,-0.369,-0.808,0.455
49695,1755585656379,22.14,-60.88,-59.02,763,769,770,810,832,34.48275862068966,-0.368,-0.81,0.455
49725,1755585656409,22.12,-60.89,-59.01,765,775,763,825,821,33.333333333333336,-0.365,-0.81,0.454
49754,1755585656438,22.06,-60.94,-59.01,767,774,773,817,822,34.48275862068966,-0.365,-0.809,0.451
49784,1755585656468,22.08,-61.04,-58.99,762,775,768,812,832,33.333333333333336,-0.365,-0.808,0.453
49814,1755585656497,22.08,-61.07,-58.99,761,775,774,816,824,33.333333333333336,-0.364,-0.809,0.456
49843,1755585656527,22.15,-61.05,-58.96,762,775,773,816,840,34.48275862068966,-0.362,-0.812,0.46
49873,1755585656557,22.19,-61.03,-58.95,764,773,776,804,831,33.333333333333336,-0.361,-0.809,0.461
49902,1755585656586,22.18,-60.99,-58.98,761,774,770,826,824,34.48275862068966,-0.364,-0.807,0.46
49932,1755585656616,22.15,-60.97,-59.02,759,770,767,805,826,33.333333333333336,-0.368,-0.807,0.454
49961,1755585656645,22.17,-61.03,-59.03,765,773,761,809,835,34.48275862068966,-0.368,-0.805,0.452
49991,1755585656675,22.24,-61.13,-59.04,763,780,770,813,823,33.333333333333336,-0.37,-0.807,0.455
50020,1755585656705,22.24,-61.14,-59.06,765,775,761,803,816,34.48275862068966,-0.373,-0.806,0.455
50040,1755585656724,22.22,-61.14,-59.09,764,769,768,813,828,50.0,-0.373,-0.805,0.45
50070,1755585656754,22.23,-61.2,-59.1,763,771,771,810,835,33.333333333333336,-0.369,-0.809,0.447
50099,1755585656783,22.33,-61.42,-59.04,764,775,775,810,822,34.48275862068966,-0.363,-0.81,0.449
50129,1755585656813,22.47,-61.55,-58.99,763,777,764,809,827,33.333333333333336,-0.364,-0.816,0.457
50158,1755585656842,22.31,-61.41,-59.06,760,780,765,826,831,34.48275862068966,-0.365,-0.812,0.454
50188,1755585656872,22.33,-61.4,-59.1,765,775,765,818,830,33.333333333333336,-0.371,-0.81,0.442
50217,1755585656901,22.34,-61.57,-59.07,763,775,767,812,827,34.48275862068966,-0.375,-0.813,0.438
50247,1755585656931,22.26,-61.74,-59.1,764,780,770,818,829,33.333333333333336,-0.37,-0.811,0.444
50277,1755585656961,22.3,-61.79,-59.15,765,778,767,809,815,33.333333333333336,-0.365,-0.81,0.45
50306,1755585656990,22.23,-61.76,-59.23,760,788,764,813,831,34.48275862068966,-0.367,-0.813,0.45
50336,1755585657020,22.23,-61.78,-59.28,762,792,765,811,821,33.333333333333336,-0.37,-0.811,0.445
50365,1755585657049,22.3,-61.83,-59.3,761,773,774,806,831,34.48275862068966,-0.375,-0.811,0.443
50395,1755585657079,22.24,-61.84,-59.33,758,778,763,821,828,33.333333333333336,-0.375,-0.817,0.44
50425,1755585657109,22.16,-61.95,-59.34,764,769,771,811,820,33.333333333333336,-0.368,-0.815,0.441
50454,1755585657138,22.23,-61.96,-59.32,767,777,773,800,823,34.48275862068966,-0.364,-0.816,0.447
50484,1755585657168,22.21,-61.89,-59.35,765,778,768,811,824,33.333333333333336,-0.366,-0.82,0.45
50513,1755585657198,22.14,-61.84,-59.36,769,779,773,808,824,34.48275862068966,-0.369,-0.819,0.444
50543,1755585657227,22.16,-61.87,-59.34,762,768,771,809,830,33.333333333333336,-0.373,-0.818,0.436
50573,1755585657257,22.14,-61.92,-59.3,766,780,771,811,826,33.333333333333336,-0.371,-0.818,0.434
50603,1755585657287,22.13,-61.99,-59.31,759,781,772,809,826,33.333333333333336,-0.367,-0.815,0.436
50632,1755585657317,22.07,-62.0,-59.35,763,779,766,809,824,34.48275862068966,-0.367,-0.819,0.438
50662,1755585657346,22.02,-62.04,-59.34,766,782,771,813,822,33.333333333333336,-0.367,-0.82,0.44
50692,1755585657376,22.07,-62.06,-59.29,756,793,779,810,819,33.333333333333336,-0.364,-0.814,0.44
50721,1755585657406,22.22,-62.23,-59.28,756,778,772,807,824,34.48275862068966,-0.366,-0.816,0.44
50751,1755585657435,22.12,-62.19,-59.32,769,774,770,807,821,33.333333333333336,-0.369,-0.819,0.435
50781,1755585657465,22.11,-62.2,-59.3,759,772,773,808,814,33.333333333333336,-0.367,-0.819,0.433
50810,1755585657494,22.2,-62.22,-59.26,763,777,771,814,820,34.48275862068966,-0.366,-0.817,0.436
50840,1755585657524,22.15,-62.27,-59.31,764,771,771,808,814,33.333333333333336,-0.367,-0.819,0.439
50869,1755585657554,22.14,-62.27,-59.33,765,768,767,807,826,34.48275862068966,-0.366,-0.815,0.437
50899,1755585657583,22.28,-62.3,-59.31,766,773,762,812,819,33.333333333333336,-0.367,-0.816,0.439
50929,1755585657613,22.24,-62.24,-59.33,775,778,772,806,817,33.333333333333336,-0.371,-0.819,0.438
50958,1755585657642,22.25,-62.26,-59.36,765,779,763,813,821,34.48275862068966,-0.368,-0.819,0.432
50988,1755585657672,22.3,-62.29,-59.35,764,782,783,808,813,33.333333333333336,-0.368,-0.819,0.433
51017,1755585657701,22.27,-62.26,-59.38,771,773,769,806,821,34.48275862068966,-0.366,-0.818,0.434
51047,1755585657731,22.34,-62.27,-59.41,766,771,765,810,822,33.333333333333336,-0.367,-0.816,0.434
51076,1755585657760,22.33,-62.28,-59.46,762,779,769,811,818,34.48275862068966,-0.371,-0.816,0.431
51106,1755585657790,22.34,-62.31,-59.49,762,778,769,813,819,33.333333333333336,-0.374,-0.817,0.427
51135,1755585657819,22.34,-62.37,-59.52,764,777,765,810,821,34.48275862068966,-0.37,-0.814,0.426
51165,1755585657849,22.38,-62.37,-59.57,767,787,763,807,823,33.333333333333336,-0.369,-0.817,0.429
51185,1755585657869,22.37,-62.37,-59.6,762,779,769,812,814,50.0,-0.368,-0.823,0.428
51214,1755585657898,22.3,-62.42,-59.67,760,781,769,805,822,34.48275862068966,-0.369,-0.823,0.431
51244,1755585657928,22.29,-62.35,-59.72,766,775,770,810,823,33.333333333333336,-0.371,-0.823,0.434
51264,1755585657948,22.24,-62.32,-59.75,763,776,770,802,819,50.0,-0.371,-0.821,0.433
51294,1755585657978,22.24,-62.38,-59.81,767,775,773,809,825,33.333333333333336,-0.371,-0.817,0.43
51323,1755585658008,22.2,-62.43,-59.88,759,768,775,797,824,34.48275862068966,-0.37,-0.82,0.431
51353,1755585658037,22.24,-62.3,-59.88,763,775,767,809,837,33.333333333333336,-0.364,-0.823,0.436
51383,1755585658067,22.25,-62.29,-59.95,763,791,767,809,859,33.333333333333336,-0.362,-0.824,0.438
51412,1755585658096,22.22,-62.27,-59.98,765,775,783,816,823,34.48275862068966,-0.361,-0.823,0.433
51442,1755585658126,22.28,-62.32,-59.99,768,775,764,805,822,33.333333333333336,-0.359,-0.822,0.432
51472,1755585658156,22.28,-62.29,-59.99,765,782,769,811,826,33.333333333333336,-0.357,-0.823,0.435
51501,1755585658185,22.25,-62.35,-60.06,758,770,770,812,819,34.48275862068966,-0.358,-0.821,0.434
51531,1755585658215,22.28,-62.37,-60.1,761,778,776,813,828,33.333333333333336,-0.364,-0.822,0.432
51560,1755585658244,22.25,-62.38,-60.09,765,767,765,809,825,34.48275862068966,-0.368,-0.823,0.426
51590,1755585658274,22.26,-62.5,-60.12,761,782,776,809,825,33.333333333333336,-0.368,-0.824,0.429
51620,1755585658303,22.22,-62.51,-60.12,763,776,766,810,829,33.333333333333336,-0.363,-0.823,0.431
51649,1755585658333,22.19,-62.5,-60.14,759,773,766,811,825,34.48275862068966,-0.365,-0.825,0.431
51679,1755585658363,22.16,-62.54,-60.15,765,774,772,804,823,33.333333333333336,-0.365,-0.825,0.425
51708,1755585658392,22.15,-62.63,-60.16,758,774,765,810,834,34.48275862068966,-0.362,-0.824,0.427
51738,1755585658422,22.1,-62.62,-60.21,767,772,773,805,825,33.333333333333336,-0.361,-0.823,0.43
51768,1755585658452,22.07,-62.63,-60.25,759,775,767,807,822,33.333333333333336,-0.363,-0.825,0.428
51797,1755585658482,22.03,-62.62,-60.26,759,781,766,812,825,34.48275862068966,-0.363,-0.827,0.425
51827,1755585658511,22.02,-62.7,-60.24,761,775,772,807,819,33.333333333333336,-0.362,-0.826,0.426
51857,1755585658540,21.95,-62.68,-60.27,760,779,769,816,827,33.333333333333336,-0.359,-0.824,0.428
51886,1755585658570,21.91,-62.67,-60.32,756,781,769,808,817,34.48275862068966,-0.356,-0.824,0.428
51916,1755585658600,21.94,-62.67,-60.3,758,779,773,812,816,33.333333333333336,-0.357,-0.827,0.432
51945,1755585658630,21.95,-62.68,-60.31,768,771,779,803,820,34.48275862068966,-0.358,-0.825,0.433
51975,1755585658659,21.98,-62.62,-60.35,759,776,763,807,824,33.333333333333336,-0.361,-0.824,0.429
52005,1755585658689,22.04,-62.63,-60.32,760,779,761,809,821,33.333333333333336,-0.362,-0.827,0.425
52034,1755585658718,22.03,-62.73,-60.3,758,768,775,804,817,34.48275862068966,-0.358,-0.826,0.424
52064,1755585658748,22.0,-62.72,-60.31,756,777,773,810,818,33.333333333333336,-0.357,-0.828,0.429
52094,1755585658778,21.93,-62.63,-60.31,759,776,773,812,821,33.333333333333336,-0.359,-0.827,0.428
52123,1755585658807,21.93,-62.65,-60.31,765,774,770,805,820,34.48275862068966,-0.362,-0.826,0.424
52153,1755585658836,21.84,-62.72,-60.32,759,770,791,818,821,33.333333333333336,-0.363,-0.826,0.423
52182,1755585658866,21.76,-62.73,-60.33,765,773,763,804,817,34.48275862068966,-0.361,-0.823,0.424
52212,1755585658896,21.76,-62.75,-60.31,762,782,770,807,823,33.333333333333336,-0.363,-0.827,0.427
52241,1755585658925,21.73,-62.78,-60.26,764,778,778,809,831,34.48275862068966,-0.362,-0.828,0.427
52271,1755585658955,21.77,-62.79,-60.21,768,776,762,805,825,33.333333333333336,-0.358,-0.828,0.428
52301,1755585658985,21.71,-62.78,-60.23,762,777,766,800,825,33.333333333333336,-0.354,-0.825,0.429
52330,1755585659015,21.69,-62.73,-60.25,757,768,773,805,819,34.48275862068966,-0.355,-0.823,0.431
52360,1755585659044,21.65,-62.72,-60.28,759,778,769,807,821,33.333333333333336,-0.359,-0.823,0.43
52390,1755585659074,21.68,-62.76,-60.3,762,771,767,812,830,33.333333333333336,-0.36,-0.821,0.428
52419,1755585659104,21.7,-62.82,-60.33,764,780,765,816,820,34.48275862068966,-0.361,-0.821,0.427
52449,1755585659133,21.69,-62.84,-60.38,766,776,772,807,826,33.333333333333336,-0.361,-0.822,0.429
52479,1755585659163,21.7,-62.84,-60.43,764,772,778,815,821,33.333333333333336,-0.361,-0.822,0.429
52509,1755585659193,21.65,-62.83,-60.49,762,771,771,806,828,33.333333333333336,-0.362,-0.828,0.428
52538,1755585659222,21.61,-62.86,-60.47,760,774,768,801,832,34.48275862068966,-0.359,-0.828,0.425
52568,1755585659252,21.63,-62.88,-60.46,758,780,775,806,825,33.333333333333336,-0.355,-0.825,0.427
52597,1755585659281,21.63,-62.86,-60.5,757,778,772,812,832,34.48275862068966,-0.354,-0.824,0.431
52627,1755585659311,21.59,-62.84,-60.56,766,774,760,809,831,33.333333333333336,-0.358,-0.826,0.43
52657,1755585659341,21.54,-62.86,-60.56,761,780,776,807,820,33.333333333333336,-0.361,-0.829,0.427
52686,1755585659370,21.59,-62.83,-60.5,762,775,774,810,821,34.48275862068966,-0.36,-0.829,0.426
52716,1755585659400,21.56,-62.72,-60.5,765,772,767,812,819,33.333333333333336,-0.357,-0.828,0.424
52745,1755585659429,21.47,-62.72,-60.55,764,771,778,805,825,34.48275862068966,-0.356,-0.825,0.426
52775,1755585659459,21.49,-62.71,-60.55,766,780,773,814,825,33.333333333333336,-0.354,-0.826,0.429
52804,1755585659488,21.45,-62.66,-60.56,765,773,776,816,819,34.48275862068966,-0.354,-0.827,0.43
52834,1755585659518,21.46,-62.63,-60.55,756,778,767,808,828,33.333333333333336,-0.353,-0.821,0.43
52864,1755585659548,21.46,-62.63,-60.59,766,769,773,803,827,33.333333333333336,-0.353,-0.817,0.436
52893,1755585659578,21.44,-62.56,-60.68,758,772,772,803,825,34.48275862068966,-0.356,-0.819,0.435
52923,1755585659607,21.48,-62.56,-60.71,771,774,769,806,844,33.333333333333336,-0.361,-0.823,0.432
52953,1755585659637,21.55,-62.54,-60.66,762,776,770,808,826,33.333333333333336,-0.361,-0.827,0.43
52983,1755585659667,21.57,-62.56,-60.63,771,778,783,816,824,33.333333333333336,-0.356,-0.824,0.429
53012,1755585659696,21.58,-62.57,-60.67,764,775,780,799,821,34.48275862068966,-0.354,-0.824,0.432
53042,1755585659726,21.51,-62.56,-60.72,762,782,771,809,821,33.333333333333336,-0.355,-0.824,0.432
53071,1755585659755,21.53,-62.53,-60.72,763,770,768,810,822,34.48275862068966,-0.359,-0.826,0.431
53101,1755585659785,21.56,-62.56,-60.7,763,778,769,809,823,33.333333333333336,-0.36,-0.824,0.431
53130,1755585659814,21.59,-62.57,-60.73,767,776,769,812,823,34.48275862068966,-0.359,-0.824,0.431
53160,1755585659844,21.58,-62.54,-60.74,761,768,783,805,819,33.333333333333336,-0.358,-0.826,0.434
53189,1755585659874,21.56,-62.52,-60.74,763,775,752,806,827,34.48275862068966,-0.358,-0.826,0.433
53219,1755585659903,21.59,-62.57,-60.72,761,779,766,814,838,33.333333333333336,-0.357,-0.826,0.434
53249,1755585659933,21.56,-62.56,-60.71,770,768,769,816,834,33.333333333333336,-0.355,-0.825,0.434
53278,1755585659962,21.54,-62.55,-60.73,763,773,769,815,821,34.48275862068966,-0.355,-0.822,0.434
53308,1755585659992,21.55,-62.54,-60.77,761,770,771,813,830,33.333333333333336,-0.357,-0.819,0.434
53337,1755585660021,21.58,-62.57,-60.79,767,771,772,809,825,34.48275862068966,-0.36,-0.821,0.433
53367,1755585660051,21.55,-62.52,-60.8,764,781,768,805,823,33.333333333333336,-0.361,-0.824,0.433
53396,1755585660081,21.54,-62.54,-60.78,760,772,768,812,819,34.48275862068966,-0.359,-0.823,0.43
53426,1755585660110,21.52,-62.58,-60.8,761,768,772,818,815,33.333333333333336,-0.357,-0.821,0.431
53456,1755585660140,21.49,-62.57,-60.84,763,780,771,811,820,33.333333333333336,-0.358,-0.82,0.433
53486,1755585660170,21.48,-62.54,-60.87,754,775,766,819,822,33.333333333333336,-0.358,-0.823,0.432
53515,1755585660199,21.45,-62.56,-60.87,752,771,767,807,820,34.48275862068966,-0.359,-0.824,0.431
53545,1755585660229,21.46,-62.57,-60.87,762,773,763,811,817,33.333333333333336,-0.359,-0.824,0.43
53575,1755585660258,21.48,-62.55,-60.85,763,775,773,809,827,33.333333333333336,-0.357,-0.824,0.431
53604,1755585660288,21.46,-62.56,-60.86,769,785,770,807,816,34.48275862068966,-0.354,-0.822,0.433
53634,1755585660318,21.44,-62.52,-60.88,767,774,770,810,828,33.333333333333336,-0.355,-0.822,0.434
53663,1755585660347,21.46,-62.49,-60.9,767,775,767,809,833,34.48275862068966,-0.356,-0.822,0.433
53693,1755585660377,21.47,-62.48,-60.9,767,768,777,816,816,33.333333333333336,-0.36,-0.822,0.432
53722,1755585660406,21.45,-62.52,-60.94,765,776,771,813,823,34.48275862068966,-0.359,-0.819,0.43
53752,1755585660436,21.47,-62.55,-60.96,760,776,766,811,831,33.333333333333336,-0.36,-0.821,0.432
53782,1755585660466,21.42,-62.55,-60.97,761,782,770,806,825,33.333333333333336,-0.359,-0.822,0.434
53811,1755585660495,21.47,-62.55,-60.97,763,769,777,818,821,34.48275862068966,-0.356,-0.822,0.437
53841,1755585660525,21.43,-62.51,-61.01,757,784,775,812,824,33.333333333333336,-0.355,-0.823,0.436
