timestamp_ms,recv_timestamp_ms,pitch,roll,yaw,flex1,flex2,flex3,flex4,flex5,sampling_hz,accel_x,accel_y,accel_z
29936,1755586534835,27.28,165.67,-32.13,814,768,828,870,864,34.48275862068966,-0.51,0.183,-0.842
29966,1755586534864,27.55,165.76,-31.88,814,772,827,864,879,33.333333333333336,-0.503,0.188,-0.842
29995,1755586534894,27.64,165.85,-31.83,816,764,824,865,880,34.48275862068966,-0.497,0.203,-0.86
30025,1755586534923,27.43,165.82,-31.96,818,769,833,866,877,33.333333333333336,-0.492,0.208,-0.86
30054,1755586534953,27.26,165.84,-32.12,813,772,822,868,878,34.48275862068966,-0.494,0.206,-0.847
30083,1755586534982,27.23,165.96,-32.24,812,770,839,868,871,34.48275862068966,-0.497,0.202,-0.843
30113,1755586535012,27.2,166.11,-32.29,815,764,817,871,875,33.333333333333336,-0.5,0.199,-0.847
30143,1755586535041,27.19,166.13,-32.35,816,773,821,863,875,33.333333333333336,-0.514,0.194,-0.845
30172,1755586535071,27.29,166.16,-32.25,815,769,816,862,875,34.48275862068966,-0.521,0.19,-0.844
30202,1755586535101,27.52,166.23,-32.03,817,775,816,878,872,33.333333333333336,-0.522,0.19,-0.843
30222,1755586535121,27.71,166.21,-31.9,813,762,824,858,865,50.0,-0.518,0.193,-0.847
30251,1755586535150,27.86,166.22,-31.72,813,771,830,868,872,34.48275862068966,-0.512,0.195,-0.851
30281,1755586535180,27.97,166.17,-31.62,808,769,826,853,879,33.333333333333336,-0.505,0.2,-0.857
30310,1755586535209,28.0,166.12,-31.68,816,772,824,869,872,34.48275862068966,-0.501,0.201,-0.848
30340,1755586535239,27.94,166.15,-31.74,810,768,820,888,872,33.333333333333336,-0.497,0.2,-0.852
30369,1755586535268,27.89,166.13,-31.84,815,761,819,879,878,34.48275862068966,-0.501,0.2,-0.848
30399,1755586535298,27.92,166.19,-31.88,816,768,833,868,867,33.333333333333336,-0.508,0.197,-0.845
30429,1755586535327,28.0,166.21,-31.88,815,769,825,859,874,33.333333333333336,-0.51,0.197,-0.845
30458,1755586535357,28.13,166.13,-31.87,822,770,826,865,879,34.48275862068966,-0.516,0.195,-0.842
30488,1755586535387,28.16,166.21,-31.8,814,770,814,866,881,33.333333333333336,-0.512,0.196,-0.845
30517,1755586535416,28.16,166.23,-31.73,813,766,813,867,873,34.48275862068966,-0.505,0.197,-0.85
30547,1755586535446,28.4,166.17,-31.68,816,762,820,865,873,33.333333333333336,-0.501,0.2,-0.853
30567,1755586535465,28.44,166.11,-31.73,810,763,807,873,873,50.0,-0.501,0.203,-0.848
30596,1755586535495,28.29,166.21,-31.82,809,769,825,868,915,34.48275862068966,-0.5,0.203,-0.842
30626,1755586535525,28.36,166.26,-31.85,814,772,821,874,871,33.333333333333336,-0.504,0.201,-0.846
30655,1755586535554,28.45,166.25,-31.82,818,769,829,867,867,34.48275862068966,-0.508,0.198,-0.846
30685,1755586535584,28.6,166.3,-31.72,817,763,818,874,871,33.333333333333336,-0.512,0.194,-0.839
30714,1755586535613,28.65,166.36,-31.63,818,765,821,866,869,34.48275862068966,-0.511,0.197,-0.846
30744,1755586535643,28.96,166.24,-31.48,813,762,821,874,885,33.333333333333336,-0.508,0.2,-0.852
30774,1755586535672,29.16,166.13,-31.43,814,777,836,861,875,33.333333333333336,-0.501,0.204,-0.845
30803,1755586535702,29.34,166.12,-31.39,812,773,826,876,875,34.48275862068966,-0.493,0.204,-0.842
30833,1755586535732,29.58,166.07,-31.35,812,773,833,866,886,33.333333333333336,-0.486,0.207,-0.85
30862,1755586535761,29.89,165.97,-31.37,810,767,831,870,872,34.48275862068966,-0.493,0.206,-0.851
30892,1755586535792,29.83,165.98,-31.48,810,765,831,865,885,33.333333333333336,-0.489,0.209,-0.856
30913,1755586535811,29.85,166.0,-31.51,818,765,824,876,888,47.61904761904762,-0.485,0.207,-0.855
30942,1755586535841,29.81,165.92,-31.6,816,768,818,869,889,34.48275862068966,-0.485,0.205,-0.854
30972,1755586535870,29.89,165.92,-31.6,813,766,820,861,880,33.333333333333336,-0.487,0.208,-0.856
31001,1755586535900,29.99,165.81,-31.63,820,760,824,860,892,34.48275862068966,-0.483,0.21,-0.869
31031,1755586535930,29.85,165.69,-31.76,814,772,828,862,896,33.333333333333336,-0.478,0.211,-0.868
31051,1755586535950,29.72,165.6,-31.87,823,763,828,866,878,50.0,-0.474,0.213,-0.865
31081,1755586535979,29.67,165.54,-32.0,815,774,824,863,887,33.333333333333336,-0.479,0.212,-0.859
31110,1755586536009,29.52,165.6,-32.12,817,769,825,865,889,34.48275862068966,-0.481,0.211,-0.85
31140,1755586536038,29.45,165.78,-32.16,819,767,833,862,882,33.333333333333336,-0.483,0.21,-0.85
31169,1755586536068,29.47,165.9,-32.16,815,767,829,860,884,34.48275862068966,-0.488,0.207,-0.858
31199,1755586536097,29.4,165.97,-32.14,814,762,824,864,890,33.333333333333336,-0.488,0.21,-0.865
31228,1755586536127,29.31,166.02,-32.19,815,770,820,869,886,34.48275862068966,-0.485,0.209,-0.86
31257,1755586536156,29.17,166.1,-32.25,811,770,819,864,882,34.48275862068966,-0.479,0.207,-0.86
31287,1755586536186,29.06,166.14,-32.39,818,771,820,868,895,33.333333333333336,-0.48,0.209,-0.859
31316,1755586536215,29.02,166.22,-32.51,815,769,834,873,879,34.48275862068966,-0.484,0.208,-0.857
31346,1755586536244,28.87,166.33,-32.58,814,771,828,858,887,33.333333333333336,-0.489,0.204,-0.856
31375,1755586536274,28.8,166.42,-32.61,816,769,824,857,882,34.48275862068966,-0.491,0.201,-0.855
31404,1755586536303,28.76,166.52,-32.62,812,771,821,871,881,34.48275862068966,-0.495,0.199,-0.857
31434,1755586536333,28.54,166.6,-32.7,819,765,820,872,887,33.333333333333336,-0.497,0.197,-0.856
31463,1755586536362,28.52,166.6,-32.73,810,770,827,870,889,34.48275862068966,-0.5,0.195,-0.857
31493,1755586536392,28.48,166.61,-32.73,809,770,831,874,888,33.333333333333336,-0.505,0.192,-0.853
31522,1755586536421,28.49,166.7,-32.63,811,768,819,869,877,34.48275862068966,-0.505,0.191,-0.851
31552,1755586536451,28.5,166.82,-32.54,813,770,818,862,879,33.333333333333336,-0.504,0.191,-0.856
31581,1755586536480,28.53,166.81,-32.51,814,770,812,871,890,34.48275862068966,-0.502,0.193,-0.862
31611,1755586536510,28.46,166.81,-32.51,818,770,823,864,886,33.333333333333336,-0.498,0.197,-0.861
31641,1755586536539,28.34,166.81,-32.57,815,773,816,874,880,33.333333333333336,-0.492,0.197,-0.863
31670,1755586536569,28.29,166.75,-32.69,816,763,828,860,887,34.48275862068966,-0.494,0.197,-0.857
31700,1755586536598,28.17,166.75,-32.83,817,773,827,865,887,33.333333333333336,-0.493,0.198,-0.856
31729,1755586536628,28.04,166.73,-32.99,815,766,825,866,902,34.48275862068966,-0.502,0.194,-0.851
31759,1755586536658,28.07,166.76,-33.05,816,769,822,873,878,33.333333333333336,-0.512,0.19,-0.851
31788,1755586536688,27.93,166.88,-33.05,814,771,811,873,885,34.48275862068966,-0.518,0.185,-0.848
31818,1755586536717,27.81,167.03,-33.02,817,768,826,867,889,33.333333333333336,-0.52,0.183,-0.838
31848,1755586536746,27.94,167.27,-32.8,810,770,811,868,881,33.333333333333336,-0.524,0.183,-0.829
31877,1755586536776,28.12,167.59,-32.55,818,770,823,869,888,34.48275862068966,-0.527,0.181,-0.832
31906,1755586536805,28.08,167.77,-32.42,816,770,828,861,881,34.48275862068966,-0.52,0.182,-0.844
31936,1755586536835,28.16,167.8,-32.37,815,764,820,866,879,33.333333333333336,-0.518,0.181,-0.85
31966,1755586536865,28.12,167.79,-32.42,811,769,819,860,890,33.333333333333336,-0.515,0.185,-0.847
31986,1755586536884,28.09,167.81,-32.48,818,765,830,868,883,50.0,-0.513,0.186,-0.841
32015,1755586536914,28.02,167.85,-32.61,816,776,829,865,877,34.48275862068966,-0.511,0.184,-0.839
32044,1755586536943,28.01,167.87,-32.75,808,765,810,868,878,34.48275862068966,-0.511,0.184,-0.84
32074,1755586536973,27.89,167.92,-32.97,810,760,818,864,896,33.333333333333336,-0.516,0.183,-0.843
32103,1755586537002,27.86,167.94,-33.14,812,777,830,872,883,34.48275862068966,-0.524,0.177,-0.844
32133,1755586537032,27.83,167.97,-33.26,811,772,816,868,872,33.333333333333336,-0.53,0.173,-0.843
32162,1755586537061,27.86,167.98,-33.32,814,774,829,871,878,34.48275862068966,-0.537,0.168,-0.837
32192,1755586537091,27.89,168.04,-33.31,811,774,824,864,884,33.333333333333336,-0.536,0.166,-0.841
32221,1755586537120,28.07,168.01,-33.26,815,773,832,868,891,34.48275862068966,-0.536,0.167,-0.842
32251,1755586537150,28.19,168.04,-33.28,823,769,821,866,885,33.333333333333336,-0.531,0.17,-0.841
32281,1755586537179,28.09,168.12,-33.37,816,762,836,862,874,33.333333333333336,-0.527,0.169,-0.841
32310,1755586537209,28.01,168.13,-33.51,813,768,829,869,891,34.48275862068966,-0.526,0.171,-0.844
32340,1755586537238,28.05,168.11,-33.63,812,768,816,862,873,33.333333333333336,-0.534,0.167,-0.838
32369,1755586537268,28.0,168.08,-33.75,812,765,825,869,879,34.48275862068966,-0.541,0.163,-0.833
32399,1755586537298,27.93,168.15,-33.8,815,767,824,865,877,33.333333333333336,-0.546,0.16,-0.824
32429,1755586537328,28.16,168.27,-33.74,813,768,829,868,877,33.333333333333336,-0.546,0.16,-0.826
32458,1755586537357,28.3,168.4,-33.69,815,772,837,869,880,34.48275862068966,-0.549,0.16,-0.831
32488,1755586537387,28.29,168.43,-33.67,815,774,826,861,885,33.333333333333336,-0.554,0.158,-0.836
32517,1755586537416,28.35,168.52,-33.56,814,773,827,867,879,34.48275862068966,-0.553,0.154,-0.83
32547,1755586537446,28.46,168.65,-33.37,812,770,824,872,876,33.333333333333336,-0.549,0.153,-0.834
32577,1755586537475,28.56,168.67,-33.23,818,774,827,866,885,33.333333333333336,-0.546,0.157,-0.839
32606,1755586537505,28.62,168.64,-33.19,813,768,823,863,879,34.48275862068966,-0.539,0.166,-0.846
32636,1755586537535,28.68,168.51,-33.27,816,768,831,868,880,33.333333333333336,-0.53,0.168,-0.845
32665,1755586537565,28.68,168.51,-33.38,811,771,826,875,882,34.48275862068966,-0.524,0.166,-0.835
32695,1755586537595,28.65,168.54,-33.55,810,762,814,857,880,33.333333333333336,-0.527,0.166,-0.827
32715,1755586537614,28.69,168.57,-33.66,819,770,826,873,881,50.0,-0.533,0.167,-0.828
32745,1755586537644,28.68,168.59,-33.84,817,768,833,863,878,33.333333333333336,-0.545,0.166,-0.832
32774,1755586537673,28.62,168.61,-33.96,816,768,825,864,884,34.48275862068966,-0.555,0.16,-0.827
32804,1755586537703,28.64,168.69,-33.95,814,769,822,861,884,33.333333333333336,-0.558,0.153,-0.822
32833,1755586537732,28.79,168.75,-33.89,813,775,823,874,887,34.48275862068966,-0.562,0.152,-0.823
32863,1755586537762,28.89,168.79,-33.8,815,769,820,866,874,33.333333333333336,-0.559,0.155,-0.829
32892,1755586537791,28.95,168.81,-33.73,814,776,823,866,877,34.48275862068966,-0.559,0.157,-0.827
32922,1755586537820,29.14,168.78,-33.67,812,766,823,873,891,33.333333333333336,-0.555,0.155,-0.825
32951,1755586537850,29.22,168.76,-33.65,819,767,835,867,887,34.48275862068966,-0.546,0.158,-0.829
32981,1755586537879,29.24,168.67,-33.78,817,770,826,855,872,33.333333333333336,-0.548,0.161,-0.823
33010,1755586537909,29.25,169.14,-33.91,809,772,822,860,882,34.48275862068966,-0.55,0.16,-0.821
33040,1755586537938,29.33,169.21,-33.97,815,773,813,868,888,33.333333333333336,-0.558,0.156,-0.822
33069,1755586537968,29.48,169.16,-34.01,815,760,821,875,870,34.48275862068966,-0.564,0.152,-0.82
33099,1755586537998,29.61,169.18,-33.98,818,772,812,862,883,33.333333333333336,-0.568,0.151,-0.819
33119,1755586538018,29.76,169.2,-33.93,822,769,828,864,881,50.0,-0.568,0.151,-0.821
33148,1755586538047,30.01,169.23,-33.8,815,763,825,864,882,34.48275862068966,-0.56,0.152,-0.823
33178,1755586538077,30.22,169.25,-33.71,817,768,833,866,881,33.333333333333336,-0.552,0.152,-0.827
33198,1755586538097,30.31,169.24,-33.71,814,772,824,871,889,50.0,-0.546,0.155,-0.832
33227,1755586538127,30.34,169.28,-33.78,816,769,827,864,878,34.48275862068966,-0.54,0.16,-0.831
33257,1755586538156,30.43,169.33,-33.83,810,767,822,862,882,33.333333333333336,-0.539,0.158,-0.838
33286,1755586538185,30.41,169.32,-33.93,811,775,826,866,885,34.48275862068966,-0.54,0.157,-0.841
33316,1755586538215,30.32,169.31,-34.03,813,771,819,879,884,33.333333333333336,-0.546,0.156,-0.836
33345,1755586538244,30.26,169.38,-34.11,811,763,816,864,887,34.48275862068966,-0.55,0.154,-0.837
33375,1755586538274,30.27,169.35,-34.15,808,773,815,863,879,33.333333333333336,-0.554,0.152,-0.833
33404,1755586538304,30.32,169.36,-34.13,814,771,827,867,902,34.48275862068966,-0.555,0.15,-0.829
33434,1755586538333,30.35,169.4,-34.12,815,770,818,875,878,33.333333333333336,-0.557,0.148,-0.824
33464,1755586538363,30.43,169.48,-34.05,815,766,835,874,889,33.333333333333336,-0.556,0.15,-0.83
33493,1755586538392,30.53,169.47,-34.01,813,766,820,859,873,34.48275862068966,-0.557,0.15,-0.837
33523,1755586538422,30.51,169.41,-34.02,814,763,823,868,886,33.333333333333336,-0.553,0.149,-0.832
33552,1755586538451,30.53,169.45,-34.0,812,770,821,867,887,34.48275862068966,-0.549,0.151,-0.83
33582,1755586538482,30.52,169.48,-34.03,814,771,819,855,884,33.333333333333336,-0.551,0.151,-0.826
33612,1755586538511,30.6,169.52,-34.04,813,764,826,865,877,33.333333333333336,-0.551,0.151,-0.824
33642,1755586538540,30.65,169.58,-34.07,808,766,821,876,888,33.333333333333336,-0.552,0.153,-0.828
33671,1755586538570,30.61,169.59,-34.18,820,769,836,865,871,34.48275862068966,-0.556,0.153,-0.833
33701,1755586538599,30.49,169.62,-34.25,808,772,816,866,887,33.333333333333336,-0.561,0.149,-0.83
33730,1755586538629,30.48,169.58,-34.23,815,772,815,872,866,34.48275862068966,-0.562,0.145,-0.828
33759,1755586538658,30.53,169.59,-34.17,811,771,819,876,877,34.48275862068966,-0.56,0.145,-0.824
33789,1755586538687,30.52,169.59,-34.17,808,769,821,864,885,33.333333333333336,-0.559,0.146,-0.82
33818,1755586538717,30.54,169.63,-34.22,813,767,828,867,883,34.48275862068966,-0.557,0.151,-0.822
33848,1755586538746,30.59,169.64,-34.24,812,775,822,863,884,33.333333333333336,-0.556,0.149,-0.823
33877,1755586538776,30.63,169.65,-34.26,810,770,818,866,877,34.48275862068966,-0.556,0.146,-0.822
33906,1755586538805,30.7,169.66,-34.27,813,784,835,872,874,34.48275862068966,-0.557,0.146,-0.826
33936,1755586538835,30.82,169.59,-34.28,814,768,824,862,880,33.333333333333336,-0.56,0.148,-0.828
33965,1755586538865,30.86,169.6,-34.32,814,770,827,868,870,34.48275862068966,-0.561,0.15,-0.824
33995,1755586538894,30.89,169.61,-34.39,809,772,824,856,875,33.333333333333336,-0.557,0.149,-0.819
34025,1755586538923,30.98,169.63,-34.47,813,771,817,865,890,33.333333333333336,-0.557,0.148,-0.816
34054,1755586538953,31.02,169.69,-34.55,818,770,825,869,880,34.48275862068966,-0.561,0.146,-0.818
34084,1755586538982,30.94,169.72,-34.66,809,771,823,865,881,33.333333333333336,-0.568,0.144,-0.818
34113,1755586539012,30.91,169.78,-34.7,814,763,822,870,881,34.48275862068966,-0.574,0.14,-0.812
34143,1755586539042,31.0,169.85,-34.65,812,770,832,867,878,33.333333333333336,-0.576,0.137,-0.81
34172,1755586539071,31.13,169.96,-34.54,816,767,816,875,878,34.48275862068966,-0.576,0.137,-0.809
34202,1755586539101,31.26,170.03,-34.41,809,763,826,867,882,33.333333333333336,-0.574,0.138,-0.815
34232,1755586539130,31.47,170.03,-34.29,814,766,821,859,874,33.333333333333336,-0.573,0.142,-0.826
34261,1755586539160,31.6,169.98,-34.27,816,770,835,870,878,34.48275862068966,-0.567,0.146,-0.827
34291,1755586539190,31.61,169.98,-34.32,816,770,825,864,880,33.333333333333336,-0.559,0.147,-0.823
34320,1755586539219,31.68,169.98,-34.41,811,777,836,867,883,34.48275862068966,-0.556,0.147,-0.826
34350,1755586539249,31.7,169.92,-34.58,812,767,820,862,865,33.333333333333336,-0.562,0.147,-0.831
34379,1755586539278,31.64,169.88,-34.73,811,764,815,871,876,34.48275862068966,-0.567,0.145,-0.831
34409,1755586539308,31.72,169.82,-34.79,821,776,837,856,876,33.333333333333336,-0.568,0.139,-0.827
34439,1755586539338,31.79,169.8,-34.8,809,771,825,878,887,33.333333333333336,-0.569,0.136,-0.823
34468,1755586539367,31.91,169.74,-34.79,821,774,839,868,875,34.48275862068966,-0.57,0.137,-0.819
34498,1755586539397,32.09,169.73,-34.75,815,767,822,863,883,33.333333333333336,-0.566,0.142,-0.819
34528,1755586539426,32.23,169.7,-34.78,813,774,820,866,885,33.333333333333336,-0.563,0.142,-0.82
34557,1755586539456,32.33,169.67,-34.86,820,767,822,865,882,34.48275862068966,-0.557,0.144,-0.824
34587,1755586539485,32.36,169.6,-34.99,810,769,819,867,884,33.333333333333336,-0.56,0.146,-0.83
34616,1755586539515,32.34,169.49,-35.15,817,765,836,865,870,34.48275862068966,-0.563,0.142,-0.823
34646,1755586539544,32.32,169.5,-35.23,813,763,825,869,874,33.333333333333336,-0.565,0.137,-0.815
34675,1755586539574,32.38,169.5,-35.29,819,762,799,869,875,34.48275862068966,-0.566,0.137,-0.814
34704,1755586539603,32.4,169.54,-35.34,819,765,823,860,897,34.48275862068966,-0.567,0.138,-0.812
34734,1755586539633,32.44,169.62,-35.36,817,767,830,883,892,33.333333333333336,-0.566,0.141,-0.82
34763,1755586539662,32.53,169.65,-35.39,818,770,828,868,882,34.48275862068966,-0.561,0.143,-0.825
34793,1755586539692,32.54,169.63,-35.49,814,768,816,862,885,33.333333333333336,-0.561,0.143,-0.826
34823,1755586539722,32.42,169.63,-35.66,816,764,826,875,873,33.333333333333336,-0.561,0.142,-0.824
34853,1755586539752,32.35,169.69,-35.81,815,767,825,869,880,33.333333333333336,-0.56,0.141,-0.821
34882,1755586539781,32.44,169.74,-35.9,809,780,833,865,866,34.48275862068966,-0.566,0.139,-0.824
34912,1755586539811,32.4,169.75,-35.98,817,765,830,867,883,33.333333333333336,-0.569,0.135,-0.822
34941,1755586539840,32.39,169.8,-36.0,820,770,822,864,879,34.48275862068966,-0.57,0.134,-0.818
34971,1755586539870,32.45,169.89,-35.98,816,769,826,869,884,33.333333333333336,-0.567,0.13,-0.819
35001,1755586539899,32.54,169.89,-35.92,814,768,820,871,878,33.333333333333336,-0.573,0.125,-0.825
35030,1755586539929,32.59,169.89,-35.84,817,767,830,869,874,34.48275862068966,-0.574,0.13,-0.827
35059,1755586539958,32.63,169.9,-35.79,815,774,829,869,870,34.48275862068966,-0.574,0.133,-0.816
35089,1755586539988,32.73,169.99,-35.74,816,777,821,866,890,33.333333333333336,-0.569,0.135,-0.811
35119,1755586540018,32.89,170.05,-35.72,821,768,839,873,874,33.333333333333336,-0.567,0.137,-0.817
35148,1755586540047,32.98,170.07,-35.8,816,770,827,862,885,34.48275862068966,-0.564,0.139,-0.822
35178,1755586540077,32.86,170.13,-35.96,815,769,821,872,882,33.333333333333336,-0.559,0.137,-0.823
35207,1755586540106,32.79,170.19,-36.08,812,767,826,865,886,34.48275862068966,-0.56,0.129,-0.816
35237,1755586540136,32.83,170.26,-36.14,809,767,818,873,872,33.333333333333336,-0.567,0.127,-0.82
35266,1755586540165,32.83,170.29,-36.15,813,761,823,858,881,34.48275862068966,-0.575,0.124,-0.824
35296,1755586540195,32.87,170.32,-36.07,816,771,821,868,881,33.333333333333336,-0.575,0.122,-0.822
35326,1755586540225,33.0,170.34,-35.99,813,770,816,862,884,33.333333333333336,-0.573,0.125,-0.82
35356,1755586540254,33.09,170.36,-35.95,811,766,831,863,873,33.333333333333336,-0.566,0.126,-0.819
35385,1755586540284,33.1,170.41,-35.99,820,772,814,865,881,34.48275862068966,-0.562,0.13,-0.818
35415,1755586540315,33.1,170.43,-36.1,814,768,825,861,872,33.333333333333336,-0.56,0.134,-0.826
35435,1755586540334,33.15,170.42,-36.2,820,767,827,871,880,50.0,-0.564,0.137,-0.83
35465,1755586540364,33.08,170.4,-36.41,813,768,830,874,884,33.333333333333336,-0.566,0.136,-0.829
35495,1755586540394,32.97,170.45,-36.58,815,769,819,862,881,33.333333333333336,-0.565,0.128,-0.821
35524,1755586540423,33.02,170.51,-36.66,813,766,832,866,873,34.48275862068966,-0.57,0.121,-0.824
35554,1755586540453,33.05,170.56,-36.68,812,772,823,866,882,33.333333333333336,-0.575,0.115,-0.824
35583,1755586540482,33.06,170.61,-36.58,809,761,815,870,876,34.48275862068966,-0.575,0.116,-0.825
35613,1755586540512,33.12,170.63,-36.51,809,774,828,861,878,33.333333333333336,-0.574,0.118,-0.824
35642,1755586540541,33.15,170.64,-36.47,817,760,828,860,878,34.48275862068966,-0.57,0.119,-0.82
35672,1755586540571,33.17,170.68,-36.46,816,762,817,864,870,33.333333333333336,-0.569,0.12,-0.818
35702,1755586540600,33.23,170.72,-36.47,811,769,822,866,878,33.333333333333336,-0.571,0.121,-0.82
35731,1755586540630,33.31,170.74,-36.44,812,770,823,869,887,34.48275862068966,-0.571,0.12,-0.826
35761,1755586540660,33.28,170.7,-36.47,818,771,826,855,872,33.333333333333336,-0.571,0.121,-0.825
35790,1755586540689,33.34,170.62,-36.51,813,771,825,854,877,34.48275862068966,-0.569,0.121,-0.823
35820,1755586540718,33.45,170.6,-36.53,819,769,819,868,869,33.333333333333336,-0.567,0.123,-0.825
35849,1755586540748,33.6,170.54,-36.54,810,762,830,868,888,34.48275862068966,-0.568,0.121,-0.824
35878,1755586540778,33.72,170.44,-36.56,816,767,820,863,894,34.48275862068966,-0.566,0.124,-0.827
35908,1755586540807,33.99,170.3,-36.56,816,775,812,876,899,33.333333333333336,-0.572,0.122,-0.826
35938,1755586540837,34.3,170.19,-36.48,817,773,823,868,886,33.333333333333336,-0.571,0.119,-0.822
35968,1755586540867,34.57,170.15,-36.33,815,769,816,864,872,33.333333333333336,-0.562,0.124,-0.827
35997,1755586540897,35.33,169.98,-36.08,812,772,819,864,876,34.48275862068966,-0.569,0.121,-0.822
36027,1755586540926,35.76,169.88,-35.79,811,770,829,871,876,33.333333333333336,-0.57,0.12,-0.826
36057,1755586540956,35.96,169.72,-35.54,817,774,816,870,874,33.333333333333336,-0.559,0.129,-0.841
36086,1755586540985,36.13,169.46,-35.43,807,768,827,868,877,34.48275862068966,-0.544,0.141,-0.849
36116,1755586541015,36.08,169.26,-35.46,815,752,823,874,879,33.333333333333336,-0.527,0.147,-0.842
36145,1755586541044,35.98,169.26,-35.51,814,773,816,872,879,34.48275862068966,-0.516,0.149,-0.837
36175,1755586541073,36.06,169.26,-35.56,813,769,828,862,893,33.333333333333336,-0.516,0.152,-0.843
36204,1755586541103,35.93,169.2,-35.66,813,768,815,865,882,34.48275862068966,-0.522,0.155,-0.854
36234,1755586541133,35.75,169.1,-35.71,818,772,845,872,857,33.333333333333336,-0.527,0.154,-0.855
36264,1755586541163,35.61,169.03,-35.78,818,774,825,863,874,33.333333333333336,-0.518,0.158,-0.85
36293,1755586541192,35.54,169.01,-35.83,814,764,815,866,879,34.48275862068966,-0.515,0.157,-0.841
36323,1755586541222,35.34,169.04,-35.91,812,767,810,871,879,33.333333333333336,-0.515,0.161,-0.846
36352,1755586541251,35.17,169.03,-36.04,815,772,814,865,877,34.48275862068966,-0.514,0.164,-0.852
36382,1755586541281,35.03,168.96,-36.19,820,768,818,869,879,33.333333333333336,-0.516,0.16,-0.85
36412,1755586541310,34.87,168.93,-36.29,814,775,830,870,882,33.333333333333336,-0.522,0.156,-0.844
36441,1755586541340,34.85,168.95,-36.28,814,769,829,860,877,34.48275862068966,-0.525,0.157,-0.846
36471,1755586541369,34.71,168.88,-36.32,810,770,817,865,876,33.333333333333336,-0.523,0.159,-0.851
36500,1755586541399,34.64,168.78,-36.37,817,766,822,865,883,34.48275862068966,-0.524,0.159,-0.845
36530,1755586541429,34.6,168.74,-36.43,814,771,820,865,883,33.333333333333336,-0.525,0.16,-0.836
36559,1755586541458,34.56,168.81,-36.43,813,776,825,866,874,34.48275862068966,-0.524,0.159,-0.839
36589,1755586541488,34.48,168.77,-36.46,816,771,830,863,875,33.333333333333336,-0.526,0.161,-0.842
36618,1755586541517,34.47,168.72,-36.5,816,770,828,861,874,34.48275862068966,-0.526,0.161,-0.845
36648,1755586541547,34.39,168.7,-36.53,817,770,823,871,873,33.333333333333336,-0.526,0.159,-0.844
36678,1755586541576,34.35,168.73,-36.54,810,771,816,860,878,33.333333333333336,-0.524,0.161,-0.842
36707,1755586541606,34.27,168.72,-36.59,817,770,834,862,874,34.48275862068966,-0.522,0.162,-0.842
36736,1755586541635,34.23,168.75,-36.62,812,765,831,862,877,34.48275862068966,-0.524,0.164,-0.839
36766,1755586541665,34.14,168.81,-36.67,809,770,842,861,869,33.333333333333336,-0.524,0.163,-0.842
36795,1755586541694,33.96,168.82,-36.72,810,777,822,861,874,34.48275862068966,-0.527,0.159,-0.843
36825,1755586541725,33.88,168.85,-36.72,814,767,821,866,889,33.333333333333336,-0.529,0.163,-0.849
36845,1755586541744,33.81,168.85,-36.75,817,776,823,865,875,50.0,-0.529,0.163,-0.851
36875,1755586541774,33.76,168.77,-36.78,819,770,812,856,877,33.333333333333336,-0.528,0.158,-0.841
36904,1755586541804,33.72,168.81,-36.78,811,765,816,865,873,34.48275862068966,-0.527,0.159,-0.837
36934,1755586541833,33.69,168.88,-36.77,815,766,814,864,878,33.333333333333336,-0.524,0.16,-0.838
36964,1755586541862,33.64,168.93,-36.76,818,773,820,868,874,33.333333333333336,-0.523,0.16,-0.849
36993,1755586541892,33.5,168.86,-36.86,817,774,827,864,879,34.48275862068966,-0.52,0.162,-0.848
37022,1755586541921,33.35,168.89,-36.94,816,770,819,868,883,34.48275862068966,-0.521,0.16,-0.836
37052,1755586541951,33.27,169.01,-36.98,814,765,826,868,877,33.333333333333336,-0.524,0.159,-0.832
37081,1755586541981,33.15,169.03,-37.09,816,766,826,866,883,34.48275862068966,-0.535,0.158,-0.838
37111,1755586542011,33.02,168.99,-37.1,818,774,834,862,874,33.333333333333336,-0.543,0.152,-0.833
37141,1755586542040,33.14,169.02,-36.95,813,772,825,869,874,33.333333333333336,-0.549,0.15,-0.828
37171,1755586542070,33.19,169.05,-36.8,816,767,820,863,881,33.333333333333336,-0.546,0.151,-0.837
37201,1755586542100,33.18,168.99,-36.69,812,769,818,874,876,33.333333333333336,-0.544,0.153,-0.837
37230,1755586542129,33.23,168.96,-36.61,821,774,824,872,872,34.48275862068966,-0.54,0.159,-0.834
37260,1755586542158,33.19,169.06,-36.58,817,768,822,857,869,33.333333333333336,-0.531,0.162,-0.837
37289,1755586542188,33.07,169.08,-36.66,811,764,824,868,882,34.48275862068966,-0.526,0.161,-0.838
37319,1755586542217,32.99,169.08,-36.75,816,763,828,865,880,33.333333333333336,-0.534,0.157,-0.834
37348,1755586542247,32.89,169.17,-36.72,818,762,824,860,872,34.48275862068966,-0.54,0.157,-0.835
37378,1755586542276,32.84,169.19,-36.7,815,777,822,866,866,33.333333333333336,-0.541,0.155,-0.838
37407,1755586542306,32.75,169.17,-36.69,811,761,820,864,893,34.48275862068966,-0.535,0.155,-0.837
37436,1755586542336,32.81,169.18,-36.64,816,766,823,872,875,34.48275862068966,-0.532,0.16,-0.84
37466,1755586542365,32.76,169.16,-36.72,813,766,830,860,882,33.333333333333336,-0.533,0.165,-0.84
37496,1755586542395,32.63,169.21,-36.84,819,768,822,866,882,33.333333333333336,-0.531,0.162,-0.837
37516,1755586542415,32.54,169.24,-36.92,811,762,821,872,871,50.0,-0.532,0.156,-0.836
37545,1755586542444,32.52,169.25,-36.98,818,760,817,867,873,34.48275862068966,-0.539,0.156,-0.836
37575,1755586542474,32.48,169.29,-37.01,816,780,820,864,880,33.333333333333336,-0.549,0.155,-0.829
37604,1755586542503,32.43,169.42,-36.95,817,770,823,870,891,34.48275862068966,-0.549,0.151,-0.827
37634,1755586542533,32.5,169.48,-36.83,816,771,823,866,881,33.333333333333336,-0.548,0.151,-0.831
37663,1755586542562,32.55,169.5,-36.79,813,770,819,864,881,34.48275862068966,-0.547,0.152,-0.831
37693,1755586542592,32.55,169.56,-36.74,812,772,836,857,868,33.333333333333336,-0.548,0.152,-0.832
37722,1755586542621,32.61,169.67,-36.58,809,764,824,865,882,34.48275862068966,-0.547,0.15,-0.835
37752,1755586542651,32.72,169.68,-36.48,813,763,825,862,874,33.333333333333336,-0.543,0.152,-0.838
37781,1755586542680,32.7,169.68,-36.4,817,770,819,870,880,34.48275862068966,-0.536,0.155,-0.836
37811,1755586542710,32.78,169.69,-36.32,808,770,830,866,882,33.333333333333336,-0.53,0.156,-0.844
37840,1755586542739,32.7,169.59,-36.5,819,776,813,869,887,34.48275862068966,-0.528,0.161,-0.841
37870,1755586542769,32.58,169.54,-36.73,809,774,819,885,883,33.333333333333336,-0.532,0.161,-0.829
37899,1755586542798,32.61,169.65,-36.81,814,764,824,870,874,34.48275862068966,-0.543,0.148,-0.826
37929,1755586542828,32.7,169.7,-36.73,810,764,824,868,902,33.333333333333336,-0.545,0.14,-0.828
37958,1755586542857,32.79,169.73,-36.61,817,770,826,877,877,34.48275862068966,-0.546,0.141,-0.816
37988,1755586542887,32.92,169.94,-36.36,822,773,816,868,878,33.333333333333336,-0.549,0.145,-0.815
38017,1755586542916,33.07,170.2,-36.1,815,771,813,865,876,34.48275862068966,-0.549,0.152,-0.847
38047,1755586542946,32.95,170.13,-36.05,813,770,814,869,874,33.333333333333336,-0.537,0.156,-0.87
38076,1755586542975,32.74,169.95,-36.14,816,770,819,860,877,34.48275862068966,-0.527,0.158,-0.852
38106,1755586543005,32.71,170.05,-36.15,819,764,834,864,880,33.333333333333336,-0.526,0.155,-0.833
38135,1755586543034,32.68,170.23,-36.22,813,773,827,866,887,34.48275862068966,-0.527,0.16,-0.847
38165,1755586543063,32.47,170.13,-36.49,814,767,823,864,886,33.333333333333336,-0.533,0.156,-0.842
38194,1755586543093,32.3,170.13,-36.55,804,765,832,868,879,34.48275862068966,-0.539,0.149,-0.837
38224,1755586543123,32.28,170.16,-36.5,816,762,824,864,873,33.333333333333336,-0.546,0.148,-0.838
38253,1755586543153,32.29,170.13,-36.41,813,765,831,862,880,34.48275862068966,-0.55,0.142,-0.825
38283,1755586543182,32.35,170.21,-36.27,811,765,828,860,881,33.333333333333336,-0.549,0.149,-0.823
38313,1755586543212,32.42,170.26,-36.17,816,774,822,868,876,33.333333333333336,-0.541,0.152,-0.824
38342,1755586543241,32.49,170.26,-36.21,817,768,830,867,866,34.48275862068966,-0.539,0.157,-0.832
38372,1755586543271,32.46,170.19,-36.36,814,766,819,860,878,33.333333333333336,-0.537,0.154,-0.835
38401,1755586543300,32.5,170.26,-36.39,816,768,826,857,883,34.48275862068966,-0.537,0.151,-0.838
38431,1755586543329,32.44,170.2,-36.49,816,768,824,861,879,33.333333333333336,-0.539,0.148,-0.846
38460,1755586543359,32.41,170.15,-36.54,811,769,823,861,866,34.48275862068966,-0.543,0.146,-0.837
38490,1755586543389,32.44,170.16,-36.55,817,789,821,862,884,33.333333333333336,-0.544,0.144,-0.834
38519,1755586543418,32.48,170.13,-36.54,820,782,821,865,916,34.48275862068966,-0.544,0.144,-0.835
38549,1755586543448,32.57,170.13,-36.5,812,770,819,871,871,33.333333333333336,-0.546,0.146,-0.839
38578,1755586543477,32.57,170.1,-36.49,819,774,818,871,879,34.48275862068966,-0.545,0.146,-0.838
38608,1755586543506,32.57,170.06,-36.53,812,766,821,862,878,33.333333333333336,-0.543,0.148,-0.836
38637,1755586543536,32.61,170.04,-36.59,824,786,820,868,881,34.48275862068966,-0.546,0.146,-0.833
38667,1755586543565,32.58,170.06,-36.64,813,770,825,866,879,33.333333333333336,-0.546,0.147,-0.839
