timestamp_ms,recv_timestamp_ms,pitch,roll,yaw,flex1,flex2,flex3,flex4,flex5,sampling_hz,accel_x,accel_y,accel_z
48494,1755587060013,61.29,-104.88,-34.42,769,753,776,740,908,33.333333333333336,-0.878,-0.466,-0.121
48514,1755587060033,61.28,-104.88,-34.43,771,782,761,749,885,50.0,-0.879,-0.465,-0.123
48534,1755587060053,61.27,-104.88,-34.42,771,774,783,751,888,50.0,-0.883,-0.465,-0.126
48554,1755587060073,61.29,-104.9,-34.43,768,771,774,751,887,50.0,-0.882,-0.465,-0.127
48584,1755587060103,61.3,-104.93,-34.45,777,769,777,739,885,33.333333333333336,-0.878,-0.464,-0.127
48614,1755587060133,61.23,-104.96,-34.49,773,769,773,747,892,33.333333333333336,-0.878,-0.465,-0.125
48634,1755587060153,61.18,-104.95,-34.52,772,773,775,749,883,50.0,-0.877,-0.466,-0.122
48664,1755587060183,61.15,-104.98,-34.51,763,764,766,749,882,33.333333333333336,-0.881,-0.47,-0.123
48694,1755587060213,61.16,-105.02,-34.48,779,775,766,752,887,33.333333333333336,-0.882,-0.47,-0.123
48724,1755587060243,61.2,-105.01,-34.46,771,773,768,744,881,33.333333333333336,-0.88,-0.468,-0.119
48744,1755587060263,61.24,-104.98,-34.45,774,769,780,740,869,50.0,-0.879,-0.468,-0.119
48774,1755587060293,61.27,-104.95,-34.43,773,777,774,750,896,33.333333333333336,-0.879,-0.468,-0.121
48794,1755587060313,61.27,-104.97,-34.42,770,777,774,742,900,50.0,-0.878,-0.467,-0.124
48824,1755587060343,61.28,-104.99,-34.41,775,770,778,748,895,33.333333333333336,-0.878,-0.465,-0.125
48844,1755587060363,61.28,-105.01,-34.41,771,778,775,748,883,50.0,-0.879,-0.464,-0.127
48874,1755587060393,61.24,-105.06,-34.42,773,777,774,748,887,33.333333333333336,-0.879,-0.463,-0.126
48904,1755587060423,61.19,-105.06,-34.44,777,777,769,743,877,33.333333333333336,-0.876,-0.463,-0.12
48934,1755587060453,61.2,-104.96,-34.43,773,774,775,746,879,33.333333333333336,-0.877,-0.464,-0.12
48954,1755587060473,61.22,-104.97,-34.42,774,770,774,747,885,50.0,-0.88,-0.467,-0.124
48984,1755587060502,61.19,-105.11,-34.46,768,768,778,754,885,33.333333333333336,-0.881,-0.466,-0.125
49014,1755587060532,61.22,-105.06,-34.46,773,770,767,754,876,33.333333333333336,-0.879,-0.466,-0.122
49044,1755587060562,61.27,-105.01,-34.47,776,780,767,747,882,33.333333333333336,-0.878,-0.467,-0.124
49074,1755587060592,61.27,-105.0,-34.48,772,776,773,749,889,33.333333333333336,-0.878,-0.467,-0.127
49104,1755587060622,61.27,-105.01,-34.49,773,773,768,753,895,33.333333333333336,-0.878,-0.467,-0.124
49124,1755587060642,61.28,-104.94,-34.48,773,775,769,747,884,50.0,-0.878,-0.466,-0.122
49154,1755587060672,61.23,-104.95,-34.51,776,774,768,750,880,33.333333333333336,-0.878,-0.466,-0.123
49174,1755587060692,61.21,-104.97,-34.54,773,773,773,752,891,50.0,-0.877,-0.467,-0.125
49204,1755587060723,61.22,-104.94,-34.52,769,768,782,747,886,33.333333333333336,-0.879,-0.468,-0.127
49224,1755587060742,61.24,-104.93,-34.5,778,772,774,748,877,50.0,-0.88,-0.468,-0.125
49254,1755587060772,61.23,-104.86,-34.49,776,772,770,747,883,33.333333333333336,-0.878,-0.466,-0.121
49284,1755587060802,61.2,-104.8,-34.48,773,777,777,745,889,33.333333333333336,-0.877,-0.468,-0.122
49304,1755587060822,61.21,-104.76,-34.47,769,766,771,752,893,50.0,-0.878,-0.468,-0.124
49334,1755587060852,61.26,-104.74,-34.47,764,769,775,749,899,33.333333333333336,-0.879,-0.467,-0.121
49354,1755587060872,61.26,-104.7,-34.47,774,765,773,748,877,50.0,-0.879,-0.466,-0.121
49384,1755587060902,61.22,-104.7,-34.43,775,768,774,744,883,33.333333333333336,-0.878,-0.468,-0.124
49414,1755587060932,61.22,-104.67,-34.41,773,782,774,743,887,33.333333333333336,-0.878,-0.467,-0.126
49444,1755587060962,61.15,-104.68,-34.41,773,774,775,753,877,33.333333333333336,-0.877,-0.467,-0.128
49464,1755587060982,61.06,-104.66,-34.41,769,767,771,748,875,50.0,-0.876,-0.469,-0.127
49494,1755587061012,60.99,-104.58,-34.39,774,779,770,751,889,33.333333333333336,-0.879,-0.468,-0.122
49524,1755587061042,60.87,-104.58,-34.37,770,780,772,745,899,33.333333333333336,-0.878,-0.468,-0.121
49554,1755587061072,60.83,-104.72,-34.34,765,770,777,750,891,33.333333333333336,-0.878,-0.469,-0.122
49584,1755587061102,60.83,-104.86,-34.32,772,773,772,749,889,33.333333333333336,-0.881,-0.467,-0.121
49613,1755587061132,60.87,-104.81,-34.31,771,774,768,747,884,34.48275862068966,-0.88,-0.466,-0.116
49643,1755587061161,60.92,-104.78,-34.31,773,775,763,756,898,33.333333333333336,-0.884,-0.466,-0.119
49673,1755587061191,60.93,-104.89,-34.33,771,777,773,751,890,33.333333333333336,-0.884,-0.465,-0.123
49703,1755587061222,60.91,-105.0,-34.35,769,778,774,750,873,33.333333333333336,-0.883,-0.464,-0.12
49723,1755587061241,60.91,-104.97,-34.36,769,780,774,753,886,50.0,-0.881,-0.463,-0.114
49753,1755587061271,61.0,-104.88,-34.37,772,773,771,749,878,33.333333333333336,-0.88,-0.465,-0.111
49783,1755587061301,61.07,-104.78,-34.33,770,771,768,747,894,33.333333333333336,-0.885,-0.468,-0.113
49803,1755587061321,61.08,-104.73,-34.3,785,770,770,749,887,50.0,-0.885,-0.468,-0.115
49833,1755587061351,61.09,-104.72,-34.28,772,771,773,750,896,33.333333333333336,-0.881,-0.466,-0.116
49863,1755587061381,61.18,-104.65,-34.28,768,772,769,754,898,33.333333333333336,-0.878,-0.464,-0.115
49883,1755587061401,61.21,-104.55,-34.27,779,775,769,750,883,50.0,-0.879,-0.463,-0.117
49913,1755587061431,61.21,-104.49,-34.27,774,775,771,754,893,33.333333333333336,-0.882,-0.463,-0.122
49943,1755587061461,61.2,-104.54,-34.29,766,774,769,756,887,33.333333333333336,-0.883,-0.464,-0.122
49972,1755587061491,61.15,-104.49,-34.27,771,781,796,747,890,34.48275862068966,-0.879,-0.465,-0.121
50002,1755587061521,61.22,-104.41,-34.27,764,775,763,746,890,33.333333333333336,-0.878,-0.465,-0.119
50032,1755587061551,61.26,-104.37,-34.27,777,777,778,753,888,33.333333333333336,-0.879,-0.466,-0.114
50052,1755587061571,61.26,-104.28,-34.25,775,777,780,749,878,50.0,-0.882,-0.467,-0.112
50082,1755587061601,61.34,-104.21,-34.2,774,773,773,751,886,33.333333333333336,-0.883,-0.468,-0.117
50102,1755587061621,61.36,-104.22,-34.19,777,773,774,753,885,50.0,-0.88,-0.465,-0.118
50132,1755587061651,61.36,-104.17,-34.2,769,768,771,746,883,33.333333333333336,-0.878,-0.462,-0.118
50152,1755587061671,61.38,-104.16,-34.21,768,769,775,750,890,50.0,-0.877,-0.46,-0.118
50182,1755587061701,61.37,-104.12,-34.23,777,774,776,749,887,33.333333333333336,-0.879,-0.461,-0.118
50202,1755587061721,61.34,-104.11,-34.24,773,781,776,743,886,50.0,-0.88,-0.462,-0.12
50222,1755587061741,61.33,-104.13,-34.26,783,764,767,748,887,50.0,-0.882,-0.465,-0.121
50242,1755587061761,61.36,-104.11,-34.26,775,770,773,751,868,50.0,-0.882,-0.466,-0.12
50272,1755587061791,61.35,-104.11,-34.26,778,779,766,750,883,33.333333333333336,-0.88,-0.465,-0.118
50292,1755587061811,61.31,-104.11,-34.28,768,767,770,747,891,50.0,-0.878,-0.465,-0.117
50322,1755587061841,61.28,-104.12,-34.29,773,776,773,744,887,33.333333333333336,-0.879,-0.466,-0.12
50343,1755587061861,61.24,-104.12,-34.3,777,770,767,751,884,47.61904761904762,-0.879,-0.465,-0.12
50372,1755587061891,61.11,-104.07,-34.31,774,770,774,749,881,34.48275862068966,-0.877,-0.463,-0.118
50402,1755587061921,61.09,-104.0,-34.33,777,772,764,752,884,33.333333333333336,-0.878,-0.464,-0.118
50432,1755587061951,61.08,-103.94,-34.33,772,774,777,746,881,33.333333333333336,-0.876,-0.467,-0.116
50452,1755587061971,61.09,-103.9,-34.34,772,760,781,741,876,50.0,-0.877,-0.468,-0.116
50482,1755587062001,61.08,-103.92,-34.35,771,766,762,747,888,33.333333333333336,-0.878,-0.469,-0.112
50502,1755587062021,61.4,-103.93,-34.36,776,770,775,742,901,50.0,-0.877,-0.467,-0.107
50532,1755587062051,61.36,-103.85,-34.38,769,775,770,749,877,33.333333333333336,-0.876,-0.463,-0.103
50562,1755587062080,61.15,-103.72,-34.41,777,783,774,752,883,33.333333333333336,-0.876,-0.463,-0.105
50592,1755587062110,61.07,-103.71,-34.47,773,776,767,749,882,33.333333333333336,-0.88,-0.466,-0.109
50622,1755587062140,61.1,-103.73,-34.49,770,769,779,747,894,33.333333333333336,-0.885,-0.469,-0.105
50652,1755587062170,61.11,-103.58,-34.44,769,774,769,748,891,33.333333333333336,-0.888,-0.474,-0.104
50682,1755587062200,61.11,-103.55,-34.36,771,772,776,750,897,33.333333333333336,-0.886,-0.478,-0.108
50702,1755587062220,61.15,-103.54,-34.32,773,773,774,742,888,50.0,-0.884,-0.479,-0.107
50732,1755587062250,61.24,-103.52,-34.26,772,770,778,745,895,33.333333333333336,-0.88,-0.473,-0.107
50762,1755587062280,61.23,-103.49,-34.25,772,767,769,754,882,33.333333333333336,-0.877,-0.469,-0.108
50792,1755587062310,61.22,-103.49,-34.27,772,770,770,746,885,33.333333333333336,-0.879,-0.467,-0.105
50822,1755587062340,61.19,-103.39,-34.27,777,773,773,750,881,33.333333333333336,-0.883,-0.463,-0.103
50842,1755587062360,61.2,-103.33,-34.29,774,775,778,747,891,50.0,-0.883,-0.46,-0.103
50872,1755587062390,61.3,-103.26,-34.35,773,774,774,749,897,33.333333333333336,-0.88,-0.459,-0.1
50902,1755587062420,61.27,-103.22,-34.44,772,777,775,750,888,33.333333333333336,-0.875,-0.46,-0.104
50932,1755587062450,61.2,-103.21,-34.53,777,775,776,750,894,33.333333333333336,-0.876,-0.466,-0.109
50961,1755587062480,61.18,-103.21,-34.61,769,759,779,750,885,34.48275862068966,-0.879,-0.469,-0.106
50982,1755587062500,61.14,-103.21,-34.65,778,769,785,754,875,47.61904761904762,-0.881,-0.468,-0.102
51012,1755587062530,61.13,-103.13,-34.67,776,778,784,743,873,33.333333333333336,-0.883,-0.475,-0.1
51042,1755587062560,61.13,-103.09,-34.66,775,776,772,756,887,33.333333333333336,-0.882,-0.477,-0.101
51072,1755587062590,61.23,-103.13,-34.66,774,771,780,747,879,33.333333333333336,-0.882,-0.476,-0.097
51102,1755587062620,61.32,-102.97,-34.59,772,774,779,753,886,33.333333333333336,-0.883,-0.476,-0.097
51132,1755587062650,61.33,-102.91,-34.55,772,772,771,752,877,33.333333333333336,-0.88,-0.474,-0.104
51161,1755587062680,61.43,-103.0,-34.56,773,779,787,745,889,34.48275862068966,-0.879,-0.472,-0.107
51191,1755587062710,61.46,-103.01,-34.55,772,777,763,751,886,33.333333333333336,-0.878,-0.473,-0.109
51221,1755587062739,61.42,-103.02,-34.55,770,776,777,753,881,33.333333333333336,-0.877,-0.47,-0.106
51251,1755587062769,61.46,-102.99,-34.57,777,774,775,754,885,33.333333333333336,-0.877,-0.468,-0.103
51281,1755587062799,61.47,-102.95,-34.6,773,768,772,747,888,33.333333333333336,-0.877,-0.468,-0.106
51311,1755587062829,61.44,-102.92,-34.61,773,775,781,757,878,33.333333333333336,-0.879,-0.47,-0.107
51341,1755587062859,61.4,-102.94,-34.62,773,771,774,753,887,33.333333333333336,-0.877,-0.473,-0.106
51361,1755587062879,61.4,-102.88,-34.61,788,768,771,747,872,50.0,-0.877,-0.476,-0.105
51391,1755587062909,61.37,-102.94,-34.63,771,777,772,745,885,33.333333333333336,-0.877,-0.473,-0.103
51421,1755587062939,61.33,-102.91,-34.65,775,791,768,747,885,33.333333333333336,-0.88,-0.472,-0.097
51441,1755587062959,61.35,-102.83,-34.64,765,768,767,745,886,50.0,-0.881,-0.473,-0.098
51471,1755587062989,61.32,-102.83,-34.63,777,774,772,766,888,33.333333333333336,-0.881,-0.474,-0.102
51491,1755587063009,61.33,-102.85,-34.63,776,768,775,746,880,50.0,-0.879,-0.474,-0.101
51521,1755587063039,61.34,-102.74,-34.61,774,775,773,743,883,33.333333333333336,-0.878,-0.473,-0.096
51541,1755587063059,61.31,-102.63,-34.59,766,772,772,750,875,50.0,-0.877,-0.473,-0.099
51571,1755587063089,61.36,-102.6,-34.6,771,769,773,748,885,33.333333333333336,-0.875,-0.471,-0.102
51601,1755587063119,61.37,-102.59,-34.63,772,771,776,753,886,33.333333333333336,-0.876,-0.471,-0.1
51621,1755587063139,61.35,-102.5,-34.63,773,770,771,749,887,50.0,-0.877,-0.477,-0.101
51651,1755587063169,61.31,-102.44,-34.6,773,771,774,753,882,33.333333333333336,-0.876,-0.481,-0.106
51681,1755587063199,61.33,-102.53,-34.61,778,780,768,745,882,33.333333333333336,-0.873,-0.477,-0.106
51711,1755587063229,61.35,-102.45,-34.59,774,782,775,753,891,33.333333333333336,-0.876,-0.474,-0.099
51741,1755587063259,61.3,-102.34,-34.58,765,785,772,748,890,33.333333333333336,-0.876,-0.471,-0.101
51770,1755587063289,61.32,-102.38,-34.6,776,789,772,744,889,34.48275862068966,-0.874,-0.472,-0.105
51800,1755587063319,61.32,-102.47,-34.66,772,780,773,747,887,33.333333333333336,-0.874,-0.468,-0.103
51830,1755587063349,61.21,-102.44,-34.71,775,771,771,752,886,33.333333333333336,-0.876,-0.471,-0.099
51851,1755587063369,61.19,-102.41,-34.74,772,775,769,749,878,47.61904761904762,-0.88,-0.472,-0.1
51881,1755587063399,61.16,-102.4,-34.8,778,769,769,752,893,33.333333333333336,-0.881,-0.471,-0.097
51911,1755587063429,61.22,-102.27,-34.86,774,773,775,751,894,33.333333333333336,-0.877,-0.471,-0.09
51931,1755587063449,61.29,-102.11,-34.88,769,774,777,763,890,50.0,-0.879,-0.475,-0.087
51951,1755587063469,61.35,-101.99,-34.89,771,770,775,756,892,50.0,-0.88,-0.481,-0.09
51981,1755587063499,61.48,-101.98,-34.87,767,765,773,752,887,33.333333333333336,-0.882,-0.488,-0.096
52011,1755587063529,61.74,-101.87,-34.73,776,777,769,745,887,33.333333333333336,-0.878,-0.49,-0.091
52041,1755587063559,61.82,-101.71,-34.7,774,784,772,746,886,33.333333333333336,-0.871,-0.482,-0.089
52071,1755587063589,61.74,-101.55,-34.69,773,770,774,746,882,33.333333333333336,-0.874,-0.48,-0.095
52101,1755587063619,61.8,-101.49,-34.67,769,766,772,741,884,33.333333333333336,-0.877,-0.481,-0.105
52121,1755587063639,61.78,-101.5,-34.65,775,760,770,752,889,50.0,-0.876,-0.481,-0.112
52150,1755587063669,61.79,-101.53,-34.65,770,767,770,750,892,34.48275862068966,-0.872,-0.478,-0.117
52180,1755587063699,61.79,-101.65,-34.67,770,777,770,758,879,33.333333333333336,-0.873,-0.477,-0.113
52210,1755587063729,61.75,-101.65,-34.69,771,771,764,752,893,33.333333333333336,-0.875,-0.479,-0.109
52240,1755587063759,61.68,-101.68,-34.66,771,774,765,751,897,33.333333333333336,-0.876,-0.481,-0.111
52260,1755587063779,61.68,-101.74,-34.65,774,775,782,752,874,50.0,-0.875,-0.48,-0.11
52290,1755587063808,61.74,-101.74,-34.62,771,776,769,751,883,33.333333333333336,-0.877,-0.477,-0.106
52320,1755587063838,61.67,-101.76,-34.6,777,770,774,755,880,33.333333333333336,-0.874,-0.476,-0.109
52350,1755587063869,61.7,-101.86,-34.62,778,770,766,751,891,33.333333333333336,-0.871,-0.476,-0.112
52370,1755587063888,61.73,-101.91,-34.63,770,775,776,753,881,50.0,-0.871,-0.474,-0.109
52400,1755587063918,61.7,-101.91,-34.63,771,774,768,746,882,33.333333333333336,-0.874,-0.476,-0.116
52430,1755587063948,61.61,-102.07,-34.67,775,769,773,753,891,33.333333333333336,-0.869,-0.476,-0.121
52450,1755587063968,61.58,-102.24,-34.71,777,769,769,750,877,50.0,-0.867,-0.473,-0.119
52480,1755587063998,61.46,-102.31,-34.79,769,778,779,751,870,33.333333333333336,-0.87,-0.472,-0.112
52510,1755587064028,61.27,-102.35,-34.86,782,772,775,750,873,33.333333333333336,-0.874,-0.476,-0.113
52530,1755587064048,61.19,-102.46,-34.89,775,768,769,756,879,50.0,-0.879,-0.48,-0.112
52560,1755587064078,61.22,-102.45,-34.86,775,773,776,746,889,33.333333333333336,-0.879,-0.481,-0.102
52590,1755587064108,61.23,-102.31,-34.81,775,779,776,748,895,33.333333333333336,-0.878,-0.48,-0.097
52620,1755587064138,61.24,-102.28,-34.8,773,766,771,752,884,33.333333333333336,-0.877,-0.479,-0.099
52640,1755587064158,61.26,-102.29,-34.79,774,765,768,753,879,50.0,-0.875,-0.477,-0.103
52670,1755587064188,61.25,-102.32,-34.8,775,771,769,749,896,33.333333333333336,-0.876,-0.475,-0.104
52700,1755587064218,61.25,-102.31,-34.83,776,765,771,752,889,33.333333333333336,-0.878,-0.475,-0.11
52730,1755587064248,61.21,-102.35,-34.84,779,772,776,756,883,33.333333333333336,-0.877,-0.479,-0.113
52759,1755587064278,61.22,-102.35,-34.82,774,763,772,765,899,34.48275862068966,-0.875,-0.48,-0.111
52779,1755587064298,61.22,-102.35,-34.81,775,768,776,750,869,50.0,-0.875,-0.481,-0.108
52809,1755587064327,61.22,-102.36,-34.78,771,774,774,751,882,33.333333333333336,-0.875,-0.483,-0.111
52839,1755587064357,61.21,-102.4,-34.72,775,765,766,746,883,33.333333333333336,-0.875,-0.483,-0.11
52869,1755587064387,61.28,-102.47,-34.7,776,765,771,745,881,33.333333333333336,-0.871,-0.481,-0.103
52899,1755587064417,61.32,-102.43,-34.68,776,768,775,753,885,33.333333333333336,-0.868,-0.476,-0.1
52929,1755587064447,61.3,-102.33,-34.66,763,767,777,744,866,33.333333333333336,-0.874,-0.476,-0.108
52949,1755587064467,61.27,-102.34,-34.64,769,772,773,750,886,50.0,-0.877,-0.477,-0.114
52979,1755587064497,61.25,-102.47,-34.68,773,765,768,751,893,33.333333333333336,-0.877,-0.477,-0.109
53009,1755587064527,61.31,-102.55,-34.73,779,773,768,753,884,33.333333333333336,-0.878,-0.475,-0.108
53029,1755587064547,61.36,-102.54,-34.7,775,778,765,748,889,50.0,-0.88,-0.476,-0.109
53059,1755587064577,61.41,-102.62,-34.68,772,775,772,745,892,33.333333333333336,-0.876,-0.478,-0.112
53088,1755587064607,61.52,-102.85,-34.73,771,778,770,744,885,34.48275862068966,-0.873,-0.475,-0.113
53118,1755587064637,61.49,-102.83,-34.75,770,770,772,749,885,33.333333333333336,-0.873,-0.471,-0.111
53148,1755587064667,61.47,-102.61,-34.73,772,780,770,751,884,33.333333333333336,-0.873,-0.475,-0.113
53178,1755587064697,61.53,-102.69,-34.71,767,780,781,753,884,33.333333333333336,-0.876,-0.481,-0.122
53208,1755587064726,61.6,-102.98,-34.7,769,775,770,743,885,33.333333333333336,-0.878,-0.486,-0.129
53238,1755587064757,61.69,-102.96,-34.59,777,777,777,748,883,33.333333333333336,-0.878,-0.477,-0.117
53258,1755587064776,61.71,-102.9,-34.53,774,777,775,747,877,50.0,-0.875,-0.47,-0.113
53288,1755587064806,61.79,-102.94,-34.54,763,777,781,750,886,33.333333333333336,-0.873,-0.47,-0.123
53318,1755587064836,61.76,-102.96,-34.51,768,768,773,754,889,33.333333333333336,-0.873,-0.469,-0.129
53348,1755587064866,61.7,-102.97,-34.53,769,776,776,750,886,33.333333333333336,-0.873,-0.465,-0.125
53378,1755587064896,61.72,-103.0,-34.55,774,767,767,748,891,33.333333333333336,-0.873,-0.469,-0.127
53408,1755587064926,61.77,-103.15,-34.54,766,768,773,748,895,33.333333333333336,-0.875,-0.473,-0.13
53437,1755587064956,61.77,-103.27,-34.52,784,770,771,748,886,34.48275862068966,-0.878,-0.476,-0.125
53458,1755587064976,61.79,-103.32,-34.5,764,766,771,744,881,47.61904761904762,-0.876,-0.474,-0.122
53487,1755587065006,61.9,-103.35,-34.47,776,765,788,751,886,34.48275862068966,-0.879,-0.472,-0.123
53517,1755587065036,61.93,-103.48,-34.47,777,772,770,745,870,33.333333333333336,-0.88,-0.47,-0.122
53547,1755587065066,61.88,-103.61,-34.45,768,774,774,747,883,33.333333333333336,-0.883,-0.471,-0.129
53577,1755587065096,61.86,-103.88,-34.44,764,773,778,750,889,33.333333333333336,-0.879,-0.473,-0.134
53597,1755587065116,61.89,-104.04,-34.42,778,781,768,748,886,50.0,-0.876,-0.473,-0.134
53617,1755587065136,61.88,-104.12,-34.41,773,770,775,747,878,50.0,-0.87,-0.469,-0.133
53647,1755587065165,61.82,-104.2,-34.41,772,774,776,743,886,33.333333333333336,-0.868,-0.468,-0.136
53677,1755587065195,61.77,-104.37,-34.42,769,766,775,749,889,33.333333333333336,-0.871,-0.47,-0.139
53707,1755587065225,61.81,-104.35,-34.37,775,771,773,741,891,33.333333333333336,-0.873,-0.468,-0.133
53737,1755587065255,61.77,-104.33,-34.35,765,773,769,747,889,33.333333333333336,-0.871,-0.468,-0.134
53767,1755587065285,61.88,-104.26,-34.28,769,779,775,744,892,33.333333333333336,-0.873,-0.47,-0.136
53797,1755587065315,61.88,-104.24,-34.24,769,768,767,748,913,33.333333333333336,-0.874,-0.471,-0.138
53817,1755587065335,61.85,-104.32,-34.22,773,775,772,746,884,50.0,-0.874,-0.47,-0.142
53847,1755587065365,61.83,-104.36,-34.2,773,781,766,747,900,33.333333333333336,-0.873,-0.466,-0.138
53877,1755587065395,61.83,-104.28,-34.17,768,762,774,740,875,33.333333333333336,-0.874,-0.464,-0.136
53906,1755587065425,61.74,-104.34,-34.17,777,775,773,750,886,34.48275862068966,-0.875,-0.465,-0.142
53936,1755587065455,61.71,-104.54,-34.17,779,766,773,748,885,33.333333333333336,-0.876,-0.467,-0.148
53956,1755587065475,61.72,-104.64,-34.17,775,778,772,747,891,50.0,-0.877,-0.47,-0.146
53986,1755587065505,61.75,-104.62,-34.16,771,774,776,750,882,33.333333333333336,-0.876,-0.468,-0.135
54016,1755587065535,61.72,-104.52,-34.11,766,778,773,741,889,33.333333333333336,-0.876,-0.467,-0.134
54046,1755587065564,61.74,-104.59,-34.11,778,772,772,747,868,33.333333333333336,-0.877,-0.471,-0.141
54076,1755587065595,61.71,-104.62,-34.07,772,774,775,745,896,33.333333333333336,-0.874,-0.469,-0.142
54096,1755587065615,61.67,-104.65,-34.05,773,774,777,756,881,50.0,-0.872,-0.466,-0.141
54116,1755587065635,61.68,-104.66,-34.04,769,776,776,749,885,50.0,-0.874,-0.463,-0.138
54146,1755587065664,61.68,-104.73,-34.08,771,777,774,749,871,33.333333333333336,-0.876,-0.464,-0.139
54176,1755587065694,61.67,-104.81,-34.09,779,769,774,742,886,33.333333333333336,-0.875,-0.464,-0.142
54206,1755587065724,61.67,-104.84,-34.08,773,778,776,741,891,33.333333333333336,-0.875,-0.464,-0.139
54236,1755587065754,61.6,-104.8,-34.08,776,772,778,743,887,33.333333333333336,-0.874,-0.462,-0.136
54266,1755587065784,61.56,-104.81,-34.1,774,775,771,748,887,33.333333333333336,-0.877,-0.464,-0.137
54296,1755587065814,61.54,-104.84,-34.1,771,788,777,740,875,33.333333333333336,-0.877,-0.465,-0.14
54316,1755587065835,61.52,-104.9,-34.09,777,768,772,745,890,50.0,-0.875,-0.465,-0.14
54336,1755587065855,61.5,-104.95,-34.09,773,780,770,743,891,50.0,-0.874,-0.466,-0.139
54356,1755587065875,61.46,-104.98,-34.1,776,774,772,748,884,50.0,-0.873,-0.466,-0.142
54376,1755587065895,61.45,-105.0,-34.11,771,772,776,749,870,50.0,-0.873,-0.466,-0.143
54406,1755587065925,61.45,-105.05,-34.1,774,779,776,743,890,33.333333333333336,-0.876,-0.466,-0.141
54436,1755587065954,61.44,-105.05,-34.1,758,775,769,750,890,33.333333333333336,-0.878,-0.465,-0.136
54466,1755587065985,61.46,-105.07,-34.1,778,778,776,743,887,33.333333333333336,-0.876,-0.465,-0.137
54486,1755587066004,61.46,-105.1,-34.09,765,762,776,749,899,50.0,-0.877,-0.466,-0.14
54516,1755587066034,61.45,-105.1,-34.08,780,776,773,746,885,33.333333333333336,-0.875,-0.464,-0.141
54546,1755587066064,61.38,-105.08,-34.11,772,771,767,746,873,33.333333333333336,-0.874,-0.464,-0.142
54576,1755587066094,61.34,-105.17,-34.13,770,772,771,749,887,33.333333333333336,-0.876,-0.464,-0.143
54606,1755587066124,61.36,-105.23,-34.16,773,777,776,742,882,33.333333333333336,-0.879,-0.466,-0.138
54636,1755587066154,61.36,-105.23,-34.16,770,774,772,745,889,33.333333333333336,-0.879,-0.468,-0.137
54656,1755587066174,61.35,-105.25,-34.16,774,771,778,748,882,50.0,-0.877,-0.469,-0.137
54686,1755587066204,61.35,-105.34,-34.15,775,773,771,747,885,33.333333333333336,-0.877,-0.469,-0.138
54706,1755587066224,61.33,-105.42,-34.14,772,775,773,748,885,50.0,-0.877,-0.468,-0.14
54736,1755587066254,61.27,-105.63,-34.15,773,771,768,741,889,33.333333333333336,-0.875,-0.467,-0.142
54766,1755587066284,61.26,-105.55,-34.12,764,776,787,743,888,33.333333333333336,-0.877,-0.465,-0.135
54786,1755587066305,61.29,-105.48,-34.13,774,772,769,746,889,50.0,-0.873,-0.462,-0.132
54806,1755587066326,61.37,-105.37,-34.13,774,772,770,750,883,50.0,-0.877,-0.462,-0.131
54827,1755587066346,61.41,-105.35,-34.13,776,772,776,749,887,47.61904761904762,-0.878,-0.463,-0.136
54857,1755587066376,61.36,-105.37,-34.13,778,775,780,748,889,33.333333333333336,-0.876,-0.464,-0.14
54877,1755587066396,61.39,-105.39,-34.13,772,756,769,749,880,50.0,-0.874,-0.465,-0.139
54898,1755587066416,61.4,-105.39,-34.14,771,773,771,745,893,47.61904761904762,-0.876,-0.466,-0.136
54928,1755587066446,61.38,-105.38,-34.14,772,770,779,743,882,33.333333333333336,-0.876,-0.466,-0.137
54957,1755587066476,61.37,-105.43,-34.14,769,772,770,749,883,34.48275862068966,-0.877,-0.467,-0.144
54977,1755587066496,61.36,-105.49,-34.13,769,773,779,743,890,50.0,-0.877,-0.467,-0.145
55007,1755587066526,61.37,-105.46,-34.12,773,770,774,748,884,33.333333333333336,-0.875,-0.465,-0.138
55027,1755587066546,61.35,-105.43,-34.11,771,770,770,748,898,50.0,-0.874,-0.465,-0.136
55057,1755587066576,61.33,-105.42,-34.1,768,770,778,748,881,33.333333333333336,-0.875,-0.466,-0.139
55087,1755587066606,61.33,-105.46,-34.08,770,778,777,745,886,33.333333333333336,-0.876,-0.467,-0.141
55108,1755587066626,61.34,-105.51,-34.08,768,769,769,743,877,47.61904761904762,-0.877,-0.468,-0.141
55138,1755587066656,61.42,-105.47,-34.01,771,766,777,746,902,33.333333333333336,-0.879,-0.469,-0.134
55168,1755587066686,61.47,-105.3,-33.94,769,769,777,749,889,33.333333333333336,-0.877,-0.467,-0.129
55198,1755587066716,61.49,-105.29,-33.95,765,771,770,744,891,33.333333333333336,-0.873,-0.466,-0.135
55218,1755587066736,61.47,-105.37,-33.97,768,777,775,745,883,50.0,-0.873,-0.467,-0.141
55248,1755587066766,61.37,-105.44,-33.98,773,780,769,753,885,33.333333333333336,-0.874,-0.463,-0.14
55268,1755587066786,61.27,-105.44,-33.99,773,775,774,751,891,50.0,-0.876,-0.458,-0.138
55288,1755587066806,61.25,-105.46,-34.01,772,780,772,747,879,50.0,-0.877,-0.458,-0.14
55318,1755587066836,61.21,-105.4,-33.97,773,772,772,748,876,33.333333333333336,-0.879,-0.458,-0.14
55348,1755587066867,61.18,-105.38,-33.99,770,774,777,752,896,33.333333333333336,-0.879,-0.461,-0.138
55368,1755587066887,61.19,-105.41,-34.0,771,770,769,747,887,50.0,-0.876,-0.466,-0.14
55388,1755587066908,61.15,-105.46,-34.0,776,776,775,748,892,50.0,-0.875,-0.47,-0.138
55409,1755587066928,61.11,-105.48,-34.01,775,769,773,743,880,47.61904761904762,-0.877,-0.471,-0.133
55429,1755587066948,61.07,-105.51,-34.01,770,770,766,749,896,50.0,-0.878,-0.47,-0.129
55449,1755587066968,61.09,-105.51,-34.0,769,770,777,744,888,50.0,-0.883,-0.47,-0.128
55470,1755587066988,61.13,-105.45,-33.96,768,773,774,752,896,47.61904761904762,-0.883,-0.467,-0.129
55490,1755587067008,61.2,-105.39,-33.93,777,776,774,745,891,50.0,-0.88,-0.465,-0.132
55520,1755587067038,61.19,-105.42,-33.93,772,770,768,752,897,33.333333333333336,-0.876,-0.463,-0.139
55550,1755587067069,61.12,-105.48,-33.94,770,770,773,753,897,33.333333333333336,-0.876,-0.465,-0.14
55570,1755587067089,61.11,-105.51,-33.95,773,770,772,749,895,50.0,-0.873,-0.464,-0.136
55600,1755587067119,61.07,-105.57,-33.98,772,772,778,749,886,33.333333333333336,-0.874,-0.464,-0.134
55620,1755587067138,61.08,-105.59,-33.98,772,766,770,745,880,50.0,-0.879,-0.466,-0.133
55650,1755587067169,61.07,-105.48,-33.93,769,778,775,748,882,33.333333333333336,-0.88,-0.465,-0.131
55670,1755587067189,61.01,-105.48,-33.93,775,774,775,743,873,50.0,-0.875,-0.463,-0.13
55690,1755587067209,61.0,-105.49,-33.95,773,779,777,746,878,50.0,-0.871,-0.462,-0.131
55720,1755587067239,61.03,-105.48,-33.97,771,772,767,743,877,33.333333333333336,-0.876,-0.464,-0.133
55740,1755587067259,60.94,-105.45,-33.97,777,774,772,753,882,50.0,-0.881,-0.465,-0.132
55770,1755587067289,60.84,-105.35,-33.97,756,764,767,740,887,33.333333333333336,-0.878,-0.463,-0.126
55800,1755587067319,60.94,-105.31,-33.97,773,771,776,752,879,33.333333333333336,-0.88,-0.466,-0.129
55820,1755587067339,61.01,-105.33,-33.96,780,774,785,752,877,50.0,-0.883,-0.468,-0.134
55850,1755587067369,61.06,-105.37,-33.94,771,767,770,749,890,33.333333333333336,-0.883,-0.464,-0.129
55870,1755587067389,61.03,-105.37,-33.95,773,772,774,749,883,50.0,-0.877,-0.462,-0.128
55890,1755587067409,61.01,-105.37,-33.96,771,775,769,760,885,50.0,-0.877,-0.464,-0.131
55920,1755587067439,61.03,-105.44,-33.99,775,774,770,746,890,33.333333333333336,-0.875,-0.466,-0.135
55950,1755587067469,61.07,-105.48,-34.01,773,776,776,744,894,33.333333333333336,-0.876,-0.466,-0.131
55970,1755587067489,61.12,-105.46,-34.02,777,784,764,749,893,50.0,-0.88,-0.465,-0.124
56000,1755587067519,61.09,-105.36,-34.0,769,779,776,749,884,33.333333333333336,-0.881,-0.464,-0.123
56030,1755587067549,61.13,-105.33,-34.02,775,774,774,746,890,33.333333333333336,-0.879,-0.465,-0.128
56060,1755587067579,61.21,-105.28,-34.03,770,772,768,747,899,33.333333333333336,-0.878,-0.464,-0.127
56090,1755587067609,61.24,-105.18,-34.03,775,768,775,752,890,33.333333333333336,-0.88,-0.466,-0.128
56110,1755587067629,61.26,-105.16,-34.03,769,771,771,748,870,50.0,-0.879,-0.468,-0.135
56140,1755587067658,61.3,-105.24,-34.05,772,769,774,749,885,33.333333333333336,-0.876,-0.467,-0.136
56170,1755587067688,61.33,-105.23,-34.05,779,773,782,741,875,33.333333333333336,-0.877,-0.469,-0.131
56200,1755587067719,61.29,-105.18,-34.03,775,771,774,750,884,33.333333333333336,-0.878,-0.47,-0.132
56220,1755587067738,61.29,-105.21,-34.02,778,776,777,750,888,50.0,-0.877,-0.47,-0.135
56250,1755587067769,61.32,-105.21,-33.99,769,775,774,744,878,33.333333333333336,-0.878,-0.469,-0.133
56270,1755587067789,61.34,-105.17,-33.97,768,773,770,750,889,50.0,-0.876,-0.467,-0.133
56300,1755587067819,61.36,-105.13,-33.94,773,771,777,743,874,33.333333333333336,-0.877,-0.465,-0.133
56320,1755587067839,61.37,-105.15,-33.96,780,776,769,752,885,50.0,-0.876,-0.462,-0.131
56340,1755587067859,61.36,-105.14,-33.97,769,765,774,747,874,50.0,-0.876,-0.462,-0.131
56370,1755587067889,61.32,-105.16,-33.99,772,773,773,746,881,33.333333333333336,-0.874,-0.464,-0.137
56400,1755587067918,61.31,-105.35,-34.02,774,774,781,750,894,33.333333333333336,-0.875,-0.466,-0.135
56430,1755587067948,61.25,-105.32,-34.02,775,778,780,752,889,33.333333333333336,-0.875,-0.464,-0.123
56460,1755587067978,61.21,-105.21,-34.02,768,775,770,753,892,33.333333333333336,-0.877,-0.465,-0.124
56490,1755587068008,61.23,-105.22,-34.01,767,774,779,747,881,33.333333333333336,-0.878,-0.465,-0.132
56520,1755587068038,61.2,-105.26,-34.0,775,775,776,749,888,33.333333333333336,-0.875,-0.464,-0.137
