timestamp_ms,recv_timestamp_ms,pitch,roll,yaw,flex1,flex2,flex3,flex4,flex5,sampling_hz,accel_x,accel_y,accel_z
75344,1755584761362,36.78,-88.06,-23.63,757,769,814,863,869,34.48275862068966,-0.602,-0.8,0.013
75374,1755584761392,36.79,-88.05,-23.57,757,774,824,848,867,33.333333333333336,-0.6,-0.797,0.014
75403,1755584761422,36.78,-88.0,-23.57,761,765,814,855,853,34.48275862068966,-0.599,-0.796,0.017
75433,1755584761451,36.75,-88.01,-23.57,763,764,831,860,866,33.333333333333336,-0.6,-0.797,0.019
75463,1755584761481,36.76,-87.99,-23.53,750,767,813,858,873,33.333333333333336,-0.602,-0.798,0.019
75493,1755584761510,36.78,-87.95,-23.49,756,777,834,862,868,33.333333333333336,-0.602,-0.795,0.018
75522,1755584761540,36.79,-87.96,-23.49,768,768,826,857,858,34.48275862068966,-0.6,-0.794,0.014
75551,1755584761569,36.74,-87.99,-23.52,762,767,821,850,879,34.48275862068966,-0.599,-0.795,0.011
75581,1755584761599,36.73,-88.01,-23.53,750,776,814,855,871,33.333333333333336,-0.6,-0.796,0.011
75611,1755584761629,36.73,-88.01,-23.5,758,765,827,864,874,33.333333333333336,-0.601,-0.798,0.015
75641,1755584761658,36.7,-88.03,-23.49,755,776,825,854,869,33.333333333333336,-0.601,-0.798,0.02
75670,1755584761688,36.73,-88.0,-23.45,758,779,817,853,871,34.48275862068966,-0.602,-0.797,0.022
75700,1755584761718,36.73,-87.98,-23.42,758,768,819,865,868,33.333333333333336,-0.602,-0.797,0.02
75730,1755584761748,36.74,-87.98,-23.4,763,771,841,860,863,33.333333333333336,-0.601,-0.795,0.017
75759,1755584761777,36.74,-88.01,-23.39,760,761,822,853,863,34.48275862068966,-0.602,-0.795,0.015
75789,1755584761807,36.72,-88.01,-23.39,757,779,821,856,872,33.333333333333336,-0.602,-0.795,0.017
75818,1755584761836,36.73,-88.01,-23.37,757,765,821,860,874,34.48275862068966,-0.604,-0.797,0.022
75848,1755584761866,36.77,-87.96,-23.31,762,764,822,858,870,33.333333333333336,-0.604,-0.797,0.023
75877,1755584761895,36.79,-87.94,-23.27,757,773,819,855,869,34.48275862068966,-0.601,-0.795,0.019
75907,1755584761925,36.79,-87.95,-23.27,756,770,818,856,868,33.333333333333336,-0.599,-0.792,0.016
75936,1755584761954,36.78,-87.98,-23.31,758,763,820,850,872,34.48275862068966,-0.599,-0.79,0.015
75966,1755584761984,36.76,-88.03,-23.34,758,772,811,859,866,33.333333333333336,-0.601,-0.792,0.018
75996,1755584762013,36.84,-88.05,-23.35,760,764,813,874,868,33.333333333333336,-0.603,-0.794,0.02
76025,1755584762043,36.84,-88.01,-23.34,763,768,820,856,868,34.48275862068966,-0.604,-0.797,0.018
76055,1755584762073,36.84,-88.01,-23.3,758,772,831,847,877,33.333333333333336,-0.601,-0.798,0.013
76084,1755584762102,36.89,-88.06,-23.28,760,769,813,859,865,34.48275862068966,-0.6,-0.796,0.016
76114,1755584762132,36.86,-88.02,-23.28,754,774,824,853,868,33.333333333333336,-0.599,-0.796,0.017
76143,1755584762161,36.88,-88.02,-23.3,756,774,815,860,868,34.48275862068966,-0.602,-0.796,0.014
76173,1755584762191,36.92,-88.05,-23.29,757,767,809,853,876,33.333333333333336,-0.603,-0.795,0.013
76203,1755584762220,36.93,-88.08,-23.31,758,768,819,857,866,33.333333333333336,-0.6,-0.794,0.015
76232,1755584762250,36.9,-88.04,-23.33,753,776,814,857,866,34.48275862068966,-0.601,-0.795,0.015
76262,1755584762280,36.87,-88.06,-23.34,758,775,813,852,875,33.333333333333336,-0.601,-0.796,0.011
76291,1755584762309,36.92,-88.13,-23.34,758,770,813,862,865,34.48275862068966,-0.6,-0.795,0.011
76321,1755584762339,36.83,-88.13,-23.36,753,769,818,862,865,33.333333333333336,-0.601,-0.795,0.011
76350,1755584762368,36.8,-88.13,-23.37,759,770,823,865,869,34.48275862068966,-0.602,-0.797,0.011
76380,1755584762398,36.81,-88.17,-23.34,754,772,814,861,874,33.333333333333336,-0.603,-0.799,0.013
76409,1755584762428,36.75,-88.15,-23.31,763,773,814,854,871,34.48275862068966,-0.601,-0.799,0.017
76439,1755584762457,36.74,-88.13,-23.29,760,772,831,857,870,33.333333333333336,-0.6,-0.798,0.018
76459,1755584762477,36.75,-88.13,-23.27,753,772,815,849,872,50.0,-0.598,-0.796,0.018
76489,1755584762507,36.78,-88.11,-23.25,756,775,817,857,867,33.333333333333336,-0.6,-0.795,0.015
76518,1755584762536,36.76,-88.12,-23.24,757,772,815,851,864,34.48275862068966,-0.602,-0.795,0.012
76548,1755584762566,36.75,-88.15,-23.24,758,780,819,846,870,33.333333333333336,-0.6,-0.794,0.014
76577,1755584762595,36.71,-88.16,-23.25,761,770,814,858,871,34.48275862068966,-0.599,-0.795,0.016
76607,1755584762625,36.71,-88.12,-23.23,756,776,831,863,865,33.333333333333336,-0.601,-0.797,0.017
76637,1755584762655,36.72,-88.11,-23.19,760,774,827,857,872,33.333333333333336,-0.603,-0.799,0.016
76666,1755584762684,36.72,-88.14,-23.15,763,769,829,861,866,34.48275862068966,-0.601,-0.797,0.015
76696,1755584762714,36.74,-88.15,-23.15,765,771,802,857,865,33.333333333333336,-0.597,-0.792,0.016
76725,1755584762743,36.76,-88.1,-23.18,762,765,819,859,878,34.48275862068966,-0.598,-0.794,0.018
76755,1755584762773,36.74,-88.09,-23.17,755,767,834,850,869,33.333333333333336,-0.6,-0.798,0.013
76784,1755584762802,36.79,-88.12,-23.15,761,769,817,859,867,34.48275862068966,-0.6,-0.796,0.011
76814,1755584762832,36.74,-88.13,-23.16,753,784,837,860,859,33.333333333333336,-0.599,-0.794,0.014
76843,1755584762861,36.72,-88.12,-23.19,758,780,811,857,866,34.48275862068966,-0.6,-0.794,0.017
76873,1755584762891,36.74,-88.1,-23.18,754,769,822,850,873,33.333333333333336,-0.602,-0.797,0.02
76903,1755584762920,36.81,-88.07,-23.14,756,774,826,848,879,33.333333333333336,-0.6,-0.797,0.017
76932,1755584762950,36.81,-88.06,-23.14,755,776,818,859,866,34.48275862068966,-0.599,-0.796,0.013
76961,1755584762979,36.77,-88.09,-23.16,754,766,815,854,872,34.48275862068966,-0.6,-0.794,0.014
76991,1755584763009,36.79,-88.09,-23.17,756,775,816,868,863,33.333333333333336,-0.602,-0.795,0.019
77021,1755584763039,36.79,-88.04,-23.15,758,772,837,864,855,33.333333333333336,-0.601,-0.799,0.018
77050,1755584763069,36.82,-88.05,-23.12,754,778,826,857,870,34.48275862068966,-0.599,-0.799,0.013
77080,1755584763098,36.82,-88.06,-23.11,758,769,805,870,858,33.333333333333336,-0.596,-0.795,0.013
77110,1755584763128,36.81,-88.06,-23.15,757,780,817,857,863,33.333333333333336,-0.597,-0.793,0.016
77140,1755584763157,36.79,-88.04,-23.18,761,775,811,866,858,33.333333333333336,-0.601,-0.794,0.016
77169,1755584763187,36.81,-88.04,-23.17,755,778,830,859,868,34.48275862068966,-0.602,-0.797,0.013
77199,1755584763216,36.83,-88.07,-23.15,761,765,823,857,867,33.333333333333336,-0.6,-0.798,0.012
77228,1755584763246,36.8,-88.1,-23.17,761,777,828,852,868,34.48275862068966,-0.598,-0.797,0.013
77258,1755584763275,36.76,-88.09,-23.18,760,769,813,855,881,33.333333333333336,-0.599,-0.798,0.015
77287,1755584763305,36.78,-88.1,-23.16,759,775,818,846,870,34.48275862068966,-0.601,-0.798,0.017
77317,1755584763334,36.79,-88.07,-23.12,766,779,819,852,871,33.333333333333336,-0.601,-0.8,0.016
77346,1755584763364,36.82,-88.08,-23.07,761,772,810,853,873,34.48275862068966,-0.597,-0.799,0.017
77376,1755584763394,36.85,-88.06,-23.07,756,772,815,853,866,33.333333333333336,-0.596,-0.796,0.02
77405,1755584763423,36.82,-88.02,-23.09,755,774,837,860,877,34.48275862068966,-0.598,-0.794,0.018
77435,1755584763453,36.84,-88.0,-23.11,763,768,823,854,857,33.333333333333336,-0.601,-0.794,0.014
77464,1755584763482,36.84,-88.02,-23.12,766,771,839,866,862,34.48275862068966,-0.6,-0.796,0.011
77494,1755584763512,36.81,-88.06,-23.14,758,773,818,868,860,33.333333333333336,-0.595,-0.796,0.012
77524,1755584763542,36.77,-88.06,-23.18,759,768,810,863,874,33.333333333333336,-0.595,-0.797,0.016
77553,1755584763571,36.79,-88.03,-23.17,759,765,806,869,874,34.48275862068966,-0.6,-0.8,0.017
77583,1755584763601,36.83,-88.02,-23.13,759,767,829,854,865,33.333333333333336,-0.6,-0.8,0.014
77612,1755584763631,36.8,-88.02,-23.12,762,767,817,854,867,34.48275862068966,-0.596,-0.798,0.013
77642,1755584763660,36.74,-88.03,-23.14,764,767,838,861,865,33.333333333333336,-0.596,-0.798,0.014
77672,1755584763690,36.71,-88.04,-23.14,766,775,819,849,868,33.333333333333336,-0.598,-0.799,0.015
77702,1755584763720,36.76,-88.06,-23.11,763,764,820,863,880,33.333333333333336,-0.598,-0.799,0.016
77731,1755584763749,36.79,-88.04,-23.08,766,775,829,856,873,34.48275862068966,-0.597,-0.798,0.019
77761,1755584763779,36.72,-87.99,-23.09,762,775,823,857,883,33.333333333333336,-0.598,-0.798,0.018
77790,1755584763808,36.73,-88.0,-23.07,756,769,821,854,865,34.48275862068966,-0.599,-0.799,0.014
77820,1755584763838,36.75,-88.01,-23.03,757,768,817,853,873,33.333333333333336,-0.598,-0.798,0.015
77849,1755584763867,36.76,-88.02,-23.02,762,771,807,859,868,34.48275862068966,-0.596,-0.797,0.018
77879,1755584763897,36.76,-87.56,-23.03,756,761,824,857,863,33.333333333333336,-0.596,-0.796,0.019
77909,1755584763927,36.78,-87.54,-23.04,759,769,830,856,865,33.333333333333336,-0.598,-0.795,0.018
77939,1755584763956,36.77,-87.57,-23.05,758,767,832,851,875,33.333333333333336,-0.6,-0.796,0.016
77968,1755584763986,36.77,-87.61,-23.06,761,772,833,859,864,34.48275862068966,-0.598,-0.796,0.017
77998,1755584764016,36.77,-87.58,-23.08,759,777,833,841,865,33.333333333333336,-0.597,-0.797,0.019
78027,1755584764045,36.77,-87.57,-23.09,760,770,811,840,859,34.48275862068966,-0.598,-0.798,0.015
78057,1755584764075,36.8,-87.61,-23.09,757,766,816,853,858,33.333333333333336,-0.599,-0.798,0.014
78087,1755584764105,36.79,-87.63,-23.1,755,777,839,859,872,33.333333333333336,-0.597,-0.797,0.016
78116,1755584764134,36.77,-87.64,-23.1,752,775,815,857,874,34.48275862068966,-0.597,-0.799,0.019
78146,1755584764164,36.8,-87.6,-23.08,759,776,808,854,866,33.333333333333336,-0.597,-0.802,0.018
78175,1755584764193,36.81,-87.61,-23.06,753,768,832,859,861,34.48275862068966,-0.596,-0.799,0.015
78205,1755584764223,36.8,-87.63,-23.07,756,768,826,848,858,33.333333333333336,-0.596,-0.797,0.014
78235,1755584764253,36.75,-87.6,-23.08,757,767,812,858,869,33.333333333333336,-0.597,-0.798,0.015
78264,1755584764282,36.74,-87.61,-23.08,756,777,820,845,867,34.48275862068966,-0.597,-0.8,0.015
78294,1755584764312,36.72,-87.61,-23.06,762,775,821,857,875,33.333333333333336,-0.597,-0.801,0.013
78323,1755584764341,36.71,-87.63,-23.05,756,777,819,851,863,34.48275862068966,-0.595,-0.8,0.012
78353,1755584764371,36.73,-87.65,-23.04,762,770,816,868,871,33.333333333333336,-0.595,-0.801,0.014
78382,1755584764400,36.69,-87.65,-23.01,764,771,826,855,865,34.48275862068966,-0.596,-0.802,0.017
78412,1755584764430,36.7,-87.65,-22.99,761,776,818,858,872,33.333333333333336,-0.597,-0.8,0.017
78441,1755584764460,36.71,-87.65,-22.97,759,756,832,859,870,34.48275862068966,-0.596,-0.798,0.018
78471,1755584764489,36.71,-87.67,-22.98,763,766,818,855,855,33.333333333333336,-0.595,-0.797,0.016
78501,1755584764519,36.72,-87.67,-22.98,756,775,816,862,864,33.333333333333336,-0.596,-0.797,0.012
78531,1755584764549,36.72,-87.72,-22.99,757,779,813,846,871,33.333333333333336,-0.596,-0.799,0.008
78561,1755584764579,36.69,-87.76,-23.0,755,774,818,854,868,33.333333333333336,-0.596,-0.8,0.01
78590,1755584764608,36.68,-87.75,-22.97,756,788,819,850,869,34.48275862068966,-0.597,-0.802,0.018
78620,1755584764638,36.7,-87.68,-22.91,759,773,831,853,864,33.333333333333336,-0.59,-0.799,0.017
78649,1755584764667,36.73,-87.67,-22.9,760,762,818,858,870,34.48275862068966,-0.591,-0.796,0.012
78679,1755584764697,36.69,-87.7,-22.93,768,767,825,849,869,33.333333333333336,-0.593,-0.796,0.008
78709,1755584764727,36.7,-87.73,-22.95,763,781,822,848,869,33.333333333333336,-0.595,-0.798,0.01
78738,1755584764756,36.7,-87.73,-22.95,759,772,822,854,864,34.48275862068966,-0.595,-0.799,0.013
78768,1755584764786,36.72,-87.71,-22.94,760,776,824,864,858,33.333333333333336,-0.595,-0.799,0.016
78797,1755584764816,36.71,-87.68,-22.94,751,772,824,861,870,34.48275862068966,-0.595,-0.799,0.016
78827,1755584764845,36.7,-87.67,-22.92,760,771,818,857,875,33.333333333333336,-0.595,-0.801,0.013
78857,1755584764875,36.73,-87.7,-22.91,761,765,830,859,866,33.333333333333336,-0.595,-0.8,0.01
78887,1755584764905,36.7,-87.71,-22.91,768,759,808,838,866,33.333333333333336,-0.593,-0.798,0.011
78916,1755584764934,36.66,-87.73,-22.93,750,774,816,852,866,34.48275862068966,-0.595,-0.8,0.014
78946,1755584764964,36.69,-87.73,-22.88,759,771,841,857,862,33.333333333333336,-0.597,-0.803,0.016
78975,1755584764993,36.71,-87.71,-22.82,755,767,812,860,864,34.48275862068966,-0.595,-0.802,0.015
79005,1755584765023,36.71,-87.72,-22.82,759,769,822,849,863,33.333333333333336,-0.593,-0.799,0.015
79034,1755584765053,36.66,-87.73,-22.83,756,764,828,863,882,34.48275862068966,-0.596,-0.799,0.013
79055,1755584765073,36.97,-87.75,-22.82,755,788,821,863,873,47.61904761904762,-0.599,-0.8,0.011
79084,1755584765102,36.97,-87.77,-22.79,763,767,820,852,866,34.48275862068966,-0.597,-0.8,0.012
79114,1755584765132,36.97,-87.82,-22.78,762,778,829,858,864,33.333333333333336,-0.594,-0.799,0.014
79144,1755584765161,36.99,-87.8,-22.78,762,771,817,860,872,33.333333333333336,-0.595,-0.798,0.014
79173,1755584765191,36.94,-87.77,-22.78,760,763,828,863,874,34.48275862068966,-0.597,-0.799,0.011
79203,1755584765220,36.95,-87.79,-22.76,758,775,822,848,870,33.333333333333336,-0.598,-0.8,0.01
79232,1755584765250,36.95,-87.83,-22.73,760,762,827,851,876,34.48275862068966,-0.598,-0.802,0.013
79262,1755584765280,36.94,-87.8,-22.71,756,766,819,849,867,33.333333333333336,-0.595,-0.799,0.015
79291,1755584765309,36.91,-87.81,-22.72,757,786,820,861,861,34.48275862068966,-0.595,-0.797,0.014
79321,1755584765339,36.89,-87.85,-22.74,758,760,821,873,864,33.333333333333336,-0.599,-0.797,0.013
79350,1755584765368,36.88,-87.85,-22.72,759,771,822,857,861,34.48275862068966,-0.601,-0.799,0.015
79380,1755584765398,36.87,-87.84,-22.68,764,753,825,852,876,33.333333333333336,-0.598,-0.8,0.019
79409,1755584765427,36.92,-87.83,-22.65,761,773,813,856,872,34.48275862068966,-0.595,-0.799,0.02
79439,1755584765457,36.91,-87.8,-22.66,760,769,829,858,867,33.333333333333336,-0.594,-0.798,0.017
79468,1755584765486,36.86,-87.77,-22.68,754,771,813,858,865,34.48275862068966,-0.599,-0.799,0.015
79498,1755584765516,36.84,-87.77,-22.65,761,763,820,859,857,33.333333333333336,-0.6,-0.8,0.016
79527,1755584765545,36.91,-87.76,-22.61,753,770,819,864,844,34.48275862068966,-0.596,-0.799,0.016
79557,1755584765575,36.91,-87.76,-22.63,764,780,813,854,863,33.333333333333336,-0.592,-0.795,0.012
79587,1755584765605,36.87,-87.8,-22.68,756,771,825,861,872,33.333333333333336,-0.595,-0.796,0.008
79616,1755584765634,36.87,-87.82,-22.69,757,767,819,858,867,34.48275862068966,-0.598,-0.8,0.008
79646,1755584765664,36.87,-87.82,-22.66,755,769,822,859,865,33.333333333333336,-0.597,-0.8,0.013
79676,1755584765694,36.89,-87.8,-22.64,756,774,826,852,864,33.333333333333336,-0.595,-0.799,0.017
79705,1755584765723,36.87,-87.74,-22.65,758,775,812,857,875,34.48275862068966,-0.596,-0.798,0.015
79735,1755584765753,36.89,-87.77,-22.65,759,770,822,854,861,33.333333333333336,-0.597,-0.798,0.011
79765,1755584765783,36.87,-87.8,-22.66,755,766,815,855,869,33.333333333333336,-0.597,-0.797,0.013
79794,1755584765812,36.82,-87.8,-22.68,762,770,820,860,862,34.48275862068966,-0.595,-0.798,0.014
79824,1755584765842,36.83,-87.8,-22.7,752,772,819,852,872,33.333333333333336,-0.594,-0.8,0.015
79853,1755584765871,36.82,-87.79,-22.7,762,773,811,856,871,34.48275862068966,-0.596,-0.802,0.017
79883,1755584765901,36.8,-87.76,-22.67,756,776,817,854,860,33.333333333333336,-0.597,-0.803,0.016
79913,1755584765931,36.78,-87.75,-22.63,761,773,799,853,873,33.333333333333336,-0.596,-0.803,0.015
79943,1755584765961,36.79,-87.74,-22.61,755,772,828,858,860,33.333333333333336,-0.594,-0.799,0.018
79972,1755584765990,36.76,-87.71,-22.63,757,761,820,855,864,34.48275862068966,-0.594,-0.798,0.018
80002,1755584766020,36.76,-87.73,-22.65,754,774,822,862,877,33.333333333333336,-0.596,-0.798,0.015
80031,1755584766049,36.78,-87.75,-22.65,758,766,828,853,870,34.48275862068966,-0.597,-0.798,0.014
80061,1755584766079,36.75,-87.77,-22.65,759,773,822,850,873,33.333333333333336,-0.596,-0.8,0.016
80090,1755584766108,36.79,-87.76,-22.63,764,763,821,862,862,34.48275862068966,-0.595,-0.801,0.016
80120,1755584766138,36.78,-87.76,-22.61,759,774,818,861,867,33.333333333333336,-0.595,-0.801,0.015
80150,1755584766168,36.78,-87.76,-22.6,762,768,818,857,867,33.333333333333336,-0.595,-0.8,0.015
80179,1755584766198,36.81,-87.73,-22.57,753,774,820,859,867,34.48275862068966,-0.595,-0.8,0.017
80200,1755584766218,36.8,-87.72,-22.57,759,771,816,858,862,47.61904761904762,-0.594,-0.799,0.016
80229,1755584766247,36.78,-87.74,-22.58,756,771,809,856,867,34.48275862068966,-0.596,-0.801,0.017
80259,1755584766277,36.76,-87.75,-22.56,755,775,820,848,873,33.333333333333336,-0.596,-0.8,0.019
80289,1755584766307,36.75,-87.71,-22.54,759,784,826,856,872,33.333333333333336,-0.594,-0.798,0.018
80318,1755584766336,36.72,-87.72,-22.55,760,772,819,856,866,34.48275862068966,-0.595,-0.799,0.014
80348,1755584766366,36.72,-87.77,-22.53,760,771,822,862,867,33.333333333333336,-0.596,-0.799,0.013
80378,1755584766396,36.71,-87.79,-22.52,759,773,808,859,871,33.333333333333336,-0.597,-0.799,0.015
80407,1755584766425,36.66,-87.8,-22.5,759,773,823,855,867,34.48275862068966,-0.597,-0.8,0.014
80437,1755584766455,36.64,-87.81,-22.48,751,770,825,854,854,33.333333333333336,-0.595,-0.8,0.015
80466,1755584766484,36.66,-87.79,-22.47,757,772,814,862,861,34.48275862068966,-0.595,-0.799,0.019
80496,1755584766514,36.63,-87.74,-22.48,760,776,817,849,871,33.333333333333336,-0.596,-0.797,0.018
80526,1755584766543,36.62,-87.68,-22.49,760,769,819,861,868,33.333333333333336,-0.597,-0.797,0.017
80555,1755584766573,36.61,-87.68,-22.49,762,780,823,856,860,34.48275862068966,-0.598,-0.799,0.016
80585,1755584766602,36.6,-87.65,-22.47,758,772,819,853,868,33.333333333333336,-0.596,-0.802,0.018
80614,1755584766632,36.6,-87.61,-22.44,760,765,831,857,869,34.48275862068966,-0.593,-0.8,0.02
80644,1755584766662,36.59,-87.56,-22.45,755,774,820,848,864,33.333333333333336,-0.594,-0.797,0.016
80673,1755584766691,36.57,-87.56,-22.47,759,779,833,848,873,34.48275862068966,-0.596,-0.799,0.013
80703,1755584766721,36.58,-87.58,-22.42,754,775,833,858,861,33.333333333333336,-0.596,-0.801,0.015
80732,1755584766750,36.62,-87.61,-22.39,764,759,813,857,872,34.48275862068966,-0.594,-0.8,0.02
80762,1755584766780,36.6,-87.58,-22.39,757,766,817,855,862,33.333333333333336,-0.593,-0.799,0.024
80791,1755584766809,36.59,-87.51,-22.37,748,771,821,863,871,34.48275862068966,-0.595,-0.801,0.021
80821,1755584766839,36.65,-87.55,-22.33,762,752,823,856,865,33.333333333333336,-0.596,-0.801,0.018
80851,1755584766869,36.66,-87.57,-22.31,757,774,818,865,873,33.333333333333336,-0.595,-0.798,0.019
80880,1755584766898,36.61,-87.56,-22.33,758,765,819,863,868,34.48275862068966,-0.593,-0.795,0.02
80910,1755584766928,36.61,-87.59,-22.36,762,775,808,861,873,33.333333333333336,-0.596,-0.798,0.019
80940,1755584766958,36.6,-87.6,-22.34,758,775,825,845,868,33.333333333333336,-0.599,-0.8,0.02
80969,1755584766987,36.59,-87.6,-22.3,759,765,810,846,862,34.48275862068966,-0.597,-0.8,0.022
80999,1755584767017,36.6,-87.6,-22.29,761,771,828,856,868,33.333333333333336,-0.595,-0.799,0.025
81028,1755584767046,36.6,-87.58,-22.29,755,764,820,848,863,34.48275862068966,-0.596,-0.799,0.025
81058,1755584767076,36.6,-87.56,-22.26,757,774,810,851,869,33.333333333333336,-0.597,-0.799,0.02
81088,1755584767106,36.61,-87.58,-22.25,760,775,811,848,870,33.333333333333336,-0.596,-0.797,0.017
81117,1755584767135,36.58,-87.61,-22.27,759,769,817,860,872,34.48275862068966,-0.595,-0.796,0.018
81147,1755584767165,36.57,-87.63,-22.28,768,766,810,860,870,33.333333333333336,-0.596,-0.798,0.02
81176,1755584767194,36.56,-87.62,-22.25,758,770,814,863,867,34.48275862068966,-0.597,-0.799,0.02
81206,1755584767224,36.56,-87.62,-22.23,764,768,823,854,861,33.333333333333336,-0.598,-0.8,0.021
81235,1755584767253,36.56,-87.64,-22.21,760,758,815,856,870,34.48275862068966,-0.596,-0.797,0.021
81265,1755584767283,36.56,-87.66,-22.23,758,766,824,867,871,33.333333333333336,-0.594,-0.795,0.022
81295,1755584767313,36.55,-87.61,-22.24,755,774,808,856,874,33.333333333333336,-0.597,-0.799,0.022
81324,1755584767342,36.57,-87.62,-22.22,763,779,823,855,863,34.48275862068966,-0.599,-0.801,0.018
81354,1755584767372,36.6,-87.66,-22.2,755,769,824,864,882,33.333333333333336,-0.596,-0.798,0.019
81383,1755584767401,36.56,-87.65,-22.22,758,770,825,857,868,34.48275862068966,-0.594,-0.797,0.022
81413,1755584767431,36.55,-87.62,-22.24,756,766,820,848,852,33.333333333333336,-0.596,-0.798,0.022
81442,1755584767460,36.56,-87.63,-22.21,750,772,837,857,863,34.48275862068966,-0.598,-0.803,0.019
81472,1755584767490,36.6,-87.64,-22.15,761,770,821,851,862,33.333333333333336,-0.596,-0.802,0.019
81502,1755584767520,36.59,-87.63,-22.14,757,772,808,846,874,33.333333333333336,-0.594,-0.798,0.02
81532,1755584767550,37.05,-87.61,-22.16,758,770,822,856,866,33.333333333333336,-0.596,-0.798,0.02
81561,1755584767579,37.04,-87.61,-22.15,754,781,824,853,859,34.48275862068966,-0.599,-0.8,0.018
81591,1755584767609,37.03,-87.63,-22.12,760,775,825,852,870,33.333333333333336,-0.597,-0.8,0.018
81620,1755584767638,37.01,-87.64,-22.11,763,773,815,865,866,34.48275862068966,-0.594,-0.799,0.019
81650,1755584767668,37.0,-87.62,-22.12,761,770,817,856,861,33.333333333333336,-0.594,-0.798,0.02
81680,1755584767698,36.99,-87.62,-22.13,758,772,821,851,869,33.333333333333336,-0.598,-0.799,0.02
81709,1755584767727,37.0,-87.64,-22.12,759,765,826,843,861,34.48275862068966,-0.6,-0.799,0.021
81739,1755584767757,36.98,-87.63,-22.11,763,775,819,858,857,33.333333333333336,-0.597,-0.799,0.02
81768,1755584767787,36.96,-87.62,-22.1,763,767,833,856,877,34.48275862068966,-0.594,-0.799,0.018
81798,1755584767816,36.95,-87.64,-22.11,760,776,814,857,862,33.333333333333336,-0.595,-0.799,0.017
81828,1755584767846,36.95,-87.64,-22.11,769,775,824,852,868,33.333333333333336,-0.598,-0.799,0.018
81857,1755584767875,36.95,-87.64,-22.08,754,773,813,862,875,34.48275862068966,-0.598,-0.799,0.018
81887,1755584767905,36.93,-87.66,-22.06,763,775,831,855,864,33.333333333333336,-0.596,-0.799,0.017
81916,1755584767935,36.9,-87.69,-22.06,757,763,825,856,873,34.48275862068966,-0.594,-0.799,0.018
81946,1755584767964,36.89,-87.71,-22.05,765,775,812,853,875,33.333333333333336,-0.596,-0.799,0.021
81976,1755584767994,36.89,-87.68,-22.02,758,779,821,858,870,33.333333333333336,-0.599,-0.799,0.024
82005,1755584768023,36.89,-87.65,-21.99,758,759,812,851,869,34.48275862068966,-0.598,-0.799,0.023
82035,1755584768053,36.91,-87.63,-21.98,755,777,822,855,859,33.333333333333336,-0.596,-0.798,0.02
82064,1755584768082,36.84,-87.66,-22.0,755,768,811,860,866,34.48275862068966,-0.595,-0.797,0.016
82094,1755584768112,36.83,-87.72,-22.01,759,769,822,863,858,33.333333333333336,-0.598,-0.798,0.016
82123,1755584768141,36.85,-87.74,-22.0,753,766,817,863,878,34.48275862068966,-0.599,-0.799,0.021
82153,1755584768171,36.85,-87.69,-21.97,758,784,825,859,869,33.333333333333336,-0.597,-0.8,0.023
82183,1755584768201,36.88,-87.67,-21.95,766,769,825,854,870,33.333333333333336,-0.596,-0.799,0.02
82212,1755584768230,36.83,-87.66,-21.96,753,771,813,855,871,34.48275862068966,-0.596,-0.798,0.018
82242,1755584768259,36.81,-87.68,-21.97,761,771,821,856,869,33.333333333333336,-0.597,-0.798,0.017
82271,1755584768289,36.85,-87.69,-21.95,758,768,823,849,858,34.48275862068966,-0.598,-0.798,0.018
82300,1755584768318,36.82,-87.67,-21.93,760,772,822,859,866,34.48275862068966,-0.597,-0.799,0.02
82330,1755584768348,36.82,-87.66,-21.93,762,762,824,855,866,33.333333333333336,-0.596,-0.799,0.019
82359,1755584768378,36.81,-87.66,-21.91,758,769,823,862,869,34.48275862068966,-0.596,-0.799,0.019
82389,1755584768407,36.83,-87.67,-21.9,760,765,813,855,859,33.333333333333336,-0.598,-0.801,0.018
82419,1755584768437,36.84,-87.66,-21.85,761,769,821,858,870,33.333333333333336,-0.598,-0.801,0.017
82448,1755584768467,36.84,-87.66,-21.8,759,770,828,853,861,34.48275862068966,-0.596,-0.8,0.017
82478,1755584768496,36.83,-87.69,-21.79,759,776,817,857,867,33.333333333333336,-0.596,-0.797,0.019
82508,1755584768525,36.83,-87.69,-21.79,760,777,822,862,867,33.333333333333336,-0.597,-0.797,0.022
82537,1755584768556,36.83,-87.65,-21.76,763,777,811,858,875,34.48275862068966,-0.598,-0.798,0.024
82557,1755584768575,36.85,-87.65,-21.75,755,769,816,861,869,50.0,-0.598,-0.796,0.023
82587,1755584768605,36.85,-87.64,-21.77,763,769,809,862,874,33.333333333333336,-0.598,-0.794,0.02
82616,1755584768635,36.82,-87.67,-21.81,759,771,824,860,871,34.48275862068966,-0.599,-0.795,0.017
82636,1755584768654,36.81,-87.7,-21.82,761,769,827,850,862,50.0,-0.601,-0.797,0.017
82666,1755584768684,36.81,-87.71,-21.81,755,771,818,855,867,33.333333333333336,-0.601,-0.799,0.019
82696,1755584768714,36.84,-87.67,-21.77,749,774,818,873,880,33.333333333333336,-0.598,-0.801,0.019
82725,1755584768743,36.82,-87.67,-21.77,759,775,815,862,852,34.48275862068966,-0.596,-0.799,0.016
82755,1755584768773,36.81,-87.68,-21.78,761,782,810,869,871,33.333333333333336,-0.597,-0.797,0.015
82784,1755584768802,36.78,-87.69,-21.79,754,773,832,863,876,34.48275862068966,-0.599,-0.797,0.019
82814,1755584768832,36.82,-87.66,-21.78,760,772,826,851,859,33.333333333333336,-0.599,-0.799,0.024
82843,1755584768861,36.84,-87.63,-21.77,760,771,825,858,868,34.48275862068966,-0.597,-0.798,0.023
82873,1755584768891,36.84,-87.62,-21.79,760,776,829,849,894,33.333333333333336,-0.596,-0.797,0.018
82902,1755584768920,36.79,-87.62,-21.81,758,770,822,865,863,34.48275862068966,-0.597,-0.798,0.015
82932,1755584768950,36.8,-87.65,-21.81,761,775,815,851,856,33.333333333333336,-0.597,-0.8,0.015
82961,1755584768979,36.82,-87.66,-21.8,761,764,824,865,869,34.48275862068966,-0.596,-0.801,0.021
82991,1755584769009,36.84,-87.61,-21.77,756,766,814,856,868,33.333333333333336,-0.596,-0.802,0.023
83020,1755584769039,36.87,-87.54,-21.73,753,773,799,862,883,34.48275862068966,-0.597,-0.802,0.019
83050,1755584769068,36.89,-87.55,-21.68,758,772,820,856,867,33.333333333333336,-0.598,-0.801,0.013
83080,1755584769098,36.86,-87.57,-21.65,761,773,825,873,877,33.333333333333336,-0.597,-0.798,0.013
83109,1755584769128,36.86,-87.57,-21.63,762,767,827,861,879,34.48275862068966,-0.595,-0.797,0.015
83139,1755584769157,36.83,-87.56,-21.64,764,762,822,862,869,33.333333333333336,-0.594,-0.798,0.016
83169,1755584769187,36.8,-87.59,-21.65,759,778,827,860,877,33.333333333333336,-0.595,-0.798,0.014
83198,1755584769216,36.78,-87.63,-21.66,757,769,822,859,866,34.48275862068966,-0.596,-0.796,0.014
83228,1755584769246,36.72,-87.65,-21.68,761,767,820,849,883,33.333333333333336,-0.596,-0.795,0.018
83257,1755584769276,36.71,-87.64,-21.7,754,775,810,854,873,34.48275862068966,-0.597,-0.797,0.02
83287,1755584769305,36.68,-87.65,-21.71,758,760,834,871,875,33.333333333333336,-0.598,-0.8,0.018
83317,1755584769335,36.73,-87.69,-21.67,754,777,820,864,863,33.333333333333336,-0.597,-0.801,0.017
83346,1755584769365,36.69,-87.7,-21.66,762,772,821,861,866,34.48275862068966,-0.594,-0.799,0.018
83376,1755584769394,36.71,-87.72,-21.69,759,762,824,853,876,33.333333333333336,-0.595,-0.797,0.019
83406,1755584769424,36.68,-87.72,-21.71,774,776,824,861,868,33.333333333333336,-0.598,-0.798,0.019
83435,1755584769454,36.69,-87.72,-21.69,759,773,816,845,906,34.48275862068966,-0.6,-0.8,0.017
83465,1755584769483,36.67,-87.77,-21.67,763,769,821,850,867,33.333333333333336,-0.597,-0.8,0.015
83494,1755584769513,36.64,-87.81,-21.67,759,772,821,847,870,34.48275862068966,-0.595,-0.799,0.018
83524,1755584769543,36.59,-87.81,-21.7,760,783,822,859,867,33.333333333333336,-0.593,-0.797,0.019
83554,1755584769573,36.58,-87.8,-21.71,762,771,823,854,869,33.333333333333336,-0.596,-0.8,0.018
83574,1755584769593,36.59,-87.81,-21.7,764,762,824,858,863,50.0,-0.599,-0.803,0.018
83604,1755584769622,36.61,-87.36,-21.64,759,772,818,847,867,33.333333333333336,-0.598,-0.803,0.018
83633,1755584769652,36.63,-87.32,-21.57,755,777,820,858,872,34.48275862068966,-0.595,-0.801,0.017
83663,1755584769682,36.64,-87.34,-21.55,758,775,816,854,865,33.333333333333336,-0.594,-0.797,0.014
83683,1755584769701,36.64,-87.37,-21.56,759,773,822,850,858,50.0,-0.594,-0.795,0.012
83713,1755584769731,36.62,-87.38,-21.57,759,775,811,859,869,33.333333333333336,-0.596,-0.796,0.014
83742,1755584769761,36.59,-87.37,-21.57,754,764,824,860,863,34.48275862068966,-0.595,-0.798,0.018
83772,1755584769791,36.61,-87.37,-21.57,759,773,812,843,872,33.333333333333336,-0.595,-0.798,0.018
83802,1755584769820,36.62,-87.37,-21.56,762,774,806,862,866,33.333333333333336,-0.597,-0.798,0.015
83832,1755584769850,36.59,-87.36,-21.56,759,778,826,862,864,33.333333333333336,-0.597,-0.798,0.014
83861,1755584769879,36.58,-87.39,-21.57,763,767,815,859,869,34.48275862068966,-0.596,-0.797,0.016
83891,1755584769909,36.56,-87.4,-21.6,754,765,825,856,872,33.333333333333336,-0.595,-0.797,0.017
83920,1755584769938,36.51,-87.38,-21.63,755,762,822,863,875,34.48275862068966,-0.597,-0.8,0.015
83950,1755584769968,36.49,-87.42,-21.6,761,768,820,853,860,33.333333333333336,-0.598,-0.802,0.016
83979,1755584769997,36.5,-87.44,-21.56,760,781,808,859,869,34.48275862068966,-0.596,-0.801,0.02
84009,1755584770027,36.51,-87.4,-21.56,762,765,815,865,868,33.333333333333336,-0.593,-0.798,0.021
84039,1755584770057,36.49,-87.4,-21.59,754,775,816,857,862,33.333333333333336,-0.594,-0.798,0.018
84069,1755584770087,36.47,-87.43,-21.6,757,769,829,856,870,33.333333333333336,-0.597,-0.799,0.017
84098,1755584770117,36.48,-87.45,-21.58,760,773,821,849,863,34.48275862068966,-0.598,-0.8,0.017
84118,1755584770136,36.51,-87.46,-21.56,754,771,838,857,874,50.0,-0.598,-0.8,0.021
