timestamp_ms,recv_timestamp_ms,pitch,roll,yaw,flex1,flex2,flex3,flex4,flex5,sampling_hz,accel_x,accel_y,accel_z
31256,1755587459095,24.74,2.97,-88.98,770,776,774,818,843,33.333333333333336,-0.252,0.326,0.917
31285,1755587459124,24.8,2.96,-89.08,773,766,777,813,829,34.48275862068966,-0.25,0.328,0.923
31314,1755587459154,24.82,2.96,-89.22,768,766,767,808,832,34.48275862068966,-0.247,0.328,0.919
31344,1755587459183,24.8,2.92,-89.35,769,773,776,813,841,33.333333333333336,-0.249,0.327,0.916
31373,1755587459213,24.88,2.92,-89.47,774,776,770,804,843,34.48275862068966,-0.252,0.322,0.922
31403,1755587459242,25.0,3.08,-89.52,770,776,772,818,837,33.333333333333336,-0.258,0.32,0.931
31432,1755587459272,25.15,3.43,-89.58,768,771,765,825,839,34.48275862068966,-0.261,0.325,0.932
31462,1755587459302,25.37,3.75,-89.62,775,768,764,821,836,33.333333333333336,-0.259,0.331,0.925
31491,1755587459331,25.41,3.85,-89.72,774,770,771,815,841,34.48275862068966,-0.254,0.335,0.91
31521,1755587459360,25.2,3.68,-89.82,768,771,766,814,844,33.333333333333336,-0.249,0.335,0.895
31550,1755587459390,25.15,3.6,-90.02,770,779,768,817,841,34.48275862068966,-0.251,0.333,0.909
31580,1755587459420,25.17,3.74,-90.08,767,768,773,815,849,33.333333333333336,-0.257,0.34,0.923
31609,1755587459450,25.13,3.85,-90.14,772,774,775,815,845,34.48275862068966,-0.255,0.337,0.918
31630,1755587459469,25.04,4.06,-90.2,768,769,771,812,840,47.61904761904762,-0.256,0.336,0.912
31659,1755587459499,25.03,4.13,-90.26,770,778,762,814,848,34.48275862068966,-0.253,0.341,0.907
31689,1755587459529,24.97,4.1,-90.4,766,773,769,814,837,33.333333333333336,-0.253,0.344,0.901
31709,1755587459548,24.81,4.12,-90.79,772,772,770,816,840,50.0,-0.254,0.341,0.898
31738,1755587459578,24.79,4.08,-90.9,775,772,764,821,845,34.48275862068966,-0.255,0.341,0.911
31767,1755587459607,24.81,4.15,-91.05,764,772,766,819,843,34.48275862068966,-0.258,0.344,0.92
31797,1755587459636,24.7,4.21,-91.12,770,774,770,809,838,33.333333333333336,-0.256,0.342,0.911
31826,1755587459666,24.75,4.13,-91.25,775,774,772,814,856,34.48275862068966,-0.253,0.342,0.907
31856,1755587459695,24.7,4.08,-91.37,770,772,777,812,847,33.333333333333336,-0.252,0.34,0.907
31885,1755587459724,24.67,4.08,-91.48,773,773,774,809,846,34.48275862068966,-0.256,0.345,0.908
31914,1755587459754,24.7,4.1,-91.58,773,771,771,816,837,34.48275862068966,-0.258,0.346,0.911
31944,1755587459784,24.65,4.03,-91.68,774,774,777,812,837,33.333333333333336,-0.252,0.342,0.913
31974,1755587459813,24.59,4.1,-91.79,771,777,772,817,843,33.333333333333336,-0.248,0.346,0.909
32003,1755587459843,24.63,4.05,-91.96,758,779,771,815,849,34.48275862068966,-0.247,0.349,0.908
32033,1755587459872,24.6,4.01,-92.11,771,785,769,820,838,33.333333333333336,-0.246,0.347,0.913
32062,1755587459902,24.56,3.99,-92.28,775,776,774,815,840,34.48275862068966,-0.246,0.344,0.912
32092,1755587459932,24.57,4.04,-92.4,764,774,767,818,839,33.333333333333336,-0.249,0.344,0.916
32122,1755587459961,24.58,4.06,-92.56,773,770,770,817,840,33.333333333333336,-0.253,0.342,0.92
32151,1755587459991,24.51,4.05,-92.69,769,771,774,821,844,34.48275862068966,-0.257,0.34,0.918
32180,1755587460020,24.41,4.14,-92.75,767,765,763,816,841,34.48275862068966,-0.252,0.342,0.916
32210,1755587460049,24.51,4.21,-92.9,775,769,764,816,842,33.333333333333336,-0.249,0.346,0.918
32239,1755587460079,24.46,4.19,-92.98,764,766,772,814,845,34.48275862068966,-0.249,0.346,0.913
32269,1755587460108,24.4,4.22,-93.07,765,780,752,809,842,33.333333333333336,-0.247,0.348,0.913
32298,1755587460137,24.41,4.25,-93.21,768,766,774,815,839,34.48275862068966,-0.247,0.347,0.913
32327,1755587460167,24.3,4.25,-93.23,771,773,771,815,831,34.48275862068966,-0.253,0.345,0.915
32357,1755587460196,24.22,4.2,-93.28,772,773,772,812,835,33.333333333333336,-0.247,0.346,0.916
32386,1755587460226,24.26,4.16,-93.39,770,767,764,810,838,34.48275862068966,-0.245,0.347,0.916
32416,1755587460255,24.22,4.22,-93.46,763,774,768,814,826,33.333333333333336,-0.246,0.347,0.917
32445,1755587460284,24.18,4.19,-93.57,768,765,770,816,843,34.48275862068966,-0.239,0.347,0.918
32474,1755587460314,24.28,4.27,-93.72,765,765,772,820,833,34.48275862068966,-0.245,0.344,0.92
32504,1755587460343,24.25,4.34,-93.81,768,772,766,817,844,33.333333333333336,-0.247,0.344,0.914
32533,1755587460373,24.19,4.43,-93.87,767,776,769,810,839,34.48275862068966,-0.249,0.346,0.916
32562,1755587460402,24.27,4.41,-93.99,774,777,770,812,838,34.48275862068966,-0.248,0.346,0.915
32592,1755587460431,24.22,4.43,-94.06,769,768,771,817,841,33.333333333333336,-0.245,0.347,0.91
32621,1755587460461,24.2,4.46,-94.15,772,767,772,812,835,34.48275862068966,-0.244,0.35,0.913
32651,1755587460491,24.24,4.37,-94.3,768,768,770,807,841,33.333333333333336,-0.241,0.349,0.914
32681,1755587460520,24.13,4.44,-94.4,769,776,763,813,843,33.333333333333336,-0.242,0.35,0.914
32710,1755587460550,24.12,4.46,-94.5,766,768,772,812,836,34.48275862068966,-0.242,0.35,0.916
32740,1755587460579,24.22,4.47,-94.63,768,779,775,815,841,33.333333333333336,-0.242,0.352,0.914
32769,1755587460609,24.11,4.44,-94.73,771,771,770,819,842,34.48275862068966,-0.24,0.349,0.909
32799,1755587460639,24.15,4.39,-94.86,769,771,774,823,846,33.333333333333336,-0.239,0.347,0.914
32828,1755587460668,24.24,4.4,-94.97,768,772,772,801,844,34.48275862068966,-0.247,0.349,0.923
32858,1755587460697,24.13,4.34,-95.03,762,767,770,811,835,33.333333333333336,-0.247,0.346,0.912
32887,1755587460727,24.06,4.33,-95.07,767,785,774,810,842,34.48275862068966,-0.245,0.351,0.909
32917,1755587460756,24.09,4.36,-95.22,771,772,766,817,840,33.333333333333336,-0.235,0.355,0.916
32946,1755587460785,24.02,4.35,-95.35,770,770,772,815,836,34.48275862068966,-0.236,0.355,0.915
32975,1755587460815,23.95,4.34,-95.49,771,767,783,820,840,34.48275862068966,-0.239,0.35,0.914
33005,1755587460844,23.96,4.36,-95.6,769,773,770,810,835,33.333333333333336,-0.235,0.348,0.92
33034,1755587460874,23.99,4.41,-95.77,772,775,763,811,843,34.48275862068966,-0.237,0.35,0.919
33064,1755587460903,23.93,4.45,-95.88,767,770,769,817,851,33.333333333333336,-0.239,0.348,0.912
33093,1755587460933,23.89,4.28,-95.99,767,769,773,810,834,34.48275862068966,-0.242,0.346,0.912
33123,1755587460962,23.84,4.33,-96.08,761,772,764,810,842,33.333333333333336,-0.243,0.349,0.918
33152,1755587460992,23.84,4.38,-96.16,770,773,769,819,832,34.48275862068966,-0.241,0.351,0.918
33181,1755587461021,23.81,4.33,-96.26,771,771,770,815,833,34.48275862068966,-0.24,0.349,0.917
33211,1755587461051,23.75,4.35,-96.3,770,769,774,818,842,33.333333333333336,-0.236,0.343,0.919
33240,1755587461080,23.76,4.42,-96.4,768,771,777,816,841,34.48275862068966,-0.233,0.349,0.916
33270,1755587461111,23.68,4.32,-96.5,780,774,761,811,836,33.333333333333336,-0.231,0.346,0.912
33290,1755587461130,23.61,4.37,-96.62,774,775,769,819,849,50.0,-0.229,0.342,0.914
33320,1755587461159,23.63,4.48,-96.7,770,764,770,826,846,33.333333333333336,-0.234,0.342,0.921
33349,1755587461189,23.68,4.56,-96.82,766,772,769,804,839,34.48275862068966,-0.234,0.346,0.92
33379,1755587461218,23.65,4.5,-96.93,769,772,774,817,845,33.333333333333336,-0.236,0.344,0.914
33408,1755587461248,23.6,4.51,-96.99,765,776,773,810,840,34.48275862068966,-0.233,0.342,0.914
33438,1755587461278,23.65,4.57,-97.08,770,770,765,817,845,33.333333333333336,-0.23,0.347,0.921
33468,1755587461307,23.67,4.58,-97.22,772,779,776,816,843,33.333333333333336,-0.232,0.348,0.918
33497,1755587461336,23.64,4.57,-97.32,764,771,766,819,834,34.48275862068966,-0.234,0.347,0.91
33526,1755587461366,23.62,4.52,-97.42,767,776,765,810,842,34.48275862068966,-0.236,0.349,0.911
33556,1755587461395,23.66,4.6,-97.54,772,777,771,815,840,33.333333333333336,-0.233,0.35,0.918
33585,1755587461424,23.75,4.77,-97.66,766,770,772,809,841,34.48275862068966,-0.235,0.35,0.922
33614,1755587461454,23.7,4.78,-97.74,766,775,763,810,842,34.48275862068966,-0.235,0.352,0.913
33644,1755587461483,23.64,4.66,-97.87,770,770,768,813,842,33.333333333333336,-0.231,0.349,0.909
33673,1755587461513,23.66,4.65,-98.02,772,771,772,806,844,34.48275862068966,-0.228,0.352,0.915
33703,1755587461543,23.71,4.64,-98.19,767,771,779,810,872,33.333333333333336,-0.23,0.353,0.915
33733,1755587461572,23.81,4.66,-98.38,769,776,771,817,845,33.333333333333336,-0.237,0.351,0.914
33762,1755587461602,23.82,4.72,-98.42,771,767,770,815,848,34.48275862068966,-0.241,0.346,0.916
33792,1755587461631,23.91,4.79,-98.54,768,770,769,814,840,33.333333333333336,-0.24,0.347,0.914
33821,1755587461661,24.0,4.81,-98.63,771,766,765,816,834,34.48275862068966,-0.242,0.346,0.914
33851,1755587461690,24.1,4.92,-98.69,768,772,768,809,845,33.333333333333336,-0.241,0.345,0.917
33880,1755587461720,24.17,4.96,-98.77,765,770,776,825,842,34.48275862068966,-0.243,0.348,0.914
33910,1755587461749,24.05,4.99,-98.72,773,772,769,814,839,33.333333333333336,-0.246,0.346,0.91
33939,1755587461779,23.99,4.98,-98.75,766,776,772,819,840,34.48275862068966,-0.241,0.352,0.908
33969,1755587461809,24.01,4.95,-98.8,763,775,769,822,833,33.333333333333336,-0.244,0.352,0.913
33989,1755587461828,23.92,5.1,-98.8,772,765,766,811,844,50.0,-0.243,0.356,0.915
34018,1755587461858,23.92,5.11,-98.87,775,779,769,810,841,34.48275862068966,-0.24,0.354,0.916
34048,1755587461887,23.93,5.15,-98.95,775,770,763,811,834,33.333333333333336,-0.238,0.357,0.914
34077,1755587461917,23.9,5.17,-99.04,774,772,770,813,838,34.48275862068966,-0.234,0.356,0.914
34107,1755587461946,23.99,5.11,-99.23,766,770,768,820,841,33.333333333333336,-0.229,0.357,0.914
34136,1755587461976,24.23,4.95,-99.55,768,769,767,813,844,34.48275862068966,-0.228,0.358,0.909
34165,1755587462005,24.22,4.88,-99.75,772,781,770,816,846,34.48275862068966,-0.233,0.36,0.91
34195,1755587462034,24.13,4.77,-99.98,769,766,769,816,840,33.333333333333336,-0.231,0.362,0.906
34224,1755587462064,24.49,4.4,-100.4,768,769,767,810,844,34.48275862068966,-0.239,0.358,0.907
34254,1755587462093,24.33,4.33,-100.49,776,778,770,816,842,33.333333333333336,-0.251,0.35,0.915
34283,1755587462123,24.29,4.23,-100.63,767,774,775,822,836,34.48275862068966,-0.258,0.347,0.914
34313,1755587462152,24.37,4.12,-100.69,764,772,770,815,840,33.333333333333336,-0.267,0.341,0.914
34342,1755587462181,24.19,4.19,-100.66,771,774,774,808,842,34.48275862068966,-0.262,0.338,0.915
34371,1755587462211,24.17,4.18,-100.81,775,771,769,817,845,34.48275862068966,-0.255,0.34,0.915
34401,1755587462240,24.31,4.1,-101.02,768,768,773,812,830,33.333333333333336,-0.251,0.338,0.918
34430,1755587462270,24.57,4.05,-101.37,771,767,775,813,840,34.48275862068966,-0.246,0.337,0.914
34460,1755587462299,24.66,3.98,-101.59,762,769,768,808,845,33.333333333333336,-0.258,0.33,0.913
34489,1755587462329,24.6,3.84,-101.7,770,777,767,827,835,34.48275862068966,-0.263,0.323,0.914
34519,1755587462358,24.56,3.76,-101.79,766,772,769,818,836,33.333333333333336,-0.264,0.327,0.923
34548,1755587462388,24.5,3.79,-101.84,765,767,774,811,840,34.48275862068966,-0.266,0.326,0.927
34578,1755587462418,24.4,3.77,-101.86,768,769,766,813,849,33.333333333333336,-0.262,0.326,0.919
34608,1755587462447,24.39,3.61,-101.98,762,778,770,814,847,33.333333333333336,-0.254,0.329,0.913
34637,1755587462476,24.53,3.56,-102.17,762,777,771,806,832,34.48275862068966,-0.253,0.333,0.915
34666,1755587462506,24.68,3.56,-102.39,764,766,768,813,833,34.48275862068966,-0.25,0.336,0.917
34696,1755587462536,24.67,3.53,-102.55,772,784,767,814,844,33.333333333333336,-0.257,0.334,0.916
34726,1755587462566,24.66,3.4,-102.71,769,772,770,823,846,33.333333333333336,-0.256,0.326,0.91
34746,1755587462586,24.6,3.43,-102.86,767,774,771,824,833,50.0,-0.254,0.323,0.913
34776,1755587462615,24.78,3.39,-103.06,768,778,768,813,840,33.333333333333336,-0.266,0.321,0.926
34805,1755587462645,24.65,3.51,-103.13,773,765,770,808,840,34.48275862068966,-0.264,0.319,0.924
34835,1755587462674,24.71,3.43,-103.3,767,772,772,816,840,33.333333333333336,-0.259,0.317,0.915
34864,1755587462704,25.1,3.23,-103.61,769,771,769,811,864,34.48275862068966,-0.261,0.315,0.914
34894,1755587462733,25.09,3.33,-103.65,764,778,770,817,842,33.333333333333336,-0.268,0.318,0.916
34923,1755587462763,25.13,3.27,-103.93,774,767,766,820,841,34.48275862068966,-0.256,0.323,0.903
34953,1755587462792,25.45,2.86,-104.33,767,769,776,817,838,33.333333333333336,-0.277,0.316,0.906
34982,1755587462822,24.93,2.96,-104.2,771,762,773,816,833,34.48275862068966,-0.282,0.314,0.918
35012,1755587462852,24.74,2.92,-104.23,767,791,765,809,843,33.333333333333336,-0.283,0.31,0.925
35042,1755587462881,24.85,2.86,-104.22,770,776,770,816,850,33.333333333333336,-0.284,0.307,0.929
35071,1755587462911,24.79,2.99,-104.15,769,773,771,825,840,34.48275862068966,-0.282,0.312,0.937
35101,1755587462940,24.68,3.26,-104.09,772,764,764,821,833,33.333333333333336,-0.272,0.313,0.93
35130,1755587462969,24.79,3.34,-104.1,769,773,771,823,842,34.48275862068966,-0.269,0.308,0.92
35159,1755587462999,24.77,3.39,-104.07,769,773,778,813,845,34.48275862068966,-0.264,0.313,0.914
35188,1755587463028,24.8,3.23,-104.15,766,772,773,811,835,34.48275862068966,-0.257,0.316,0.912
35218,1755587463057,24.91,3.12,-104.22,769,769,774,817,858,33.333333333333336,-0.256,0.318,0.918
35247,1755587463087,25.05,3.04,-104.36,772,768,772,822,841,34.48275862068966,-0.257,0.316,0.924
35277,1755587463117,25.21,3.03,-104.47,767,782,770,816,835,33.333333333333336,-0.26,0.319,0.923
35307,1755587463146,25.31,2.98,-104.58,768,775,773,818,843,33.333333333333336,-0.264,0.321,0.915
35336,1755587463176,25.29,2.84,-104.65,769,770,773,822,838,34.48275862068966,-0.271,0.322,0.908
35366,1755587463205,25.44,2.67,-104.75,769,774,767,813,841,33.333333333333336,-0.267,0.317,0.92
35395,1755587463235,25.77,2.64,-104.92,764,773,773,815,844,34.48275862068966,-0.271,0.314,0.934
35425,1755587463264,25.73,2.86,-104.9,768,777,767,803,847,33.333333333333336,-0.277,0.312,0.93
35454,1755587463293,25.67,2.84,-104.88,764,777,768,821,839,34.48275862068966,-0.27,0.31,0.923
35483,1755587463323,25.78,2.78,-104.9,770,773,774,820,849,34.48275862068966,-0.266,0.309,0.927
35513,1755587463352,25.94,2.89,-104.93,770,773,768,814,842,33.333333333333336,-0.266,0.313,0.928
35542,1755587463382,25.96,3.02,-104.99,765,773,772,822,835,34.48275862068966,-0.266,0.322,0.922
35572,1755587463411,26.04,3.0,-105.13,771,774,773,816,841,33.333333333333336,-0.265,0.324,0.915
35601,1755587463440,26.06,2.9,-105.28,769,772,776,823,864,34.48275862068966,-0.266,0.32,0.912
35630,1755587463470,26.07,2.87,-105.45,771,776,768,816,829,34.48275862068966,-0.271,0.321,0.912
35660,1755587463500,26.18,2.92,-105.66,769,771,767,805,846,33.333333333333336,-0.274,0.324,0.913
35690,1755587463529,26.36,2.85,-105.95,771,771,766,819,845,33.333333333333336,-0.278,0.321,0.912
35719,1755587463558,26.36,2.69,-106.15,772,775,769,812,836,34.48275862068966,-0.28,0.314,0.91
35748,1755587463588,26.52,2.63,-106.4,769,775,768,812,841,34.48275862068966,-0.281,0.311,0.917
35778,1755587463618,26.64,2.7,-106.55,774,774,771,825,844,33.333333333333336,-0.29,0.313,0.923
35808,1755587463648,26.53,2.64,-106.7,774,776,768,815,842,33.333333333333336,-0.287,0.31,0.915
35837,1755587463677,26.62,2.59,-106.91,774,770,769,817,845,34.48275862068966,-0.288,0.309,0.92
35867,1755587463707,26.71,2.74,-107.06,772,772,769,818,828,33.333333333333336,-0.292,0.311,0.926
35897,1755587463736,26.77,2.82,-107.26,766,777,768,820,836,33.333333333333336,-0.292,0.31,0.923
35926,1755587463766,26.86,2.84,-107.37,766,770,765,812,836,34.48275862068966,-0.301,0.304,0.918
35955,1755587463795,26.92,2.91,-107.38,770,781,776,814,840,34.48275862068966,-0.304,0.306,0.914
35985,1755587463825,27.07,3.0,-107.4,769,764,765,811,847,33.333333333333336,-0.307,0.315,0.913
36015,1755587463854,27.15,3.01,-107.45,770,772,768,813,839,33.333333333333336,-0.306,0.32,0.907
36044,1755587463884,27.13,3.07,-107.5,770,785,770,817,841,34.48275862068966,-0.301,0.324,0.902
36073,1755587463913,27.16,3.05,-107.64,766,769,769,813,837,34.48275862068966,-0.301,0.322,0.904
36103,1755587463942,27.19,3.11,-107.72,767,777,768,820,840,33.333333333333336,-0.302,0.321,0.908
36132,1755587463972,27.19,3.23,-107.82,770,772,772,810,843,34.48275862068966,-0.303,0.32,0.909
36162,1755587464001,27.26,3.15,-107.98,768,778,770,818,849,33.333333333333336,-0.299,0.315,0.908
36191,1755587464030,27.4,3.09,-108.14,770,778,772,815,849,34.48275862068966,-0.299,0.313,0.911
36220,1755587464060,27.52,3.08,-108.28,769,779,776,817,830,34.48275862068966,-0.302,0.318,0.908
36250,1755587464090,27.5,2.9,-108.39,773,776,773,816,823,33.333333333333336,-0.305,0.316,0.903
36280,1755587464119,27.34,2.79,-108.41,770,776,773,809,833,33.333333333333336,-0.305,0.314,0.907
36309,1755587464149,27.39,2.77,-108.54,766,769,765,813,841,34.48275862068966,-0.302,0.317,0.912
36339,1755587464178,27.48,2.74,-108.68,768,777,768,814,846,33.333333333333336,-0.306,0.316,0.912
36368,1755587464207,27.36,2.71,-108.75,768,771,783,810,840,34.48275862068966,-0.305,0.316,0.905
36397,1755587464237,27.32,2.62,-108.86,774,773,767,821,845,34.48275862068966,-0.306,0.313,0.905
36427,1755587464267,27.37,2.64,-108.97,770,770,772,822,877,33.333333333333336,-0.308,0.315,0.911
36457,1755587464296,27.36,2.74,-109.02,772,772,772,813,853,33.333333333333336,-0.309,0.315,0.911
36486,1755587464326,27.31,2.63,-109.16,764,767,770,818,846,34.48275862068966,-0.307,0.31,0.904
36516,1755587464355,27.29,2.6,-109.23,767,769,763,806,841,33.333333333333336,-0.31,0.311,0.908
36545,1755587464384,27.26,2.62,-109.3,771,764,770,809,841,34.48275862068966,-0.306,0.312,0.912
36574,1755587464414,27.28,2.61,-109.44,770,773,768,814,835,34.48275862068966,-0.303,0.312,0.915
36604,1755587464443,27.36,2.69,-109.61,775,771,766,817,845,33.333333333333336,-0.301,0.313,0.91
36633,1755587464473,27.3,2.72,-109.76,770,769,769,817,839,34.48275862068966,-0.301,0.312,0.908
36663,1755587464502,27.3,2.73,-109.92,769,773,769,817,840,33.333333333333336,-0.303,0.314,0.909
36692,1755587464532,27.3,2.75,-110.06,764,772,775,811,844,34.48275862068966,-0.303,0.314,0.912
36722,1755587464562,27.27,2.77,-110.16,769,781,767,814,839,33.333333333333336,-0.306,0.31,0.911
36752,1755587464592,27.27,2.78,-110.25,772,773,765,813,841,33.333333333333336,-0.308,0.308,0.908
36781,1755587464621,27.25,2.75,-110.31,770,767,765,815,840,34.48275862068966,-0.31,0.311,0.907
36811,1755587464650,27.26,2.66,-110.41,771,767,772,813,839,33.333333333333336,-0.304,0.307,0.911
36840,1755587464680,27.38,2.72,-110.51,765,780,775,815,849,34.48275862068966,-0.304,0.306,0.917
36870,1755587464709,27.4,2.81,-110.59,767,765,770,817,841,33.333333333333336,-0.304,0.31,0.912
36899,1755587464738,27.28,2.7,-110.7,769,772,768,826,868,34.48275862068966,-0.3,0.309,0.903
36928,1755587464768,27.27,2.63,-110.83,769,766,770,807,843,34.48275862068966,-0.3,0.308,0.909
36958,1755587464798,27.33,2.7,-110.94,768,774,774,812,838,33.333333333333336,-0.303,0.311,0.917
36988,1755587464827,27.35,2.75,-111.06,775,776,770,813,843,33.333333333333336,-0.302,0.31,0.913
37017,1755587464857,27.34,2.7,-111.16,769,768,769,814,841,34.48275862068966,-0.302,0.311,0.906
37046,1755587464886,27.28,2.67,-111.27,761,770,770,806,840,34.48275862068966,-0.298,0.308,0.906
37076,1755587464915,27.31,2.63,-111.41,765,775,765,813,838,33.333333333333336,-0.298,0.31,0.908
37105,1755587464945,27.3,2.58,-111.56,769,768,764,812,841,34.48275862068966,-0.3,0.311,0.908
37135,1755587464975,27.21,2.44,-111.67,773,772,771,814,842,33.333333333333336,-0.3,0.305,0.907
37164,1755587465004,27.27,2.46,-111.8,773,773,770,817,834,34.48275862068966,-0.3,0.306,0.911
37194,1755587465034,27.33,2.47,-111.92,769,776,774,813,846,33.333333333333336,-0.303,0.307,0.914
37224,1755587465063,27.31,2.44,-112.02,778,777,769,806,840,33.333333333333336,-0.306,0.301,0.913
37253,1755587465093,27.3,2.51,-112.05,770,778,768,813,838,34.48275862068966,-0.304,0.302,0.912
37283,1755587465122,27.32,2.59,-112.13,775,774,763,816,838,33.333333333333336,-0.302,0.306,0.913
37312,1755587465152,27.16,2.61,-112.16,764,775,772,813,839,34.48275862068966,-0.302,0.306,0.912
37342,1755587465181,26.69,2.8,-111.96,772,776,768,823,835,33.333333333333336,-0.315,0.3,0.919
37371,1755587465211,26.09,3.11,-111.71,762,778,773,816,842,34.48275862068966,-0.3,0.301,0.914
37401,1755587465240,26.26,3.2,-111.9,770,766,768,818,843,33.333333333333336,-0.288,0.309,0.916
37430,1755587465269,26.54,3.2,-112.11,764,764,773,807,840,34.48275862068966,-0.286,0.318,0.919
37459,1755587465299,26.44,3.38,-112.23,767,768,772,818,837,34.48275862068966,-0.277,0.319,0.918
37489,1755587465328,26.58,3.45,-112.6,768,767,771,816,847,33.333333333333336,-0.263,0.32,0.917
37518,1755587465358,27.18,3.34,-113.09,770,774,773,818,841,34.48275862068966,-0.277,0.325,0.914
37548,1755587465387,26.94,3.29,-113.13,774,771,767,816,843,33.333333333333336,-0.286,0.321,0.905
37577,1755587465417,26.74,3.21,-113.28,768,772,767,811,844,34.48275862068966,-0.291,0.321,0.91
37606,1755587465447,26.89,3.23,-113.43,768,772,763,814,843,34.48275862068966,-0.299,0.323,0.917
37636,1755587465476,26.79,3.23,-113.47,768,778,763,809,840,33.333333333333336,-0.301,0.324,0.91
37666,1755587465506,26.72,3.14,-113.54,766,774,772,814,832,33.333333333333336,-0.3,0.319,0.907
37695,1755587465535,26.71,3.15,-113.55,768,770,765,819,845,34.48275862068966,-0.295,0.32,0.911
37725,1755587465564,26.61,3.1,-113.63,768,772,765,815,846,33.333333333333336,-0.287,0.322,0.914
37754,1755587465594,26.6,3.07,-113.78,771,775,766,816,833,34.48275862068966,-0.287,0.325,0.916
37784,1755587465623,26.55,3.09,-113.88,766,778,765,808,840,33.333333333333336,-0.286,0.322,0.914
37813,1755587465653,26.51,3.09,-113.96,767,773,764,813,843,34.48275862068966,-0.286,0.322,0.915
37843,1755587465683,26.58,3.12,-114.06,771,774,769,817,842,33.333333333333336,-0.288,0.325,0.915
37872,1755587465712,26.51,3.09,-114.11,769,777,760,819,840,34.48275862068966,-0.289,0.324,0.91
37902,1755587465741,26.44,3.02,-114.21,766,773,767,821,844,33.333333333333336,-0.285,0.322,0.909
37931,1755587465771,26.54,3.01,-114.34,769,777,765,812,841,34.48275862068966,-0.288,0.324,0.913
37961,1755587465800,26.48,2.99,-114.43,776,770,779,812,839,33.333333333333336,-0.288,0.327,0.908
37990,1755587465830,26.27,2.74,-114.53,769,772,770,813,843,34.48275862068966,-0.283,0.32,0.903
38020,1755587465859,26.28,2.65,-114.65,767,770,771,818,840,33.333333333333336,-0.284,0.317,0.912
38049,1755587465889,26.27,2.66,-114.72,774,771,769,813,842,34.48275862068966,-0.286,0.31,0.919
38079,1755587465918,26.17,2.68,-114.77,765,776,771,811,835,33.333333333333336,-0.285,0.307,0.923
38108,1755587465948,26.21,2.79,-114.84,768,767,768,809,835,34.48275862068966,-0.284,0.307,0.927
38138,1755587465977,26.14,2.88,-114.88,770,778,768,813,841,33.333333333333336,-0.283,0.312,0.918
38167,1755587466007,25.96,2.81,-114.95,773,770,768,812,837,34.48275862068966,-0.273,0.315,0.905
38197,1755587466036,26.01,2.58,-115.15,768,770,768,810,839,33.333333333333336,-0.273,0.316,0.908
38226,1755587466066,25.93,2.61,-115.26,767,770,772,819,843,34.48275862068966,-0.271,0.319,0.917
38256,1755587466096,25.94,2.55,-115.43,777,770,770,816,840,33.333333333333336,-0.274,0.32,0.918
38285,1755587466125,26.04,2.46,-115.65,764,771,777,817,843,34.48275862068966,-0.274,0.317,0.914
38315,1755587466154,26.27,2.43,-115.91,768,776,773,815,834,33.333333333333336,-0.272,0.314,0.914
38344,1755587466184,26.38,2.39,-115.99,771,777,773,814,852,34.48275862068966,-0.289,0.314,0.92
38374,1755587466213,26.26,2.39,-116.04,769,775,759,813,842,33.333333333333336,-0.277,0.312,0.911
38403,1755587466243,26.4,2.27,-116.21,774,777,762,819,842,34.48275862068966,-0.279,0.311,0.917
38433,1755587466272,26.42,2.31,-116.28,765,778,773,812,842,33.333333333333336,-0.283,0.309,0.925
38462,1755587466302,26.36,2.36,-116.38,769,777,775,813,834,34.48275862068966,-0.28,0.308,0.921
38492,1755587466331,26.41,2.34,-116.52,767,775,770,816,832,33.333333333333336,-0.278,0.307,0.92
38521,1755587466361,26.39,2.38,-116.62,768,775,765,813,836,34.48275862068966,-0.282,0.31,0.921
38551,1755587466390,26.33,2.45,-116.73,762,781,772,814,832,33.333333333333336,-0.281,0.313,0.916
38580,1755587466420,26.41,2.39,-116.86,774,764,770,814,841,34.48275862068966,-0.284,0.31,0.918
38609,1755587466449,26.4,2.42,-116.92,775,772,769,817,832,34.48275862068966,-0.287,0.31,0.918
38639,1755587466479,26.36,2.47,-117.0,774,775,775,816,843,33.333333333333336,-0.286,0.311,0.916
38669,1755587466509,26.43,2.43,-117.09,769,770,766,808,829,33.333333333333336,-0.284,0.312,0.917
38698,1755587466538,26.38,2.47,-117.18,770,776,766,813,836,34.48275862068966,-0.283,0.312,0.917
38728,1755587466568,26.34,2.43,-117.28,770,778,777,821,843,33.333333333333336,-0.279,0.311,0.912
38758,1755587466597,26.35,2.39,-117.4,770,770,775,812,841,33.333333333333336,-0.282,0.314,0.914
38787,1755587466626,26.27,2.4,-117.5,766,774,771,814,839,34.48275862068966,-0.283,0.31,0.917
38816,1755587466656,26.28,2.46,-117.58,767,776,767,814,838,34.48275862068966,-0.284,0.307,0.921
38846,1755587466685,26.32,2.53,-117.67,773,789,772,816,847,33.333333333333336,-0.286,0.31,0.92
38875,1755587466715,26.18,2.58,-117.7,769,770,770,816,845,34.48275862068966,-0.287,0.311,0.915
38905,1755587466744,26.05,2.43,-117.76,773,765,767,808,843,33.333333333333336,-0.281,0.31,0.905
38934,1755587466773,25.96,2.39,-117.82,766,773,767,809,852,34.48275862068966,-0.278,0.308,0.915
38963,1755587466803,26.02,2.52,-117.94,766,776,769,815,842,34.48275862068966,-0.277,0.314,0.927
38992,1755587466832,26.11,2.71,-118.07,769,773,769,818,837,34.48275862068966,-0.28,0.314,0.926
39022,1755587466862,26.05,2.77,-118.14,759,782,772,818,846,33.333333333333336,-0.28,0.311,0.916
39052,1755587466892,25.93,2.65,-118.19,770,772,761,816,839,33.333333333333336,-0.276,0.307,0.915
39081,1755587466921,25.9,2.61,-118.28,762,782,772,815,839,34.48275862068966,-0.275,0.314,0.919
39111,1755587466951,25.89,3.07,-118.4,770,772,762,813,830,33.333333333333336,-0.274,0.315,0.92
39141,1755587466980,25.91,2.99,-118.54,763,773,770,820,843,33.333333333333336,-0.275,0.312,0.918
39170,1755587467009,25.9,3.12,-118.6,772,776,762,818,844,34.48275862068966,-0.277,0.316,0.921
39199,1755587467039,25.89,3.11,-118.7,772,773,769,815,838,34.48275862068966,-0.274,0.319,0.915
39229,1755587467069,25.86,2.97,-118.85,763,771,764,817,840,33.333333333333336,-0.272,0.321,0.908
39258,1755587467098,25.77,2.94,-118.93,765,774,770,821,837,34.48275862068966,-0.27,0.315,0.916
39288,1755587467128,25.77,2.96,-119.05,772,764,769,816,847,33.333333333333336,-0.27,0.313,0.924
39318,1755587467157,25.81,3.09,-119.17,780,776,767,809,837,33.333333333333336,-0.273,0.316,0.923
39347,1755587467186,25.84,3.03,-119.3,774,769,771,810,840,34.48275862068966,-0.274,0.311,0.915
39376,1755587467216,25.82,2.94,-119.4,767,769,770,817,840,34.48275862068966,-0.275,0.312,0.913
39406,1755587467245,25.82,2.95,-119.48,770,770,768,813,832,33.333333333333336,-0.274,0.316,0.916
39435,1755587467275,25.81,2.95,-119.59,772,772,770,810,838,34.48275862068966,-0.272,0.317,0.917
39465,1755587467304,25.8,2.89,-119.72,779,768,761,811,871,33.333333333333336,-0.272,0.317,0.917
39494,1755587467334,25.74,2.86,-119.85,770,779,768,811,844,34.48275862068966,-0.269,0.318,0.918
39523,1755587467363,25.66,2.83,-119.94,771,773,766,810,835,34.48275862068966,-0.27,0.314,0.92
39553,1755587467392,25.67,2.83,-120.08,771,770,770,825,846,33.333333333333336,-0.27,0.312,0.922
39582,1755587467422,25.73,2.95,-120.23,764,769,770,819,837,34.48275862068966,-0.272,0.317,0.924
39611,1755587467452,25.72,2.95,-120.37,768,776,786,812,844,34.48275862068966,-0.273,0.315,0.918
39632,1755587467471,25.6,3.0,-120.46,769,771,759,812,848,47.61904761904762,-0.27,0.312,0.913
39661,1755587467501,25.62,2.92,-120.6,769,775,773,815,837,34.48275862068966,-0.268,0.312,0.916
39691,1755587467531,25.59,2.96,-120.71,760,764,762,825,843,33.333333333333336,-0.269,0.315,0.92
39721,1755587467560,25.62,3.01,-120.85,770,770,765,816,839,33.333333333333336,-0.27,0.315,0.921
39750,1755587467590,25.66,2.98,-120.97,769,774,765,813,847,34.48275862068966,-0.268,0.316,0.916
39780,1755587467619,25.65,3.01,-121.09,763,771,772,815,846,33.333333333333336,-0.269,0.319,0.917
39809,1755587467649,25.59,2.95,-121.2,769,778,770,814,863,34.48275862068966,-0.268,0.314,0.916
39839,1755587467678,25.54,2.92,-121.3,769,777,766,814,838,33.333333333333336,-0.271,0.314,0.918
39868,1755587467708,25.6,2.93,-121.44,769,774,763,812,842,34.48275862068966,-0.272,0.315,0.923
39898,1755587467737,25.6,2.96,-121.52,769,771,762,817,843,33.333333333333336,-0.272,0.311,0.923
39927,1755587467767,25.6,2.96,-121.58,774,772,773,810,841,34.48275862068966,-0.272,0.315,0.92
39957,1755587467796,25.59,2.92,-121.71,768,781,769,811,844,33.333333333333336,-0.264,0.315,0.918
39986,1755587467826,25.61,2.93,-121.85,768,762,775,822,836,34.48275862068966,-0.266,0.317,0.92
40016,1755587467855,25.56,2.95,-121.94,771,769,769,819,844,33.333333333333336,-0.267,0.317,0.915
