timestamp_ms,recv_timestamp_ms,pitch,roll,yaw,flex1,flex2,flex3,flex4,flex5,sampling_hz,accel_x,accel_y,accel_z
18269,1755587365246,48.27,-79.48,-36.35,781,779,767,823,848,33.333333333333336,-0.762,-0.65,0.06
18298,1755587365275,48.2,-79.35,-36.27,780,773,760,822,838,34.48275862068966,-0.764,-0.65,0.06
18328,1755587365304,48.24,-79.39,-36.21,781,772,769,825,846,33.333333333333336,-0.761,-0.647,0.056
18357,1755587365334,48.37,-79.45,-36.17,778,775,773,808,858,34.48275862068966,-0.762,-0.65,0.057
18387,1755587365363,48.36,-79.41,-36.07,779,784,775,819,850,33.333333333333336,-0.761,-0.649,0.057
18416,1755587365393,48.4,-79.55,-36.06,780,774,766,828,852,34.48275862068966,-0.758,-0.645,0.057
18446,1755587365422,48.48,-79.64,-36.07,779,765,771,819,854,33.333333333333336,-0.76,-0.645,0.061
18475,1755587365452,48.53,-79.6,-36.01,779,771,767,820,844,34.48275862068966,-0.761,-0.645,0.064
18505,1755587365481,48.61,-79.56,-35.96,787,775,773,817,846,33.333333333333336,-0.762,-0.643,0.063
18534,1755587365511,48.67,-79.68,-35.96,776,780,764,822,840,34.48275862068966,-0.762,-0.643,0.06
18564,1755587365540,48.71,-79.8,-35.97,784,782,777,826,846,33.333333333333336,-0.762,-0.641,0.063
18593,1755587365570,48.65,-79.72,-35.96,788,768,766,827,839,34.48275862068966,-0.762,-0.641,0.063
18623,1755587365599,48.66,-79.83,-35.96,783,772,772,819,872,33.333333333333336,-0.763,-0.641,0.058
18652,1755587365629,48.64,-80.07,-35.97,785,774,766,826,850,34.48275862068966,-0.762,-0.642,0.058
18682,1755587365658,48.67,-80.22,-35.97,782,768,770,820,851,33.333333333333336,-0.762,-0.642,0.066
18711,1755587365688,48.66,-80.22,-35.99,781,777,776,816,842,34.48275862068966,-0.762,-0.641,0.073
18741,1755587365718,48.67,-80.22,-35.99,781,778,774,819,843,33.333333333333336,-0.761,-0.64,0.073
18771,1755587365747,48.68,-80.25,-35.99,777,773,769,824,843,33.333333333333336,-0.762,-0.639,0.071
18800,1755587365777,48.66,-80.28,-35.98,775,777,758,825,853,34.48275862068966,-0.765,-0.638,0.066
18830,1755587365807,48.66,-80.33,-36.02,782,771,762,822,851,33.333333333333336,-0.766,-0.639,0.062
18860,1755587365836,48.65,-80.39,-36.05,785,785,766,821,853,33.333333333333336,-0.765,-0.641,0.059
18889,1755587365866,48.63,-80.48,-36.05,784,775,774,821,848,34.48275862068966,-0.766,-0.644,0.061
18919,1755587365895,48.71,-80.48,-36.02,779,772,766,823,847,33.333333333333336,-0.768,-0.645,0.068
18948,1755587365925,48.76,-80.49,-35.97,785,771,765,823,852,34.48275862068966,-0.764,-0.642,0.073
18978,1755587365955,48.86,-80.53,-35.97,779,769,778,814,852,33.333333333333336,-0.765,-0.643,0.077
19007,1755587365984,48.81,-80.45,-35.95,775,775,779,833,846,34.48275862068966,-0.765,-0.644,0.072
19037,1755587366014,48.81,-80.55,-35.92,787,778,773,821,853,33.333333333333336,-0.765,-0.639,0.069
19067,1755587366044,48.87,-80.69,-35.91,783,774,773,826,838,33.333333333333336,-0.769,-0.639,0.069
19097,1755587366074,48.8,-80.76,-35.88,779,777,770,826,855,33.333333333333336,-0.766,-0.639,0.067
19126,1755587366103,48.77,-80.78,-35.86,777,772,776,822,845,34.48275862068966,-0.765,-0.638,0.071
19156,1755587366133,48.84,-80.76,-35.86,781,777,767,819,856,33.333333333333336,-0.765,-0.639,0.075
19186,1755587366163,48.84,-80.87,-35.86,780,776,769,819,857,33.333333333333336,-0.768,-0.64,0.074
19216,1755587366193,48.91,-80.89,-35.85,786,774,773,820,849,33.333333333333336,-0.765,-0.64,0.075
19246,1755587366223,48.99,-80.88,-35.84,778,774,775,818,848,33.333333333333336,-0.763,-0.638,0.076
19275,1755587366252,49.01,-81.0,-35.89,783,776,773,824,857,34.48275862068966,-0.764,-0.638,0.075
19305,1755587366282,49.06,-81.1,-35.91,778,770,769,826,848,33.333333333333336,-0.767,-0.641,0.074
19335,1755587366311,49.07,-81.08,-35.9,787,776,775,822,858,33.333333333333336,-0.766,-0.64,0.072
19364,1755587366341,49.09,-81.19,-35.9,770,775,775,824,856,34.48275862068966,-0.765,-0.638,0.072
19394,1755587366371,49.16,-81.23,-35.9,777,766,766,821,844,33.333333333333336,-0.765,-0.64,0.074
19424,1755587366400,49.12,-81.18,-35.9,788,776,768,821,854,33.333333333333336,-0.763,-0.639,0.072
19453,1755587366430,49.13,-81.24,-35.9,780,773,772,820,837,34.48275862068966,-0.764,-0.639,0.072
19483,1755587366460,49.16,-81.34,-35.89,784,772,785,814,844,33.333333333333336,-0.766,-0.64,0.072
19512,1755587366489,49.2,-81.37,-35.85,784,767,777,820,848,34.48275862068966,-0.767,-0.641,0.073
19542,1755587366519,49.27,-81.35,-35.81,785,770,766,822,855,33.333333333333336,-0.764,-0.64,0.074
19572,1755587366548,49.25,-81.33,-35.81,779,777,772,814,853,33.333333333333336,-0.764,-0.638,0.074
19601,1755587366578,49.27,-81.35,-35.84,781,772,772,816,838,34.48275862068966,-0.764,-0.64,0.074
19631,1755587366608,49.29,-81.31,-35.83,781,774,775,823,837,33.333333333333336,-0.765,-0.639,0.074
19660,1755587366637,49.3,-81.35,-35.81,775,773,777,839,854,34.48275862068966,-0.766,-0.636,0.073
19690,1755587366667,49.37,-81.41,-35.8,786,771,770,817,849,33.333333333333336,-0.767,-0.64,0.078
19719,1755587366696,49.35,-81.33,-35.76,787,768,777,810,852,34.48275862068966,-0.765,-0.641,0.078
19749,1755587366726,49.4,-81.28,-35.74,782,767,764,823,850,33.333333333333336,-0.764,-0.639,0.076
19779,1755587366755,49.48,-81.34,-35.74,774,773,771,819,852,33.333333333333336,-0.766,-0.638,0.076
19808,1755587366785,49.49,-81.29,-35.72,784,769,776,820,852,34.48275862068966,-0.768,-0.636,0.075
19838,1755587366814,49.5,-81.32,-35.73,785,778,771,816,847,33.333333333333336,-0.767,-0.636,0.072
19867,1755587366844,49.59,-81.38,-35.74,785,769,766,824,848,34.48275862068966,-0.768,-0.638,0.074
19897,1755587366874,49.52,-81.41,-35.74,784,762,766,817,848,33.333333333333336,-0.765,-0.639,0.073
19926,1755587366903,49.5,-81.51,-35.76,778,774,771,830,849,34.48275862068966,-0.764,-0.638,0.074
19956,1755587366933,49.47,-81.52,-35.77,783,781,773,822,854,33.333333333333336,-0.764,-0.637,0.077
19986,1755587366962,49.55,-81.53,-35.76,780,769,770,823,850,33.333333333333336,-0.768,-0.636,0.08
20015,1755587366992,49.56,-81.46,-35.74,779,779,774,822,853,34.48275862068966,-0.769,-0.637,0.08
20045,1755587367021,49.7,-81.45,-35.71,789,774,767,821,847,33.333333333333336,-0.768,-0.637,0.079
20074,1755587367051,49.77,-81.48,-35.68,785,775,772,823,854,34.48275862068966,-0.767,-0.637,0.078
20104,1755587367081,49.81,-81.47,-35.66,784,768,772,808,842,33.333333333333336,-0.766,-0.637,0.077
20133,1755587367110,49.8,-81.41,-35.62,783,766,771,819,871,34.48275862068966,-0.765,-0.636,0.072
20163,1755587367140,49.85,-81.49,-35.63,777,775,763,814,850,33.333333333333336,-0.766,-0.638,0.074
20192,1755587367169,49.9,-81.35,-35.58,781,776,768,824,847,34.48275862068966,-0.769,-0.638,0.075
20222,1755587367199,49.92,-81.27,-35.52,786,776,767,819,848,33.333333333333336,-0.769,-0.637,0.071
20242,1755587367219,49.96,-81.34,-35.49,782,777,771,822,835,50.0,-0.768,-0.635,0.068
20271,1755587367248,50.0,-81.42,-35.46,780,779,773,823,853,34.48275862068966,-0.769,-0.635,0.071
20301,1755587367278,50.0,-81.33,-35.43,784,762,764,821,857,33.333333333333336,-0.77,-0.633,0.074
20331,1755587367308,50.03,-81.32,-35.41,784,773,768,813,833,33.333333333333336,-0.769,-0.632,0.075
20351,1755587367328,50.04,-81.38,-35.41,784,771,772,820,870,50.0,-0.77,-0.633,0.075
20381,1755587367358,50.08,-81.35,-35.38,776,776,770,825,851,33.333333333333336,-0.773,-0.635,0.077
20410,1755587367387,50.14,-81.3,-35.33,782,778,768,825,855,34.48275862068966,-0.771,-0.632,0.078
20440,1755587367417,50.16,-81.35,-35.34,785,772,774,815,856,33.333333333333336,-0.77,-0.629,0.077
20470,1755587367446,50.13,-81.42,-35.33,786,780,766,822,853,33.333333333333336,-0.771,-0.629,0.073
20499,1755587367476,50.13,-81.5,-35.32,782,774,770,828,832,34.48275862068966,-0.772,-0.631,0.078
20529,1755587367505,50.12,-81.48,-35.31,782,779,770,820,852,33.333333333333336,-0.773,-0.633,0.08
20558,1755587367535,50.15,-81.48,-35.28,778,776,769,819,842,34.48275862068966,-0.772,-0.631,0.08
20588,1755587367564,50.1,-81.55,-35.26,783,773,768,815,845,33.333333333333336,-0.771,-0.631,0.083
20617,1755587367594,50.06,-81.52,-35.25,782,781,768,826,855,34.48275862068966,-0.769,-0.631,0.08
20647,1755587367624,50.01,-81.51,-35.28,776,768,776,818,845,33.333333333333336,-0.77,-0.627,0.079
20676,1755587367653,49.98,-81.68,-35.33,780,768,773,825,851,34.48275862068966,-0.77,-0.628,0.074
20706,1755587367683,50.05,-81.81,-35.36,780,775,771,819,848,33.333333333333336,-0.775,-0.633,0.078
20735,1755587367713,50.01,-81.76,-35.33,779,782,766,826,848,34.48275862068966,-0.777,-0.632,0.079
20765,1755587367743,50.08,-81.83,-35.31,778,770,767,825,852,33.333333333333336,-0.773,-0.63,0.08
20785,1755587367762,50.12,-81.89,-35.31,784,779,771,824,837,50.0,-0.769,-0.629,0.083
20815,1755587367792,50.16,-81.84,-35.31,779,781,772,819,856,33.333333333333336,-0.772,-0.632,0.082
20844,1755587367822,50.18,-81.75,-35.27,783,779,764,815,853,34.48275862068966,-0.776,-0.634,0.078
20874,1755587367851,50.19,-81.79,-35.23,787,768,765,817,841,33.333333333333336,-0.774,-0.63,0.078
20904,1755587367881,50.24,-81.79,-35.21,782,775,764,834,842,33.333333333333336,-0.775,-0.627,0.078
20934,1755587367911,50.2,-81.76,-35.21,779,779,770,819,845,33.333333333333336,-0.775,-0.628,0.076
20963,1755587367940,50.29,-81.86,-35.22,785,772,771,817,855,34.48275862068966,-0.775,-0.63,0.076
20993,1755587367970,50.34,-81.88,-35.19,783,778,768,833,853,33.333333333333336,-0.775,-0.631,0.077
21023,1755587368000,50.41,-81.85,-35.13,781,776,777,815,841,33.333333333333336,-0.777,-0.63,0.08
21052,1755587368029,50.41,-81.8,-35.11,773,777,777,823,845,34.48275862068966,-0.774,-0.628,0.082
21082,1755587368059,50.43,-81.73,-35.08,784,780,765,820,853,33.333333333333336,-0.774,-0.628,0.079
21111,1755587368088,50.38,-81.78,-35.09,782,770,771,822,849,34.48275862068966,-0.773,-0.629,0.079
21141,1755587368118,50.31,-81.76,-35.09,780,774,774,822,848,33.333333333333336,-0.774,-0.629,0.083
21170,1755587368147,50.25,-81.74,-35.09,782,770,771,821,840,34.48275862068966,-0.775,-0.628,0.082
21200,1755587368177,50.16,-81.89,-35.13,783,774,762,816,852,33.333333333333336,-0.771,-0.626,0.077
21229,1755587368206,50.13,-82.05,-35.18,782,776,773,821,845,34.48275862068966,-0.771,-0.626,0.077
21259,1755587368236,50.16,-82.0,-35.21,776,777,774,836,859,33.333333333333336,-0.773,-0.63,0.077
21288,1755587368265,50.31,-81.87,-35.17,798,774,771,826,850,34.48275862068966,-0.776,-0.629,0.083
21318,1755587368295,50.27,-81.99,-35.18,783,779,765,824,846,33.333333333333336,-0.773,-0.627,0.079
21348,1755587368324,50.35,-82.08,-35.18,783,773,776,820,864,33.333333333333336,-0.774,-0.628,0.077
21377,1755587368354,50.3,-82.07,-35.15,778,777,771,821,843,34.48275862068966,-0.771,-0.626,0.072
21407,1755587368384,50.3,-82.24,-35.18,788,775,770,829,868,33.333333333333336,-0.772,-0.624,0.068
21437,1755587368413,50.2,-82.38,-35.22,788,777,768,820,841,33.333333333333336,-0.775,-0.627,0.07
21466,1755587368443,50.21,-82.38,-35.21,782,774,772,820,851,34.48275862068966,-0.777,-0.63,0.075
21496,1755587368473,50.22,-82.38,-35.2,780,780,773,826,843,33.333333333333336,-0.774,-0.63,0.079
21525,1755587368502,50.21,-82.4,-35.2,779,776,771,820,866,34.48275862068966,-0.773,-0.632,0.079
21555,1755587368532,50.2,-82.36,-35.21,781,778,771,818,856,33.333333333333336,-0.772,-0.632,0.076
21585,1755587368561,50.24,-82.38,-35.22,784,770,772,840,857,33.333333333333336,-0.772,-0.629,0.076
21614,1755587368591,50.28,-82.44,-35.25,781,776,766,817,847,34.48275862068966,-0.774,-0.629,0.078
21644,1755587368620,50.25,-82.42,-35.26,780,766,773,807,855,33.333333333333336,-0.771,-0.632,0.078
21673,1755587368650,50.29,-82.33,-35.26,773,767,772,828,852,34.48275862068966,-0.773,-0.633,0.078
21703,1755587368680,50.29,-82.34,-35.25,778,775,767,825,873,33.333333333333336,-0.772,-0.631,0.079
21732,1755587368709,50.26,-82.37,-35.25,768,780,762,820,854,34.48275862068966,-0.772,-0.629,0.078
21762,1755587368739,50.28,-82.38,-35.29,781,768,773,824,857,33.333333333333336,-0.775,-0.628,0.082
21791,1755587368768,50.23,-82.34,-35.31,780,778,771,824,853,34.48275862068966,-0.774,-0.63,0.082
21821,1755587368798,50.19,-82.34,-35.26,777,773,761,816,851,33.333333333333336,-0.776,-0.632,0.08
21850,1755587368827,50.14,-82.44,-35.24,778,774,766,826,857,34.48275862068966,-0.773,-0.63,0.079
21880,1755587368857,50.12,-82.44,-35.23,789,770,764,832,840,33.333333333333336,-0.771,-0.629,0.08
21909,1755587368886,50.07,-82.41,-35.23,779,775,767,819,855,34.48275862068966,-0.771,-0.628,0.081
21939,1755587368916,50.06,-82.41,-35.23,777,779,770,825,844,33.333333333333336,-0.774,-0.631,0.081
21969,1755587368945,50.1,-82.47,-35.22,777,776,773,818,851,33.333333333333336,-0.772,-0.631,0.08
21998,1755587368975,50.07,-82.47,-35.21,779,780,772,822,856,34.48275862068966,-0.771,-0.63,0.081
22028,1755587369005,49.98,-82.49,-35.24,783,779,766,824,855,33.333333333333336,-0.769,-0.63,0.08
22057,1755587369034,50.03,-82.52,-35.23,787,777,773,822,850,34.48275862068966,-0.77,-0.629,0.082
22087,1755587369064,50.04,-82.54,-35.22,774,778,774,825,837,33.333333333333336,-0.773,-0.628,0.084
22116,1755587369093,50.05,-82.51,-35.23,780,769,778,825,846,34.48275862068966,-0.773,-0.628,0.085
22146,1755587369123,50.07,-82.48,-35.26,775,771,770,814,860,33.333333333333336,-0.773,-0.629,0.086
22175,1755587369152,50.07,-82.44,-35.28,777,774,772,822,847,34.48275862068966,-0.77,-0.627,0.084
22205,1755587369181,50.16,-82.45,-35.34,786,771,773,825,852,33.333333333333336,-0.772,-0.631,0.085
22234,1755587369211,50.17,-82.4,-35.34,782,772,766,824,850,34.48275862068966,-0.773,-0.631,0.082
22264,1755587369241,50.19,-82.48,-35.32,781,789,770,815,847,33.333333333333336,-0.77,-0.629,0.081
22294,1755587369271,50.16,-82.4,-35.34,779,780,769,823,855,33.333333333333336,-0.77,-0.629,0.081
22323,1755587369300,50.05,-82.36,-35.36,781,773,772,816,850,34.48275862068966,-0.769,-0.631,0.08
22353,1755587369330,49.99,-82.31,-35.38,779,772,767,818,851,33.333333333333336,-0.77,-0.631,0.083
22383,1755587369360,49.91,-82.22,-35.38,785,769,768,820,845,33.333333333333336,-0.773,-0.631,0.087
22412,1755587369389,49.83,-82.18,-35.36,779,762,771,829,854,34.48275862068966,-0.771,-0.633,0.087
22442,1755587369419,49.94,-82.24,-35.34,785,778,764,818,856,33.333333333333336,-0.771,-0.632,0.084
22471,1755587369448,49.97,-82.29,-35.34,776,770,767,826,845,34.48275862068966,-0.771,-0.629,0.087
22501,1755587369478,49.9,-82.31,-35.36,781,777,768,824,847,33.333333333333336,-0.768,-0.629,0.088
22531,1755587369508,49.98,-82.33,-35.36,783,773,769,810,856,33.333333333333336,-0.772,-0.631,0.088
22561,1755587369538,49.97,-82.29,-35.33,778,781,774,825,836,33.333333333333336,-0.774,-0.632,0.086
22590,1755587369567,49.91,-82.3,-35.31,783,769,770,821,843,34.48275862068966,-0.769,-0.629,0.088
22620,1755587369596,50.0,-82.28,-35.34,782,769,763,827,857,33.333333333333336,-0.772,-0.633,0.092
22649,1755587369626,50.04,-82.17,-35.33,781,773,768,814,841,34.48275862068966,-0.777,-0.634,0.091
22679,1755587369655,50.07,-82.14,-35.29,775,772,772,824,849,33.333333333333336,-0.772,-0.632,0.089
22708,1755587369685,50.15,-82.2,-35.3,776,777,774,817,847,34.48275862068966,-0.769,-0.63,0.088
22738,1755587369715,50.08,-82.19,-35.32,775,782,771,821,845,33.333333333333336,-0.77,-0.63,0.088
22767,1755587369745,50.11,-82.12,-35.34,781,772,767,826,853,34.48275862068966,-0.771,-0.628,0.09
22787,1755587369764,50.15,-82.1,-35.36,780,775,774,822,834,50.0,-0.771,-0.629,0.092
22817,1755587369794,50.16,-82.07,-35.34,778,782,772,815,849,33.333333333333336,-0.772,-0.634,0.091
22846,1755587369823,50.17,-82.08,-35.31,778,771,772,823,847,34.48275862068966,-0.77,-0.635,0.09
22876,1755587369853,50.19,-82.09,-35.31,784,779,769,820,853,33.333333333333336,-0.764,-0.632,0.091
22905,1755587369882,50.25,-82.0,-35.31,772,773,773,820,847,34.48275862068966,-0.767,-0.631,0.093
22935,1755587369912,50.2,-81.95,-35.3,781,774,770,814,854,33.333333333333336,-0.77,-0.633,0.09
22965,1755587369942,50.25,-81.97,-35.25,787,781,767,821,854,33.333333333333336,-0.772,-0.634,0.088
22994,1755587369971,50.28,-82.03,-35.21,779,782,772,810,852,34.48275862068966,-0.77,-0.632,0.087
23024,1755587370001,50.27,-82.0,-35.2,787,775,766,818,848,33.333333333333336,-0.769,-0.629,0.091
23053,1755587370030,50.21,-81.94,-35.21,780,777,761,812,850,34.48275862068966,-0.771,-0.631,0.091
23083,1755587370060,50.29,-81.94,-35.17,778,775,771,821,844,33.333333333333336,-0.772,-0.632,0.088
23112,1755587370089,50.27,-81.97,-35.13,774,779,773,829,859,34.48275862068966,-0.771,-0.631,0.088
23142,1755587370119,50.24,-81.95,-35.12,779,767,771,817,864,33.333333333333336,-0.769,-0.627,0.087
23172,1755587370149,50.22,-82.0,-35.14,781,770,769,828,852,33.333333333333336,-0.769,-0.627,0.088
23201,1755587370178,50.26,-82.07,-35.12,778,773,766,820,853,34.48275862068966,-0.773,-0.631,0.09
23231,1755587370207,50.24,-82.03,-35.08,792,780,766,826,848,33.333333333333336,-0.771,-0.63,0.09
23260,1755587370237,50.31,-82.05,-35.08,778,777,773,821,843,34.48275862068966,-0.769,-0.627,0.091
23290,1755587370267,50.36,-81.97,-35.09,775,776,767,828,851,33.333333333333336,-0.771,-0.625,0.094
23320,1755587370297,50.29,-81.93,-35.07,776,777,767,810,850,33.333333333333336,-0.774,-0.627,0.09
23350,1755587370327,50.27,-82.01,-35.05,781,784,767,825,851,33.333333333333336,-0.774,-0.628,0.086
23379,1755587370356,50.39,-82.04,-35.05,774,772,767,831,837,34.48275862068966,-0.773,-0.625,0.091
23409,1755587370386,50.41,-81.93,-35.04,785,778,770,811,845,33.333333333333336,-0.776,-0.627,0.094
23438,1755587370415,50.37,-81.91,-35.01,777,776,771,819,846,34.48275862068966,-0.774,-0.628,0.089
23468,1755587370445,50.45,-81.93,-34.99,781,771,770,817,846,33.333333333333336,-0.774,-0.629,0.091
23498,1755587370474,50.43,-81.85,-34.96,781,776,765,816,844,33.333333333333336,-0.773,-0.628,0.09
23527,1755587370504,50.47,-81.93,-34.95,781,776,765,820,843,34.48275862068966,-0.772,-0.624,0.086
23557,1755587370534,50.43,-82.09,-34.97,780,763,757,819,845,33.333333333333336,-0.773,-0.624,0.083
23586,1755587370563,50.47,-82.05,-34.97,771,779,777,816,848,34.48275862068966,-0.775,-0.625,0.087
23616,1755587370593,50.43,-82.05,-34.99,779,775,776,821,850,33.333333333333336,-0.776,-0.624,0.09
23645,1755587370622,50.4,-82.12,-35.0,782,770,770,826,839,34.48275862068966,-0.774,-0.626,0.087
23675,1755587370652,50.47,-82.13,-34.99,782,778,769,822,841,33.333333333333336,-0.776,-0.628,0.087
23704,1755587370681,50.42,-82.06,-34.97,780,773,771,820,843,34.48275862068966,-0.775,-0.627,0.089
23734,1755587370711,50.37,-82.05,-34.98,789,772,770,829,866,33.333333333333336,-0.772,-0.627,0.083
23764,1755587370741,50.4,-82.09,-34.96,781,775,765,818,853,33.333333333333336,-0.775,-0.627,0.082
23794,1755587370771,50.38,-82.17,-34.95,780,769,777,832,854,33.333333333333336,-0.774,-0.626,0.09
23823,1755587370800,50.4,-82.06,-34.96,784,776,767,824,850,34.48275862068966,-0.772,-0.627,0.096
23853,1755587370830,50.48,-81.93,-34.94,785,779,773,819,832,33.333333333333336,-0.775,-0.63,0.092
23882,1755587370859,50.5,-81.92,-34.91,789,778,766,818,849,34.48275862068966,-0.772,-0.627,0.088
23912,1755587370889,50.57,-81.95,-34.9,777,765,770,821,839,33.333333333333336,-0.772,-0.627,0.09
23942,1755587370918,50.59,-81.74,-34.9,778,778,769,826,861,33.333333333333336,-0.774,-0.625,0.09
23971,1755587370948,50.64,-81.56,-34.89,783,781,769,822,848,34.48275862068966,-0.775,-0.622,0.088
24001,1755587370978,50.6,-81.6,-34.9,777,770,765,818,844,33.333333333333336,-0.773,-0.622,0.087
24030,1755587371007,50.63,-81.7,-34.88,782,781,758,820,847,34.48275862068966,-0.776,-0.625,0.083
24060,1755587371037,50.64,-81.71,-34.85,783,766,778,819,846,33.333333333333336,-0.778,-0.624,0.084
24089,1755587371066,50.6,-81.71,-34.86,781,768,771,815,850,34.48275862068966,-0.774,-0.622,0.09
24119,1755587371096,50.61,-81.66,-34.86,784,776,764,821,847,33.333333333333336,-0.776,-0.626,0.091
24149,1755587371125,50.58,-81.7,-34.83,782,782,767,817,850,33.333333333333336,-0.776,-0.627,0.084
24178,1755587371155,50.62,-81.8,-34.82,779,766,761,813,851,34.48275862068966,-0.777,-0.623,0.086
24208,1755587371184,50.58,-81.85,-34.85,783,779,774,818,845,33.333333333333336,-0.776,-0.62,0.089
24237,1755587371214,50.54,-81.81,-34.86,784,773,778,814,848,34.48275862068966,-0.778,-0.623,0.089
24267,1755587371244,50.5,-81.83,-34.85,787,776,774,817,844,33.333333333333336,-0.777,-0.626,0.087
24296,1755587371273,50.56,-81.94,-34.83,777,774,769,816,851,34.48275862068966,-0.774,-0.624,0.09
24326,1755587371303,50.54,-81.99,-34.83,784,770,768,813,856,33.333333333333336,-0.776,-0.625,0.089
24356,1755587371332,50.5,-81.95,-34.84,781,769,772,825,846,33.333333333333336,-0.774,-0.623,0.088
24385,1755587371362,50.49,-82.04,-34.85,779,774,773,818,845,34.48275862068966,-0.777,-0.622,0.087
24415,1755587371392,50.5,-82.11,-34.87,787,769,764,810,851,33.333333333333336,-0.778,-0.626,0.088
24445,1755587371422,50.47,-81.98,-34.84,774,769,777,828,849,33.333333333333336,-0.777,-0.628,0.09
24475,1755587371451,50.38,-81.93,-34.84,771,775,765,813,842,33.333333333333336,-0.773,-0.626,0.09
24504,1755587371481,50.4,-81.99,-34.85,787,780,767,835,856,34.48275862068966,-0.771,-0.626,0.089
24533,1755587371510,50.41,-81.91,-34.85,783,781,764,817,843,34.48275862068966,-0.776,-0.628,0.09
24563,1755587371540,50.34,-81.77,-34.86,780,776,764,819,844,33.333333333333336,-0.776,-0.625,0.091
24592,1755587371569,50.39,-81.86,-34.92,774,777,770,818,852,34.48275862068966,-0.77,-0.625,0.087
24622,1755587371599,50.55,-81.79,-34.99,783,772,755,824,852,33.333333333333336,-0.776,-0.629,0.093
24651,1755587371628,50.24,-81.27,-35.32,778,775,774,820,838,34.48275862068966,-0.77,-0.631,0.105
24681,1755587371658,49.83,-80.92,-35.62,772,780,766,817,847,33.333333333333336,-0.759,-0.617,0.1
24711,1755587371688,49.84,-81.14,-35.92,775,774,765,826,855,33.333333333333336,-0.768,-0.628,0.099
24740,1755587371717,49.93,-81.4,-36.13,777,776,766,825,845,34.48275862068966,-0.774,-0.632,0.099
24770,1755587371747,49.82,-81.47,-36.12,786,769,768,824,849,33.333333333333336,-0.767,-0.632,0.095
24799,1755587371776,49.97,-81.48,-36.11,779,772,769,824,853,34.48275862068966,-0.768,-0.635,0.099
24829,1755587371806,49.92,-81.5,-36.11,781,781,763,830,874,33.333333333333336,-0.764,-0.634,0.102
24859,1755587371836,49.97,-81.61,-36.18,779,774,766,814,843,33.333333333333336,-0.762,-0.634,0.104
24888,1755587371865,49.91,-81.66,-36.22,778,777,773,828,847,34.48275862068966,-0.762,-0.639,0.101
24918,1755587371895,49.88,-81.63,-36.2,778,773,772,816,847,33.333333333333336,-0.764,-0.641,0.103
24947,1755587371924,49.86,-81.65,-36.21,790,779,770,827,856,34.48275862068966,-0.761,-0.639,0.104
24977,1755587371954,49.89,-81.66,-36.24,784,776,763,819,849,33.333333333333336,-0.762,-0.642,0.102
25007,1755587371984,49.87,-81.65,-36.25,779,774,773,826,842,33.333333333333336,-0.76,-0.642,0.102
25037,1755587372013,49.8,-81.75,-36.28,782,774,764,826,846,33.333333333333336,-0.757,-0.641,0.102
25066,1755587372043,49.79,-81.76,-36.38,782,770,766,820,845,34.48275862068966,-0.756,-0.646,0.103
25096,1755587372072,49.77,-81.6,-36.5,783,780,767,814,848,33.333333333333336,-0.756,-0.643,0.102
25125,1755587372102,49.75,-81.67,-36.53,778,776,765,823,851,34.48275862068966,-0.756,-0.644,0.1
25155,1755587372132,49.75,-81.79,-36.57,783,772,772,816,855,33.333333333333336,-0.758,-0.647,0.101
25184,1755587372161,49.67,-81.7,-36.54,784,776,769,828,844,34.48275862068966,-0.756,-0.646,0.101
25214,1755587372191,49.65,-81.71,-36.56,781,770,770,813,851,33.333333333333336,-0.754,-0.645,0.099
25244,1755587372220,49.79,-81.81,-36.56,770,775,764,823,844,33.333333333333336,-0.755,-0.648,0.099
25273,1755587372250,49.8,-81.79,-36.55,782,767,771,820,848,34.48275862068966,-0.757,-0.648,0.102
25303,1755587372280,49.68,-81.75,-36.55,778,764,768,833,838,33.333333333333336,-0.753,-0.645,0.097
25332,1755587372309,49.72,-81.88,-36.58,785,772,774,817,851,34.48275862068966,-0.754,-0.646,0.095
25362,1755587372339,49.72,-81.96,-36.59,780,776,773,826,844,33.333333333333336,-0.754,-0.649,0.098
25391,1755587372369,49.74,-81.84,-36.57,777,770,772,824,855,34.48275862068966,-0.754,-0.651,0.099
25421,1755587372398,49.69,-81.82,-36.53,778,779,768,821,848,33.333333333333336,-0.752,-0.649,0.093
25451,1755587372428,49.77,-82.0,-36.55,777,769,769,823,843,33.333333333333336,-0.751,-0.647,0.092
25481,1755587372458,49.78,-82.02,-36.58,779,771,758,828,851,33.333333333333336,-0.756,-0.649,0.097
25510,1755587372487,49.62,-81.88,-36.56,781,771,769,814,840,34.48275862068966,-0.753,-0.648,0.093
25540,1755587372517,49.73,-82.04,-36.59,777,770,766,816,849,33.333333333333336,-0.754,-0.652,0.095
25569,1755587372546,49.83,-82.09,-36.57,781,791,774,819,845,34.48275862068966,-0.757,-0.655,0.098
25599,1755587372576,49.76,-81.92,-36.53,781,767,772,818,842,33.333333333333336,-0.753,-0.652,0.096
25629,1755587372606,49.83,-81.93,-36.55,780,774,761,815,848,33.333333333333336,-0.752,-0.65,0.09
25659,1755587372635,49.83,-82.01,-36.55,782,769,765,814,850,33.333333333333336,-0.755,-0.65,0.089
25688,1755587372665,49.67,-82.06,-36.54,779,775,772,820,836,34.48275862068966,-0.754,-0.651,0.089
25717,1755587372694,49.67,-81.99,-36.52,785,772,767,830,841,34.48275862068966,-0.755,-0.651,0.089
25747,1755587372725,49.67,-82.02,-36.5,780,771,761,827,846,33.333333333333336,-0.755,-0.651,0.089
25767,1755587372744,49.66,-82.06,-36.5,781,768,772,824,850,50.0,-0.754,-0.649,0.089
25797,1755587372774,49.69,-82.15,-36.49,779,774,781,818,837,33.333333333333336,-0.753,-0.649,0.09
25827,1755587372804,49.63,-82.09,-36.46,782,787,775,814,839,33.333333333333336,-0.753,-0.651,0.09
25856,1755587372833,49.61,-82.12,-36.44,779,767,768,818,843,34.48275862068966,-0.754,-0.653,0.088
25886,1755587372863,49.63,-82.24,-36.37,779,776,770,821,857,33.333333333333336,-0.757,-0.652,0.088
25915,1755587372892,49.61,-82.35,-36.31,781,784,769,814,849,34.48275862068966,-0.752,-0.65,0.089
25945,1755587372922,49.65,-82.34,-36.29,782,784,767,813,842,33.333333333333336,-0.753,-0.649,0.091
25974,1755587372952,49.58,-82.28,-35.84,777,769,769,826,847,34.48275862068966,-0.754,-0.648,0.09
26004,1755587372981,49.68,-82.3,-35.85,781,777,770,815,848,33.333333333333336,-0.755,-0.649,0.089
26034,1755587373011,49.66,-82.26,-35.82,776,772,777,821,844,33.333333333333336,-0.756,-0.649,0.088
26064,1755587373040,49.67,-82.35,-35.81,771,777,771,812,851,33.333333333333336,-0.753,-0.649,0.086
26093,1755587373070,49.71,-82.3,-35.78,779,773,773,817,844,34.48275862068966,-0.755,-0.647,0.088
26123,1755587373100,49.66,-82.36,-35.75,789,776,762,815,847,33.333333333333336,-0.757,-0.646,0.086
26153,1755587373130,49.66,-82.42,-35.74,787,775,771,820,845,33.333333333333336,-0.756,-0.647,0.084
26182,1755587373159,49.75,-82.42,-35.75,781,766,762,824,845,34.48275862068966,-0.756,-0.649,0.085
26212,1755587373189,49.76,-82.35,-35.72,773,775,770,814,841,33.333333333333336,-0.756,-0.647,0.087
26241,1755587373218,49.83,-82.32,-35.71,781,772,765,817,852,34.48275862068966,-0.758,-0.649,0.087
26271,1755587373248,49.79,-82.34,-35.68,769,768,774,824,853,33.333333333333336,-0.756,-0.648,0.082
26300,1755587373277,49.76,-82.48,-35.67,780,767,772,822,844,34.48275862068966,-0.755,-0.645,0.079
26330,1755587373307,49.88,-82.51,-35.66,780,770,773,819,838,33.333333333333336,-0.76,-0.646,0.084
26359,1755587373336,49.86,-82.42,-35.63,787,767,771,816,847,34.48275862068966,-0.759,-0.645,0.08
26389,1755587373366,49.87,-82.46,-35.61,781,763,767,820,846,33.333333333333336,-0.758,-0.645,0.077
26409,1755587373387,49.94,-82.56,-35.6,775,777,763,816,843,50.0,-0.757,-0.648,0.075
26429,1755587373406,49.98,-82.59,-35.58,782,787,775,820,842,50.0,-0.76,-0.65,0.076
26459,1755587373436,49.95,-82.67,-35.57,779,772,765,821,842,33.333333333333336,-0.758,-0.648,0.075
26488,1755587373465,49.94,-82.71,-35.52,775,777,772,825,852,34.48275862068966,-0.76,-0.647,0.074
26518,1755587373495,49.9,-82.71,-35.39,782,772,779,823,848,33.333333333333336,-0.763,-0.65,0.07
26547,1755587373524,49.88,-82.76,-35.31,778,776,771,825,864,34.48275862068966,-0.763,-0.647,0.072
26577,1755587373554,49.81,-82.71,-35.29,776,777,768,825,849,33.333333333333336,-0.76,-0.644,0.077
26607,1755587373584,49.67,-82.62,-35.3,776,780,770,822,852,33.333333333333336,-0.76,-0.644,0.077
26636,1755587373613,49.57,-82.63,-35.29,780,767,769,815,869,34.48275862068966,-0.761,-0.643,0.075
26666,1755587373643,49.64,-82.78,-35.28,783,782,767,822,854,33.333333333333336,-0.763,-0.643,0.081
26696,1755587373673,49.73,-82.67,-35.25,773,775,769,820,859,33.333333333333336,-0.765,-0.64,0.086
26725,1755587373702,49.6,-82.47,-35.17,785,771,766,822,847,34.48275862068966,-0.76,-0.638,0.077
26755,1755587373732,49.73,-82.61,-35.16,781,774,768,831,844,33.333333333333336,-0.76,-0.638,0.073
26785,1755587373762,49.71,-82.57,-35.13,773,774,767,817,834,33.333333333333336,-0.766,-0.638,0.079
26814,1755587373791,49.57,-82.48,-35.12,782,771,784,817,848,34.48275862068966,-0.762,-0.636,0.078
26844,1755587373821,49.65,-82.59,-35.12,780,777,771,828,841,33.333333333333336,-0.764,-0.636,0.076
26873,1755587373850,49.73,-82.69,-35.11,781,765,766,824,851,34.48275862068966,-0.767,-0.639,0.079
26903,1755587373880,49.74,-82.63,-35.11,780,776,770,819,837,33.333333333333336,-0.764,-0.638,0.084
26932,1755587373910,49.66,-82.54,-35.1,780,770,776,815,846,34.48275862068966,-0.76,-0.636,0.082
26952,1755587373929,49.72,-82.6,-35.12,780,775,770,829,853,50.0,-0.762,-0.637,0.078
26982,1755587373959,49.78,-82.67,-35.12,781,770,769,821,843,33.333333333333336,-0.765,-0.64,0.079
27012,1755587373989,49.74,-82.64,-35.09,774,775,774,823,846,33.333333333333336,-0.763,-0.638,0.078
27042,1755587374018,49.77,-82.67,-35.09,778,773,768,820,857,33.333333333333336,-0.765,-0.637,0.076
