timestamp_ms,recv_timestamp_ms,pitch,roll,yaw,flex1,flex2,flex3,flex4,flex5,sampling_hz,accel_x,accel_y,accel_z
58649,1755587245895,50.0,-21.73,118.75,785,880,821,872,886,34.48275862068966,-0.984,-0.077,0.16
58679,1755587245925,49.96,-21.71,118.97,781,884,827,865,885,33.333333333333336,-0.985,-0.077,0.162
58699,1755587245945,50.15,-21.73,119.14,780,890,824,871,873,50.0,-0.991,-0.079,0.164
58729,1755587245974,50.15,-21.74,119.46,787,890,809,874,887,33.333333333333336,-0.995,-0.082,0.163
58759,1755587246004,50.18,-21.72,119.77,788,887,820,865,879,33.333333333333336,-0.992,-0.081,0.162
58789,1755587246034,50.13,-21.69,120.05,780,888,826,873,876,33.333333333333336,-0.985,-0.076,0.161
58819,1755587246064,50.07,-21.71,120.28,780,895,827,872,884,33.333333333333336,-0.988,-0.077,0.161
58848,1755587246094,50.05,-21.72,120.55,780,885,826,867,878,34.48275862068966,-0.994,-0.079,0.16
58869,1755587246114,50.22,-21.76,120.75,775,885,822,867,888,47.61904761904762,-0.994,-0.079,0.159
58898,1755587246144,50.16,-21.77,121.03,783,881,825,874,866,34.48275862068966,-0.987,-0.077,0.16
58918,1755587246164,50.3,-21.79,121.19,774,889,820,869,876,50.0,-0.982,-0.075,0.161
58948,1755587246193,50.26,-21.77,121.41,784,885,816,876,887,33.333333333333336,-0.986,-0.076,0.161
58978,1755587246223,50.2,-21.8,121.66,786,894,811,871,889,33.333333333333336,-0.991,-0.079,0.16
59007,1755587246253,50.17,-21.82,121.96,782,886,818,868,872,34.48275862068966,-0.99,-0.08,0.16
59037,1755587246283,50.16,-21.82,122.23,781,884,827,875,885,33.333333333333336,-0.988,-0.08,0.161
59067,1755587246312,50.11,-21.84,122.49,789,872,823,861,878,33.333333333333336,-0.987,-0.08,0.16
59097,1755587246342,50.1,-21.88,122.76,785,884,826,867,868,33.333333333333336,-0.989,-0.081,0.16
59127,1755587246372,50.1,-21.93,123.05,777,886,818,883,892,33.333333333333336,-0.989,-0.082,0.16
59156,1755587246402,50.08,-21.98,123.32,786,891,827,870,877,34.48275862068966,-0.987,-0.08,0.161
59186,1755587246431,50.04,-22.01,123.57,786,888,817,871,894,33.333333333333336,-0.986,-0.08,0.163
59216,1755587246461,50.02,-22.0,123.84,783,889,826,873,876,33.333333333333336,-0.988,-0.08,0.164
59246,1755587246491,50.0,-22.02,124.12,779,891,818,868,881,33.333333333333336,-0.989,-0.081,0.164
59275,1755587246521,49.97,-22.03,124.41,783,878,828,869,882,34.48275862068966,-0.988,-0.08,0.163
59305,1755587246551,49.93,-22.03,124.68,790,881,826,880,885,33.333333333333336,-0.986,-0.079,0.163
59335,1755587246580,49.91,-22.0,124.96,768,885,833,870,890,33.333333333333336,-0.988,-0.078,0.162
59365,1755587246610,49.87,-22.01,125.22,780,883,829,874,895,33.333333333333336,-0.987,-0.077,0.162
59395,1755587246641,49.83,-22.0,125.47,785,891,820,865,880,33.333333333333336,-0.986,-0.078,0.162
59415,1755587246661,49.98,-22.05,125.65,785,885,825,864,890,50.0,-0.987,-0.081,0.161
59445,1755587246690,49.95,-22.01,125.94,781,881,814,867,890,33.333333333333336,-0.988,-0.08,0.161
59475,1755587246720,49.93,-22.05,126.21,787,889,825,878,878,33.333333333333336,-0.987,-0.079,0.161
59505,1755587246750,49.91,-22.04,126.47,780,890,821,869,883,33.333333333333336,-0.986,-0.079,0.162
59525,1755587246771,50.07,-22.08,126.65,778,889,819,866,900,50.0,-0.985,-0.079,0.163
59545,1755587246791,50.23,-22.1,126.82,784,890,817,871,880,50.0,-0.985,-0.079,0.162
59565,1755587246811,50.4,-22.13,127.0,785,888,827,873,891,50.0,-0.989,-0.081,0.162
59595,1755587246841,50.39,-22.18,127.29,778,876,819,874,877,33.333333333333336,-0.991,-0.082,0.161
59625,1755587246870,50.38,-22.16,127.58,778,877,829,860,881,33.333333333333336,-0.988,-0.081,0.161
59655,1755587246900,50.27,-22.14,127.86,779,894,833,879,879,33.333333333333336,-0.984,-0.077,0.164
59685,1755587246931,50.25,-22.1,128.08,781,886,829,865,895,33.333333333333336,-0.987,-0.076,0.165
59705,1755587246951,50.41,-22.13,128.25,781,886,822,868,894,50.0,-0.991,-0.08,0.164
59725,1755587246971,50.58,-22.2,128.44,782,888,813,870,890,50.0,-0.993,-0.083,0.162
59746,1755587246991,50.72,-22.23,128.65,787,890,817,864,884,47.61904761904762,-0.989,-0.083,0.161
59776,1755587247021,50.66,-22.24,128.89,783,890,816,867,891,33.333333333333336,-0.984,-0.08,0.161
59805,1755587247051,50.58,-22.28,129.13,781,884,820,872,880,34.48275862068966,-0.988,-0.081,0.162
59835,1755587247081,50.56,-22.29,129.42,785,887,817,870,884,33.333333333333336,-0.994,-0.083,0.163
59865,1755587247111,50.54,-22.27,129.74,780,889,827,867,883,33.333333333333336,-0.992,-0.082,0.165
59895,1755587247140,50.46,-22.27,130.01,784,890,822,870,879,33.333333333333336,-0.984,-0.079,0.164
59925,1755587247171,50.44,-22.22,130.27,786,880,828,875,882,33.333333333333336,-0.985,-0.079,0.163
59945,1755587247190,50.6,-22.27,130.44,786,889,818,866,886,50.0,-0.987,-0.079,0.161
59975,1755587247220,50.58,-22.31,130.72,779,893,814,869,880,33.333333333333336,-0.99,-0.081,0.161
60005,1755587247250,50.52,-22.29,131.02,781,879,832,867,890,33.333333333333336,-0.988,-0.08,0.161
60035,1755587247280,50.51,-22.3,131.29,777,889,830,872,897,33.333333333333336,-0.985,-0.078,0.161
60064,1755587247310,50.45,-22.32,131.54,784,883,810,864,878,34.48275862068966,-0.985,-0.077,0.162
60094,1755587247340,50.39,-22.3,131.81,787,889,813,865,882,33.333333333333336,-0.989,-0.08,0.162
60114,1755587247360,50.57,-22.36,132.0,779,884,831,881,888,50.0,-0.992,-0.081,0.159
60144,1755587247390,50.56,-22.4,132.3,776,889,831,876,886,33.333333333333336,-0.992,-0.084,0.161
60174,1755587247420,50.47,-22.41,132.59,782,885,820,868,888,33.333333333333336,-0.985,-0.08,0.161
60194,1755587247440,50.61,-22.39,132.76,782,879,827,874,884,50.0,-0.982,-0.077,0.162
60224,1755587247470,50.53,-22.39,133.01,781,890,817,867,894,33.333333333333336,-0.986,-0.077,0.162
60245,1755587247490,50.66,-22.43,133.2,784,886,829,862,876,47.61904761904762,-0.992,-0.081,0.163
60274,1755587247520,50.62,-22.41,133.51,785,881,830,864,882,34.48275862068966,-0.993,-0.084,0.164
60304,1755587247550,50.59,-22.41,133.82,788,886,833,873,883,33.333333333333336,-0.987,-0.083,0.162
60324,1755587247570,50.76,-22.43,134.01,776,877,820,886,888,50.0,-0.985,-0.08,0.162
60354,1755587247599,50.74,-22.46,134.27,778,887,829,874,887,33.333333333333336,-0.985,-0.078,0.161
60384,1755587247629,50.68,-22.44,134.54,789,886,823,858,883,33.333333333333336,-0.987,-0.077,0.161
60414,1755587247659,50.58,-22.43,134.81,785,881,814,875,882,33.333333333333336,-0.986,-0.078,0.162
60434,1755587247679,50.75,-22.46,134.97,783,880,819,858,873,50.0,-0.984,-0.078,0.162
60463,1755587247709,50.68,-22.41,135.24,779,876,820,864,881,34.48275862068966,-0.986,-0.077,0.164
60493,1755587247739,50.62,-22.36,135.5,781,883,818,870,884,33.333333333333336,-0.985,-0.076,0.163
60523,1755587247769,50.56,-22.31,135.75,782,881,813,858,883,33.333333333333336,-0.986,-0.076,0.163
60553,1755587247799,50.47,-22.33,136.02,781,887,827,869,891,33.333333333333336,-0.989,-0.079,0.163
60583,1755587247829,50.45,-22.29,136.31,783,888,815,873,886,33.333333333333336,-0.988,-0.08,0.166
60603,1755587247848,50.61,-22.29,136.5,784,878,827,867,889,50.0,-0.986,-0.078,0.166
60633,1755587247878,50.55,-22.24,136.73,777,887,826,864,889,33.333333333333336,-0.98,-0.074,0.166
60662,1755587247909,50.47,-22.17,136.95,784,883,816,875,879,34.48275862068966,-0.985,-0.076,0.165
60683,1755587247928,50.61,-22.19,137.11,781,892,825,877,884,47.61904761904762,-0.992,-0.08,0.163
60713,1755587247958,50.57,-22.19,137.4,780,888,817,871,884,33.333333333333336,-0.993,-0.083,0.162
60743,1755587247988,50.51,-22.22,137.66,776,890,824,868,882,33.333333333333336,-0.986,-0.082,0.163
60772,1755587248018,50.45,-22.19,137.87,781,876,820,867,885,34.48275862068966,-0.983,-0.081,0.166
60793,1755587248038,50.57,-22.17,138.02,779,877,812,865,885,47.61904761904762,-0.985,-0.079,0.166
60813,1755587248058,50.71,-22.18,138.19,778,876,830,866,878,50.0,-0.992,-0.081,0.168
60833,1755587248078,50.88,-22.2,138.38,777,882,821,858,872,50.0,-0.996,-0.086,0.17
60863,1755587248108,50.85,-22.17,138.7,787,874,830,866,883,33.333333333333336,-0.989,-0.085,0.167
60892,1755587248138,50.81,-22.15,138.95,788,878,832,873,887,34.48275862068966,-0.983,-0.08,0.165
60913,1755587248158,50.94,-22.18,139.1,780,891,808,874,889,47.61904761904762,-0.983,-0.077,0.163
60943,1755587248188,50.85,-22.18,139.35,782,886,834,872,887,33.333333333333336,-0.99,-0.08,0.164
60972,1755587248218,50.78,-22.17,139.67,783,873,816,872,879,34.48275862068966,-0.994,-0.083,0.165
60992,1755587248238,50.94,-22.2,139.89,784,884,823,870,884,50.0,-0.991,-0.084,0.166
61022,1755587248268,50.94,-22.2,140.16,786,888,820,868,879,33.333333333333336,-0.985,-0.084,0.166
61052,1755587248298,50.87,-22.23,140.42,784,900,815,870,879,33.333333333333336,-0.984,-0.083,0.166
61072,1755587248317,51.02,-22.26,140.6,784,884,828,866,879,50.0,-0.988,-0.082,0.165
61102,1755587248347,50.97,-22.25,140.91,781,873,810,877,886,33.333333333333336,-0.992,-0.083,0.166
61132,1755587248378,50.91,-22.28,141.2,782,886,819,870,876,33.333333333333336,-0.988,-0.083,0.166
61152,1755587248398,51.08,-22.29,141.38,780,900,816,871,889,50.0,-0.984,-0.082,0.166
61182,1755587248427,50.99,-22.27,141.64,779,884,820,867,877,33.333333333333336,-0.984,-0.081,0.166
61202,1755587248448,51.14,-22.3,141.8,776,881,830,877,883,50.0,-0.988,-0.08,0.165
61222,1755587248467,51.28,-22.32,141.99,781,876,824,866,878,50.0,-0.991,-0.081,0.165
61252,1755587248497,51.22,-22.34,142.28,779,888,813,879,882,33.333333333333336,-0.992,-0.083,0.164
61282,1755587248527,51.17,-22.33,142.57,775,883,822,858,870,33.333333333333336,-0.988,-0.083,0.165
61311,1755587248558,51.07,-22.32,142.84,786,886,817,875,883,34.48275862068966,-0.985,-0.081,0.167
61332,1755587248577,51.2,-22.33,143.01,781,886,826,870,894,47.61904761904762,-0.985,-0.079,0.167
61362,1755587248607,51.15,-22.34,143.26,779,885,825,870,887,33.333333333333336,-0.988,-0.08,0.167
61391,1755587248637,51.08,-22.34,143.55,784,884,824,872,892,34.48275862068966,-0.988,-0.081,0.167
61421,1755587248667,51.01,-22.32,143.81,779,887,821,863,883,33.333333333333336,-0.985,-0.081,0.167
61451,1755587248697,50.93,-22.33,144.07,773,886,820,867,880,33.333333333333336,-0.985,-0.081,0.168
61481,1755587248726,50.9,-22.33,144.32,782,879,821,867,886,33.333333333333336,-0.988,-0.082,0.168
61511,1755587248756,50.85,-22.33,144.6,777,888,816,868,877,33.333333333333336,-0.988,-0.082,0.169
61541,1755587248786,50.81,-22.29,144.88,780,892,826,874,887,33.333333333333336,-0.987,-0.082,0.17
61570,1755587248816,50.74,-22.27,145.14,783,881,835,870,877,34.48275862068966,-0.985,-0.081,0.169
61600,1755587248846,50.7,-22.25,145.41,778,873,817,860,892,33.333333333333336,-0.988,-0.081,0.168
61630,1755587248876,50.63,-22.26,145.67,784,886,820,866,885,33.333333333333336,-0.987,-0.082,0.167
61650,1755587248896,50.78,-22.27,145.85,780,881,811,862,890,50.0,-0.984,-0.083,0.165
61680,1755587248925,50.71,-22.26,146.1,786,891,823,868,881,33.333333333333336,-0.986,-0.081,0.165
61710,1755587248956,50.63,-22.28,146.35,773,890,814,871,876,33.333333333333336,-0.985,-0.081,0.165
61730,1755587248976,50.77,-22.32,146.52,781,888,821,871,887,50.0,-0.988,-0.085,0.167
61760,1755587249006,50.74,-22.36,146.8,779,884,834,865,875,33.333333333333336,-0.992,-0.088,0.168
61790,1755587249036,50.74,-22.33,147.12,785,889,816,870,883,33.333333333333336,-0.989,-0.087,0.17
61820,1755587249065,50.7,-22.33,147.39,775,890,818,873,890,33.333333333333336,-0.984,-0.083,0.168
61850,1755587249095,50.69,-22.32,147.64,782,887,813,862,884,33.333333333333336,-0.988,-0.082,0.168
61879,1755587249125,50.62,-22.35,147.93,781,881,823,875,875,34.48275862068966,-0.991,-0.084,0.168
61909,1755587249155,50.6,-22.32,148.24,785,883,826,881,888,33.333333333333336,-0.991,-0.084,0.167
61939,1755587249184,50.55,-22.32,148.52,783,884,822,875,873,33.333333333333336,-0.986,-0.082,0.166
61969,1755587249214,50.48,-22.33,148.75,791,886,814,877,881,33.333333333333336,-0.982,-0.081,0.165
61998,1755587249244,50.41,-22.33,148.98,785,887,832,863,881,34.48275862068966,-0.987,-0.083,0.166
62028,1755587249275,50.37,-22.35,149.26,784,890,820,875,888,33.333333333333336,-0.994,-0.085,0.165
62049,1755587249295,50.52,-22.38,149.49,784,886,821,867,877,47.61904761904762,-0.993,-0.085,0.166
62079,1755587249324,50.53,-22.38,149.77,787,885,816,858,887,33.333333333333336,-0.985,-0.084,0.166
62109,1755587249354,50.47,-22.39,150.01,783,886,834,863,870,33.333333333333336,-0.982,-0.082,0.164
62138,1755587249384,50.37,-22.44,150.25,783,883,830,878,912,34.48275862068966,-0.986,-0.083,0.162
62158,1755587249404,50.55,-22.5,150.42,778,884,826,889,882,50.0,-0.994,-0.085,0.161
62179,1755587249424,50.72,-22.54,150.62,783,888,818,878,870,47.61904761904762,-0.998,-0.085,0.163
62208,1755587249454,50.66,-22.56,150.93,782,884,811,873,880,34.48275862068966,-0.993,-0.085,0.165
62238,1755587249484,50.65,-22.56,151.19,783,883,824,872,890,33.333333333333336,-0.987,-0.084,0.167
62268,1755587249513,50.59,-22.56,151.46,776,888,817,878,878,33.333333333333336,-0.988,-0.084,0.165
62298,1755587249543,50.54,-22.57,151.72,784,883,826,877,892,33.333333333333336,-0.989,-0.084,0.163
62318,1755587249563,50.69,-22.63,151.92,782,897,830,866,888,50.0,-0.99,-0.085,0.163
62348,1755587249593,50.65,-22.65,152.21,779,884,823,864,883,33.333333333333336,-0.988,-0.086,0.164
62377,1755587249623,50.61,-22.68,152.46,778,887,827,876,881,34.48275862068966,-0.985,-0.085,0.165
62407,1755587249653,50.57,-22.69,152.73,780,883,822,868,876,33.333333333333336,-0.988,-0.084,0.166
62437,1755587249683,50.56,-22.7,153.02,775,892,821,866,910,33.333333333333336,-0.991,-0.084,0.166
62467,1755587249712,50.53,-22.71,153.31,782,884,818,867,881,33.333333333333336,-0.989,-0.083,0.164
62497,1755587249742,50.48,-22.69,153.57,776,888,813,862,882,33.333333333333336,-0.985,-0.08,0.162
62527,1755587249772,50.4,-22.69,153.81,779,885,818,870,888,33.333333333333336,-0.987,-0.081,0.162
62556,1755587249802,50.34,-22.69,154.08,786,882,817,872,885,34.48275862068966,-0.989,-0.083,0.164
62586,1755587249832,50.31,-22.68,154.35,785,887,824,864,880,33.333333333333336,-0.987,-0.083,0.165
62616,1755587249862,50.29,-22.68,154.61,776,887,824,875,877,33.333333333333336,-0.986,-0.083,0.165
62646,1755587249892,50.23,-22.7,154.87,779,875,821,874,889,33.333333333333336,-0.988,-0.084,0.163
62676,1755587249921,50.19,-22.7,155.15,786,889,819,866,883,33.333333333333336,-0.99,-0.083,0.163
62706,1755587249951,50.15,-22.71,155.43,783,891,841,870,886,33.333333333333336,-0.989,-0.083,0.163
62736,1755587249981,50.12,-22.73,155.69,792,880,814,863,872,33.333333333333336,-0.989,-0.084,0.162
62765,1755587250011,50.08,-22.75,155.99,782,899,824,874,874,34.48275862068966,-0.99,-0.084,0.162
62795,1755587250041,50.03,-22.76,156.25,786,901,819,861,884,33.333333333333336,-0.987,-0.081,0.161
62825,1755587250071,49.98,-22.81,156.49,781,886,826,880,884,33.333333333333336,-0.987,-0.082,0.161
62855,1755587250101,49.93,-22.8,156.77,783,888,820,874,882,33.333333333333336,-0.989,-0.085,0.164
62875,1755587250120,50.09,-22.84,156.97,784,887,822,868,889,50.0,-0.989,-0.086,0.164
62905,1755587250150,50.11,-22.87,157.25,779,890,809,864,880,33.333333333333336,-0.99,-0.086,0.164
62934,1755587250180,50.04,-22.9,157.56,782,874,827,873,884,34.48275862068966,-0.989,-0.085,0.165
62964,1755587250210,49.99,-22.9,157.83,781,884,821,866,891,33.333333333333336,-0.987,-0.082,0.163
62994,1755587250239,49.92,-22.96,158.1,783,891,822,868,879,33.333333333333336,-0.986,-0.082,0.163
63024,1755587250269,49.85,-22.97,158.37,782,883,822,873,890,33.333333333333336,-0.986,-0.082,0.164
63053,1755587250299,49.79,-22.97,158.63,779,883,825,880,878,34.48275862068966,-0.987,-0.081,0.163
63083,1755587250329,49.71,-22.96,158.9,784,881,818,876,878,33.333333333333336,-0.986,-0.084,0.166
63113,1755587250358,49.7,-22.88,159.16,788,892,819,872,878,33.333333333333336,-0.986,-0.084,0.167
63143,1755587250388,49.67,-22.85,159.4,783,888,825,864,875,33.333333333333336,-0.983,-0.081,0.169
63173,1755587250418,49.63,-22.77,159.6,783,878,816,863,882,33.333333333333336,-0.983,-0.081,0.17
63202,1755587250448,49.6,-22.73,159.85,786,877,831,873,888,34.48275862068966,-0.99,-0.086,0.17
63232,1755587250478,49.61,-22.68,160.15,786,882,810,869,878,33.333333333333336,-0.989,-0.087,0.167
63252,1755587250498,49.81,-22.67,160.35,783,884,834,867,880,50.0,-0.984,-0.083,0.165
63282,1755587250528,49.77,-22.66,160.59,785,889,828,880,897,33.333333333333336,-0.981,-0.08,0.165
63312,1755587250558,49.74,-22.64,160.84,785,885,836,874,900,33.333333333333336,-0.987,-0.085,0.164
63342,1755587250587,49.74,-22.65,161.16,782,889,828,868,880,33.333333333333336,-0.992,-0.088,0.162
63372,1755587250617,49.74,-22.68,161.45,775,881,812,872,874,33.333333333333336,-0.986,-0.084,0.161
63401,1755587250647,49.67,-22.7,161.68,785,872,823,881,881,34.48275862068966,-0.98,-0.08,0.163
63431,1755587250677,49.62,-22.72,161.9,781,885,824,864,886,33.333333333333336,-0.986,-0.083,0.163
63461,1755587250707,49.6,-22.77,162.18,783,880,833,853,869,33.333333333333336,-0.992,-0.089,0.163
63491,1755587250736,49.6,-22.77,162.51,789,885,828,866,874,33.333333333333336,-0.991,-0.088,0.164
63511,1755587250756,49.77,-22.82,162.72,783,894,807,863,887,50.0,-0.984,-0.085,0.164
63540,1755587250786,49.75,-22.82,162.96,776,890,824,871,879,34.48275862068966,-0.984,-0.085,0.164
63570,1755587250816,49.73,-22.86,163.24,777,887,821,861,881,33.333333333333336,-0.989,-0.089,0.162
63600,1755587250846,49.72,-22.87,163.58,777,888,815,874,884,33.333333333333336,-0.989,-0.09,0.161
63630,1755587250876,49.68,-22.91,163.88,781,882,824,868,915,33.333333333333336,-0.985,-0.086,0.162
63660,1755587250906,49.63,-22.89,164.15,784,882,829,879,875,33.333333333333336,-0.981,-0.082,0.165
63690,1755587250935,49.57,-22.84,164.43,782,894,824,883,884,33.333333333333336,-0.983,-0.081,0.164
63720,1755587250965,49.58,-22.81,164.69,784,881,819,867,880,33.333333333333336,-0.987,-0.082,0.164
63749,1755587250995,49.52,-22.8,164.96,783,884,816,864,881,34.48275862068966,-0.985,-0.081,0.162
63779,1755587251025,49.49,-22.81,165.22,781,884,829,874,877,33.333333333333336,-0.985,-0.082,0.163
63809,1755587251055,49.46,-22.82,165.49,783,890,817,861,885,33.333333333333336,-0.988,-0.084,0.163
63839,1755587251085,49.46,-22.81,165.77,785,876,824,875,882,33.333333333333336,-0.988,-0.083,0.164
63869,1755587251115,49.41,-22.81,166.03,786,901,816,871,876,33.333333333333336,-0.987,-0.083,0.166
63899,1755587251144,49.41,-22.78,166.29,780,886,825,877,877,33.333333333333336,-0.99,-0.085,0.165
63929,1755587251174,49.36,-22.8,166.56,785,889,816,888,919,33.333333333333336,-0.987,-0.085,0.162
63959,1755587251204,49.32,-22.8,166.81,782,883,827,875,883,33.333333333333336,-0.986,-0.084,0.16
63988,1755587251234,49.27,-22.84,167.07,787,881,818,876,894,34.48275862068966,-0.988,-0.084,0.162
64018,1755587251264,49.24,-22.86,167.35,787,882,824,875,884,33.333333333333336,-0.989,-0.085,0.164
64048,1755587251294,49.25,-22.88,167.63,773,889,824,873,882,33.333333333333336,-0.99,-0.087,0.166
64068,1755587251313,49.46,-22.91,167.82,788,886,826,863,884,50.0,-0.989,-0.087,0.167
64098,1755587251344,49.44,-22.88,168.1,787,889,820,875,882,33.333333333333336,-0.986,-0.083,0.165
64118,1755587251363,49.59,-22.88,168.26,783,880,805,867,881,50.0,-0.984,-0.08,0.163
64148,1755587251394,49.52,-22.94,168.51,780,888,811,874,880,33.333333333333336,-0.988,-0.086,0.163
64168,1755587251414,49.68,-23.02,168.69,782,886,826,874,887,50.0,-0.993,-0.091,0.164
64188,1755587251434,49.89,-23.07,168.92,782,880,825,865,879,50.0,-0.996,-0.092,0.167
64209,1755587251455,50.06,-23.1,169.15,788,880,826,865,895,47.61904761904762,-0.992,-0.089,0.168
64229,1755587251475,50.21,-23.12,169.36,782,878,835,868,883,50.0,-0.984,-0.083,0.168
64259,1755587251505,50.17,-23.06,169.58,786,889,823,863,885,33.333333333333336,-0.981,-0.08,0.167
64289,1755587251535,50.1,-23.06,169.82,788,874,835,871,883,33.333333333333336,-0.989,-0.082,0.165
64319,1755587251565,50.06,-23.05,170.14,779,876,828,872,881,33.333333333333336,-0.994,-0.085,0.164
64339,1755587251584,50.25,-23.08,170.35,778,890,820,865,883,50.0,-0.991,-0.085,0.164
64369,1755587251615,50.17,-23.08,170.64,782,892,829,867,890,33.333333333333336,-0.982,-0.082,0.166
64389,1755587251634,50.31,-23.1,170.79,788,878,831,876,906,50.0,-0.982,-0.082,0.165
64419,1755587251664,49.83,-23.09,171.06,783,883,828,866,875,33.333333333333336,-0.989,-0.085,0.165
64448,1755587251694,49.81,-23.09,171.37,781,889,819,867,886,34.48275862068966,-0.992,-0.086,0.165
64478,1755587251724,49.79,-23.1,171.66,782,876,828,865,882,33.333333333333336,-0.987,-0.085,0.166
64508,1755587251754,49.74,-23.05,171.92,786,884,820,870,875,33.333333333333336,-0.983,-0.081,0.165
64538,1755587251783,49.68,-23.08,172.15,785,890,817,866,878,33.333333333333336,-0.985,-0.082,0.162
64568,1755587251813,49.65,-23.12,172.41,780,881,815,871,878,33.333333333333336,-0.99,-0.085,0.163
64598,1755587251843,49.6,-23.11,172.73,787,883,824,865,882,33.333333333333336,-0.991,-0.087,0.167
64627,1755587251873,49.61,-23.05,173.03,782,902,817,865,890,34.48275862068966,-0.988,-0.084,0.169
64657,1755587251903,49.55,-23.05,173.27,781,880,814,869,880,33.333333333333336,-0.98,-0.08,0.165
64687,1755587251932,49.54,-23.04,173.49,782,877,821,876,886,33.333333333333336,-0.985,-0.083,0.163
64717,1755587251962,49.45,-23.07,173.78,785,884,822,870,899,33.333333333333336,-0.99,-0.086,0.164
64746,1755587251992,49.49,-23.06,174.08,784,888,819,874,908,34.48275862068966,-0.987,-0.086,0.165
64776,1755587252022,49.46,-23.07,174.34,777,894,825,860,883,33.333333333333336,-0.981,-0.082,0.164
64806,1755587252052,49.44,-23.03,174.58,784,877,826,868,885,33.333333333333336,-0.982,-0.081,0.164
64826,1755587252072,49.6,-23.05,174.74,785,881,816,874,888,50.0,-0.986,-0.083,0.164
64856,1755587252101,49.59,-23.06,175.02,787,876,820,873,886,33.333333333333336,-0.988,-0.086,0.163
64886,1755587252131,49.55,-23.09,175.3,784,882,832,873,890,33.333333333333336,-0.987,-0.084,0.162
64915,1755587252161,49.52,-23.08,175.57,783,880,824,874,881,34.48275862068966,-0.988,-0.083,0.165
64945,1755587252191,49.49,-23.05,175.83,777,894,825,870,885,33.333333333333336,-0.987,-0.082,0.166
64975,1755587252220,49.51,-23.03,176.09,784,891,823,867,883,33.333333333333336,-0.987,-0.082,0.165
65005,1755587252250,49.45,-23.01,176.37,784,884,825,866,874,33.333333333333336,-0.99,-0.083,0.164
65035,1755587252280,49.44,-23.03,176.65,784,875,826,880,881,33.333333333333336,-0.991,-0.087,0.164
65064,1755587252310,49.45,-23.02,176.95,780,881,827,868,872,34.48275862068966,-0.988,-0.086,0.163
65094,1755587252340,49.41,-23.04,177.22,781,874,823,860,891,33.333333333333336,-0.984,-0.082,0.163
65124,1755587252369,49.39,-23.02,177.47,784,875,824,872,880,33.333333333333336,-0.988,-0.082,0.164
65154,1755587252400,49.39,-23.05,177.76,784,887,813,870,878,33.333333333333336,-0.991,-0.084,0.163
65174,1755587252420,49.56,-23.09,177.96,776,890,830,870,891,50.0,-0.991,-0.085,0.162
65194,1755587252440,49.73,-23.12,178.15,783,884,827,868,883,50.0,-0.986,-0.083,0.162
65224,1755587252469,49.69,-23.11,178.41,786,878,822,871,891,33.333333333333336,-0.985,-0.082,0.163
65254,1755587252499,49.63,-23.14,178.65,774,892,820,876,888,33.333333333333336,-0.986,-0.082,0.162
65284,1755587252529,49.61,-23.13,178.93,786,886,828,871,882,33.333333333333336,-0.988,-0.084,0.162
65313,1755587252559,49.58,-23.16,179.22,782,879,823,867,884,34.48275862068966,-0.988,-0.085,0.164
65333,1755587252579,49.76,-23.17,179.41,781,883,823,872,908,50.0,-0.986,-0.084,0.165
65363,1755587252609,49.73,-23.17,179.69,791,888,820,865,881,33.333333333333336,-0.987,-0.084,0.166
65393,1755587252639,49.73,-23.16,179.98,776,888,843,865,891,33.333333333333336,-0.988,-0.084,0.165
65423,1755587252668,49.69,-23.15,-179.74,779,892,827,870,880,33.333333333333336,-0.986,-0.082,0.164
65453,1755587252698,49.65,-23.18,-179.5,788,887,814,887,894,33.333333333333336,-0.984,-0.082,0.162
65483,1755587252728,49.61,-23.2,-179.25,776,884,824,877,885,33.333333333333336,-0.987,-0.084,0.163
65512,1755587252758,49.57,-23.21,-178.96,784,876,829,874,878,34.48275862068966,-0.989,-0.085,0.166
65542,1755587252788,49.56,-23.16,-178.66,785,884,825,877,886,33.333333333333336,-0.989,-0.084,0.168
65562,1755587252808,49.74,-23.15,-178.47,778,884,813,876,878,50.0,-0.985,-0.082,0.168
65592,1755587252838,49.72,-23.11,-178.22,780,881,824,871,873,33.333333333333336,-0.984,-0.081,0.165
65612,1755587252858,49.88,-23.13,-178.05,781,885,825,870,879,50.0,-0.984,-0.082,0.163
65642,1755587252888,49.82,-23.14,-177.78,783,890,821,866,883,33.333333333333336,-0.987,-0.084,0.164
65672,1755587252918,49.8,-23.12,-177.49,788,881,824,869,884,33.333333333333336,-0.99,-0.084,0.167
65702,1755587252948,49.77,-23.09,-177.2,783,886,830,849,886,33.333333333333336,-0.985,-0.084,0.168
65732,1755587252978,49.75,-23.02,-176.94,793,884,823,871,892,33.333333333333336,-0.984,-0.081,0.167
65752,1755587252997,49.92,-23.02,-176.77,779,883,826,861,881,50.0,-0.984,-0.08,0.166
65782,1755587253027,49.87,-23.05,-176.52,780,884,808,875,892,33.333333333333336,-0.986,-0.082,0.163
65812,1755587253057,49.84,-23.03,-176.23,782,907,831,867,889,33.333333333333336,-0.988,-0.084,0.163
65832,1755587253077,50.0,-23.08,-176.04,788,884,819,870,884,50.0,-0.987,-0.084,0.165
65861,1755587253107,50.0,-23.05,-175.77,782,886,821,874,880,34.48275862068966,-0.985,-0.083,0.168
65891,1755587253137,49.93,-23.0,-175.51,784,882,825,873,893,33.333333333333336,-0.985,-0.081,0.168
65921,1755587253167,49.9,-22.99,-175.27,786,889,820,869,888,33.333333333333336,-0.988,-0.083,0.166
65951,1755587253197,49.85,-22.97,-174.99,783,877,822,871,884,33.333333333333336,-0.99,-0.084,0.165
65971,1755587253217,50.02,-23.01,-174.8,782,884,820,865,889,50.0,-0.989,-0.085,0.165
66001,1755587253246,49.97,-23.03,-174.55,784,888,820,870,889,33.333333333333336,-0.984,-0.085,0.165
66031,1755587253277,49.94,-23.03,-174.3,791,880,819,863,892,33.333333333333336,-0.986,-0.086,0.165
66051,1755587253296,50.11,-23.07,-174.12,782,878,824,874,881,50.0,-0.99,-0.086,0.165
66081,1755587253326,50.1,-23.05,-173.82,784,890,811,883,887,33.333333333333336,-0.991,-0.086,0.166
66111,1755587253356,50.08,-23.04,-173.55,789,883,817,862,883,33.333333333333336,-0.988,-0.084,0.166
66131,1755587253376,50.22,-23.06,-173.37,791,884,822,868,877,50.0,-0.985,-0.083,0.164
66160,1755587253406,50.19,-23.07,-173.12,782,889,817,862,880,34.48275862068966,-0.986,-0.085,0.162
66190,1755587253436,50.11,-23.1,-172.85,785,890,819,871,891,33.333333333333336,-0.987,-0.085,0.162
66220,1755587253466,50.06,-23.1,-172.6,779,879,823,855,878,33.333333333333336,-0.988,-0.084,0.164
66250,1755587253496,50.01,-23.09,-172.33,792,889,818,871,895,33.333333333333336,-0.988,-0.084,0.166
66270,1755587253515,50.17,-23.08,-172.15,786,887,819,875,887,50.0,-0.987,-0.084,0.167
66300,1755587253545,50.12,-23.07,-171.9,785,889,821,858,879,33.333333333333336,-0.986,-0.084,0.167
66330,1755587253576,50.07,-23.06,-171.65,793,883,827,860,887,33.333333333333336,-0.986,-0.084,0.165
66359,1755587253605,50.01,-23.08,-171.39,776,894,815,874,905,34.48275862068966,-0.987,-0.085,0.164
66389,1755587253635,49.97,-23.09,-171.14,783,881,815,871,882,33.333333333333336,-0.989,-0.087,0.165
66419,1755587253665,49.96,-23.09,-170.85,782,893,827,870,887,33.333333333333336,-0.989,-0.087,0.167
66439,1755587253685,50.13,-23.11,-170.66,773,888,811,868,878,50.0,-0.986,-0.086,0.168
66459,1755587253705,50.28,-23.09,-170.48,786,880,819,868,884,50.0,-0.984,-0.083,0.169
66489,1755587253735,50.23,-23.1,-170.23,775,883,821,877,880,33.333333333333336,-0.985,-0.085,0.167
66519,1755587253765,50.22,-23.06,-169.95,776,882,823,864,882,33.333333333333336,-0.985,-0.084,0.166
66539,1755587253785,50.35,-23.1,-169.77,786,888,821,864,877,50.0,-0.985,-0.085,0.164
66569,1755587253815,50.31,-23.1,-169.5,779,884,824,873,884,33.333333333333336,-0.985,-0.086,0.164
66589,1755587253835,50.47,-23.13,-169.32,783,876,834,870,872,50.0,-0.986,-0.085,0.166
66609,1755587253855,50.61,-23.17,-169.15,781,886,819,858,878,50.0,-0.984,-0.085,0.166
66639,1755587253885,50.59,-23.17,-168.89,780,880,826,876,887,33.333333333333336,-0.986,-0.086,0.167
66659,1755587253905,50.76,-23.19,-168.71,783,889,818,865,888,50.0,-0.987,-0.086,0.168
66689,1755587253935,50.7,-23.19,-168.45,780,886,817,877,886,33.333333333333336,-0.984,-0.086,0.168
66709,1755587253956,50.84,-23.2,-168.28,786,874,822,874,878,50.0,-0.982,-0.085,0.165
66730,1755587253976,50.97,-23.26,-168.12,778,894,828,869,884,47.61904761904762,-0.986,-0.087,0.164
66760,1755587254005,50.91,-23.27,-167.83,781,888,825,863,892,33.333333333333336,-0.988,-0.087,0.164
66790,1755587254035,50.83,-23.29,-167.57,777,884,837,875,881,33.333333333333336,-0.983,-0.087,0.165
66820,1755587254065,50.77,-23.3,-167.31,779,885,832,862,881,33.333333333333336,-0.984,-0.088,0.166
66849,1755587254095,50.71,-23.3,-167.03,777,882,827,874,879,34.48275862068966,-0.99,-0.089,0.166
66869,1755587254115,50.84,-23.35,-166.83,789,891,824,868,882,50.0,-0.988,-0.09,0.167
66899,1755587254145,50.81,-23.36,-166.53,781,890,826,864,879,33.333333333333336,-0.987,-0.091,0.166
66929,1755587254175,50.76,-23.37,-166.25,790,883,834,867,883,33.333333333333336,-0.987,-0.09,0.166
