timestamp_ms,recv_timestamp_ms,pitch,roll,yaw,flex1,flex2,flex3,flex4,flex5,sampling_hz,accel_x,accel_y,accel_z
82395,1755586245045,22.07,-34.86,-13.11,769,779,772,755,817,33.333333333333336,-0.389,-0.529,0.757
82424,1755586245074,22.12,-34.88,-13.1,764,773,765,756,818,34.48275862068966,-0.394,-0.527,0.755
82454,1755586245104,22.06,-34.9,-13.08,770,777,768,757,817,33.333333333333336,-0.393,-0.527,0.752
82484,1755586245134,22.1,-34.99,-13.07,771,772,775,759,823,33.333333333333336,-0.387,-0.527,0.754
82513,1755586245163,22.06,-34.98,-13.09,770,765,773,757,817,34.48275862068966,-0.385,-0.529,0.759
82543,1755586245193,22.07,-34.92,-13.1,763,765,775,752,816,33.333333333333336,-0.387,-0.531,0.758
82572,1755586245223,22.11,-34.93,-13.08,768,774,773,758,816,34.48275862068966,-0.397,-0.527,0.755
82602,1755586245252,22.11,-34.98,-13.09,766,773,770,755,821,33.333333333333336,-0.398,-0.528,0.756
82632,1755586245282,22.09,-35.01,-13.08,775,774,774,752,808,33.333333333333336,-0.395,-0.53,0.755
82661,1755586245311,22.1,-35.01,-13.05,765,778,769,757,822,34.48275862068966,-0.389,-0.531,0.758
82691,1755586245341,22.12,-34.97,-13.04,765,770,775,766,812,33.333333333333336,-0.389,-0.529,0.761
82721,1755586245371,22.06,-34.95,-13.06,763,766,767,753,816,33.333333333333336,-0.39,-0.528,0.758
82750,1755586245400,22.04,-34.91,-13.05,767,772,771,757,821,34.48275862068966,-0.393,-0.529,0.753
82780,1755586245430,22.04,-34.98,-13.0,765,775,772,754,817,33.333333333333336,-0.391,-0.53,0.751
82809,1755586245459,22.03,-35.02,-13.0,767,770,768,755,828,34.48275862068966,-0.386,-0.526,0.756
82839,1755586245489,21.94,-35.02,-13.07,770,763,767,759,817,33.333333333333336,-0.385,-0.525,0.757
82868,1755586245518,21.99,-35.12,-13.13,771,773,763,755,819,34.48275862068966,-0.392,-0.53,0.754
82898,1755586245548,21.95,-35.13,-13.11,765,771,765,761,810,33.333333333333336,-0.393,-0.53,0.751
82927,1755586245578,21.97,-35.18,-13.13,760,771,763,755,814,34.48275862068966,-0.387,-0.525,0.754
82957,1755586245607,22.07,-35.27,-13.15,770,775,762,757,815,33.333333333333336,-0.388,-0.53,0.758
82987,1755586245637,22.34,-35.3,-13.08,771,763,772,758,818,33.333333333333336,-0.391,-0.532,0.757
83016,1755586245666,22.57,-35.29,-12.96,781,773,770,750,813,34.48275862068966,-0.391,-0.531,0.751
83046,1755586245696,22.62,-35.31,-12.93,764,771,774,759,815,33.333333333333336,-0.39,-0.53,0.748
83075,1755586245726,22.76,-35.4,-12.91,768,766,774,761,812,34.48275862068966,-0.393,-0.531,0.748
83105,1755586245755,22.82,-35.43,-12.88,768,770,770,756,818,33.333333333333336,-0.397,-0.533,0.749
83134,1755586245784,22.79,-35.46,-12.88,763,773,779,753,823,34.48275862068966,-0.398,-0.534,0.748
83164,1755586245814,22.62,-35.45,-12.97,760,776,769,752,814,33.333333333333336,-0.395,-0.531,0.741
83194,1755586245844,22.4,-35.55,-13.09,766,780,767,755,815,33.333333333333336,-0.396,-0.531,0.739
83223,1755586245873,22.45,-35.63,-13.05,764,763,770,753,817,34.48275862068966,-0.405,-0.539,0.75
83253,1755586245903,22.38,-35.55,-12.97,767,772,779,756,814,33.333333333333336,-0.404,-0.539,0.751
83283,1755586245933,22.31,-35.5,-12.99,766,773,774,757,817,33.333333333333336,-0.395,-0.533,0.745
83312,1755586245962,22.16,-35.52,-13.04,767,768,771,751,829,34.48275862068966,-0.393,-0.534,0.743
83341,1755586245992,22.05,-35.55,-13.02,770,776,766,755,823,34.48275862068966,-0.394,-0.537,0.747
83371,1755586246021,21.94,-35.55,-13.03,763,774,766,757,825,33.333333333333336,-0.392,-0.536,0.748
83401,1755586246051,21.87,-35.55,-13.1,766,775,768,752,812,33.333333333333336,-0.388,-0.533,0.749
83430,1755586246080,21.86,-35.57,-13.14,761,772,767,757,817,34.48275862068966,-0.392,-0.537,0.751
83460,1755586246110,21.81,-35.57,-13.13,768,772,774,767,810,33.333333333333336,-0.393,-0.537,0.75
83489,1755586246140,21.75,-35.58,-13.16,765,778,766,760,809,34.48275862068966,-0.388,-0.534,0.748
83519,1755586246170,21.73,-35.58,-13.18,763,764,778,749,822,33.333333333333336,-0.39,-0.537,0.751
83539,1755586246189,21.69,-35.59,-13.17,766,769,770,751,813,50.0,-0.389,-0.539,0.753
83569,1755586246219,21.74,-35.61,-13.19,766,772,769,757,811,33.333333333333336,-0.384,-0.536,0.753
83598,1755586246248,21.67,-35.58,-13.25,763,766,769,755,813,34.48275862068966,-0.387,-0.536,0.751
83628,1755586246278,21.77,-35.63,-13.22,768,766,773,758,817,33.333333333333336,-0.39,-0.538,0.751
83658,1755586246308,21.74,-35.64,-13.2,765,776,758,752,820,33.333333333333336,-0.389,-0.539,0.755
83688,1755586246338,21.7,-35.63,-13.24,770,769,771,756,817,33.333333333333336,-0.384,-0.537,0.755
83717,1755586246367,21.71,-35.62,-13.27,764,768,774,762,817,34.48275862068966,-0.384,-0.54,0.755
83747,1755586246397,21.73,-35.6,-13.24,762,767,766,751,816,33.333333333333336,-0.388,-0.542,0.754
83776,1755586246426,21.7,-35.59,-13.22,770,775,771,757,814,34.48275862068966,-0.386,-0.537,0.752
83806,1755586246455,21.69,-35.59,-13.26,772,771,771,758,811,33.333333333333336,-0.387,-0.536,0.753
83835,1755586246485,21.6,-35.63,-13.27,766,774,762,758,816,34.48275862068966,-0.385,-0.539,0.754
83865,1755586246515,21.76,-35.64,-13.24,762,770,771,754,817,33.333333333333336,-0.381,-0.538,0.756
83894,1755586246545,21.67,-35.59,-13.28,769,776,774,758,810,34.48275862068966,-0.381,-0.537,0.754
83924,1755586246574,21.65,-35.59,-13.3,760,767,773,755,817,33.333333333333336,-0.385,-0.54,0.748
83954,1755586246604,21.75,-35.64,-13.24,762,762,772,755,813,33.333333333333336,-0.386,-0.539,0.75
83983,1755586246633,21.75,-35.66,-13.24,772,763,783,755,807,34.48275862068966,-0.383,-0.536,0.755
84013,1755586246663,21.66,-35.62,-13.3,765,769,776,757,822,33.333333333333336,-0.383,-0.538,0.755
84042,1755586246692,21.64,-35.59,-13.29,765,772,768,760,817,34.48275862068966,-0.383,-0.539,0.751
84072,1755586246722,21.68,-35.62,-13.27,766,769,776,755,818,33.333333333333336,-0.383,-0.538,0.753
84101,1755586246752,21.63,-35.61,-13.3,764,777,763,751,818,34.48275862068966,-0.38,-0.536,0.754
84131,1755586246781,21.66,-35.6,-13.31,767,772,771,758,816,33.333333333333336,-0.382,-0.54,0.754
84161,1755586246811,21.62,-35.59,-13.3,766,771,769,754,819,33.333333333333336,-0.383,-0.54,0.753
84190,1755586246840,21.64,-35.59,-13.31,763,775,779,755,818,34.48275862068966,-0.381,-0.538,0.754
84220,1755586246870,21.54,-35.55,-13.33,763,772,770,756,814,33.333333333333336,-0.382,-0.539,0.753
84249,1755586246899,21.57,-35.55,-13.32,767,774,771,757,820,34.48275862068966,-0.384,-0.54,0.753
84279,1755586246929,21.6,-35.55,-13.27,771,770,773,756,813,33.333333333333336,-0.381,-0.539,0.754
84309,1755586246958,21.57,-35.57,-13.3,766,774,771,755,815,33.333333333333336,-0.378,-0.536,0.755
84338,1755586246988,21.56,-35.55,-13.33,771,783,771,756,819,34.48275862068966,-0.381,-0.538,0.754
84367,1755586247018,21.6,-35.59,-13.31,765,768,771,751,819,34.48275862068966,-0.384,-0.539,0.753
84397,1755586247048,21.62,-35.59,-13.28,766,769,771,756,817,33.333333333333336,-0.386,-0.539,0.754
84417,1755586247067,21.58,-35.57,-13.28,762,773,767,754,814,50.0,-0.382,-0.536,0.753
84447,1755586247097,21.62,-35.58,-13.3,769,775,773,755,820,33.333333333333336,-0.378,-0.537,0.755
84476,1755586247127,21.53,-35.58,-13.32,768,764,767,751,816,34.48275862068966,-0.379,-0.54,0.754
84506,1755586247156,21.58,-35.58,-13.31,769,779,771,757,813,33.333333333333336,-0.382,-0.538,0.752
84536,1755586247186,21.58,-35.59,-13.3,763,763,762,748,816,33.333333333333336,-0.383,-0.537,0.755
84565,1755586247216,21.53,-35.54,-13.31,766,767,774,758,814,34.48275862068966,-0.383,-0.539,0.755
84585,1755586247235,21.5,-35.54,-13.31,774,773,778,755,819,50.0,-0.378,-0.539,0.752
84615,1755586247265,21.57,-35.57,-13.32,768,770,771,753,818,33.333333333333336,-0.375,-0.538,0.751
84645,1755586247295,21.49,-35.52,-13.36,768,766,778,750,819,33.333333333333336,-0.379,-0.538,0.754
84674,1755586247324,21.49,-35.48,-13.35,762,769,767,756,820,34.48275862068966,-0.382,-0.538,0.752
84704,1755586247354,21.54,-35.51,-13.33,767,774,768,766,818,33.333333333333336,-0.379,-0.537,0.751
84734,1755586247384,21.5,-35.54,-13.38,766,770,767,758,814,33.333333333333336,-0.377,-0.536,0.752
84763,1755586247413,21.49,-35.57,-13.43,766,778,773,759,815,34.48275862068966,-0.376,-0.536,0.754
84793,1755586247443,21.48,-35.56,-13.44,767,773,776,757,813,33.333333333333336,-0.381,-0.538,0.752
84822,1755586247472,21.57,-35.61,-13.4,770,773,766,751,819,34.48275862068966,-0.385,-0.539,0.75
84852,1755586247502,21.57,-35.65,-13.4,772,766,779,756,819,33.333333333333336,-0.382,-0.538,0.751
84881,1755586247532,21.55,-35.64,-13.42,773,767,772,758,820,34.48275862068966,-0.379,-0.538,0.753
84911,1755586247561,21.56,-35.63,-13.44,770,790,768,756,818,33.333333333333336,-0.38,-0.541,0.755
84940,1755586247590,21.55,-35.61,-13.43,770,769,772,757,819,34.48275862068966,-0.379,-0.54,0.753
84970,1755586247620,21.61,-35.59,-13.43,769,772,775,755,821,33.333333333333336,-0.381,-0.54,0.752
85000,1755586247649,21.62,-35.62,-13.42,767,774,773,756,817,33.333333333333336,-0.381,-0.54,0.751
85029,1755586247679,21.68,-35.63,-13.41,767,783,766,758,811,34.48275862068966,-0.381,-0.541,0.751
85058,1755586247709,21.67,-35.6,-13.42,766,773,771,757,809,34.48275862068966,-0.382,-0.54,0.752
85088,1755586247738,21.68,-35.59,-13.43,767,770,774,759,821,33.333333333333336,-0.382,-0.54,0.75
85118,1755586247768,21.76,-35.6,-13.42,771,760,765,760,815,33.333333333333336,-0.385,-0.539,0.75
85147,1755586247797,21.71,-35.61,-13.46,765,774,764,755,817,34.48275862068966,-0.385,-0.539,0.75
85177,1755586247827,21.8,-35.65,-13.45,758,780,779,746,819,33.333333333333336,-0.38,-0.538,0.751
85206,1755586247856,21.86,-35.66,-13.44,769,772,775,756,817,34.48275862068966,-0.381,-0.54,0.753
85236,1755586247886,21.84,-35.71,-13.45,768,769,773,751,818,33.333333333333336,-0.384,-0.538,0.747
85265,1755586247915,22.04,-35.91,-13.43,767,769,763,754,808,34.48275862068966,-0.382,-0.538,0.744
85295,1755586247945,22.14,-35.91,-13.39,772,765,772,753,823,33.333333333333336,-0.388,-0.546,0.755
85325,1755586247975,21.93,-35.86,-13.41,771,776,771,755,817,33.333333333333336,-0.382,-0.541,0.75
85354,1755586248004,22.15,-35.85,-13.39,767,777,771,754,803,34.48275862068966,-0.387,-0.542,0.749
85384,1755586248034,22.02,-35.88,-13.39,769,771,759,758,812,33.333333333333336,-0.393,-0.542,0.748
85404,1755586248054,22.01,-35.9,-13.38,766,779,772,759,815,50.0,-0.393,-0.54,0.746
85433,1755586248083,22.01,-35.92,-13.35,766,764,770,752,821,34.48275862068966,-0.39,-0.541,0.747
85463,1755586248113,22.03,-35.91,-13.33,770,776,765,753,822,33.333333333333336,-0.391,-0.544,0.751
85493,1755586248143,21.97,-35.85,-13.32,769,775,773,751,818,33.333333333333336,-0.391,-0.543,0.748
85522,1755586248172,22.0,-35.79,-13.31,771,773,774,762,813,34.48275862068966,-0.39,-0.541,0.748
85552,1755586248202,21.98,-35.79,-13.31,768,778,767,751,820,33.333333333333336,-0.389,-0.542,0.75
85581,1755586248231,21.99,-35.81,-13.32,763,774,767,758,827,34.48275862068966,-0.388,-0.541,0.749
85611,1755586248261,22.0,-35.8,-13.31,761,772,764,757,829,33.333333333333336,-0.389,-0.541,0.749
85640,1755586248290,22.0,-35.8,-13.3,766,774,778,748,814,34.48275862068966,-0.389,-0.54,0.749
85670,1755586248320,22.0,-35.79,-13.32,769,761,779,746,816,33.333333333333336,-0.387,-0.539,0.75
85700,1755586248350,21.96,-35.78,-13.36,765,770,770,756,826,33.333333333333336,-0.39,-0.539,0.75
85729,1755586248379,21.94,-35.81,-13.35,764,765,768,754,816,34.48275862068966,-0.392,-0.541,0.747
85759,1755586248409,22.0,-35.82,-13.3,762,762,770,756,820,33.333333333333336,-0.39,-0.543,0.749
85788,1755586248438,21.89,-35.79,-13.3,769,774,769,755,813,34.48275862068966,-0.384,-0.539,0.749
85818,1755586248468,21.93,-35.87,-13.37,769,777,770,755,819,33.333333333333336,-0.38,-0.535,0.751
85848,1755586248498,21.9,-35.87,-13.42,767,772,771,760,818,33.333333333333336,-0.387,-0.543,0.752
85877,1755586248527,21.91,-35.82,-13.37,766,764,772,750,814,34.48275862068966,-0.391,-0.544,0.747
85907,1755586248557,21.95,-35.83,-13.33,763,759,764,760,817,33.333333333333336,-0.395,-0.542,0.75
85936,1755586248586,21.89,-35.8,-13.34,773,784,779,758,817,34.48275862068966,-0.392,-0.543,0.75
85966,1755586248616,21.89,-35.78,-13.32,768,770,771,755,809,33.333333333333336,-0.386,-0.542,0.749
85995,1755586248645,21.91,-35.8,-13.33,768,773,764,753,813,34.48275862068966,-0.383,-0.539,0.75
86025,1755586248675,21.82,-35.76,-13.39,769,768,774,753,818,33.333333333333336,-0.389,-0.541,0.751
86055,1755586248705,21.88,-35.77,-13.36,768,765,761,754,819,33.333333333333336,-0.391,-0.543,0.75
86084,1755586248734,21.94,-35.77,-13.31,764,777,763,759,816,34.48275862068966,-0.386,-0.539,0.748
86114,1755586248764,21.85,-35.79,-13.36,772,774,770,759,818,33.333333333333336,-0.385,-0.535,0.748
86143,1755586248794,21.79,-35.82,-13.41,763,768,771,752,820,34.48275862068966,-0.387,-0.54,0.75
86173,1755586248823,21.87,-35.81,-13.37,766,772,770,756,820,33.333333333333336,-0.389,-0.543,0.752
86203,1755586248853,21.88,-35.78,-13.36,760,774,773,755,818,33.333333333333336,-0.386,-0.54,0.75
86232,1755586248883,21.83,-35.75,-13.39,772,774,776,754,815,34.48275862068966,-0.387,-0.539,0.748
86262,1755586248912,21.79,-35.75,-13.38,764,769,777,757,821,33.333333333333336,-0.39,-0.541,0.748
86292,1755586248943,21.84,-35.83,-13.36,767,775,766,751,813,33.333333333333336,-0.387,-0.539,0.75
86322,1755586248972,21.8,-35.8,-13.37,768,770,769,755,815,33.333333333333336,-0.385,-0.54,0.75
86351,1755586249001,21.84,-35.79,-13.36,762,766,778,755,806,34.48275862068966,-0.384,-0.541,0.75
86381,1755586249031,21.81,-35.77,-13.35,767,767,766,757,822,33.333333333333336,-0.387,-0.54,0.75
86410,1755586249060,21.77,-35.76,-13.34,763,770,776,754,826,34.48275862068966,-0.389,-0.539,0.749
86440,1755586249090,21.79,-35.8,-13.34,770,770,766,755,827,33.333333333333336,-0.387,-0.538,0.751
86469,1755586249119,21.79,-35.79,-13.33,769,771,779,758,814,34.48275862068966,-0.384,-0.541,0.754
86499,1755586249149,21.79,-35.75,-13.33,759,774,773,753,821,33.333333333333336,-0.385,-0.541,0.752
86528,1755586249178,21.77,-35.76,-13.34,766,770,767,752,813,34.48275862068966,-0.383,-0.536,0.749
86558,1755586249208,21.83,-35.77,-13.36,768,773,773,754,812,33.333333333333336,-0.39,-0.536,0.751
86587,1755586249237,21.76,-35.87,-13.35,765,768,777,757,851,34.48275862068966,-0.393,-0.538,0.747
86617,1755586249267,21.91,-35.97,-13.31,764,777,768,755,820,33.333333333333336,-0.388,-0.54,0.749
86646,1755586249297,21.9,-36.0,-13.32,771,772,772,755,815,34.48275862068966,-0.381,-0.54,0.753
86676,1755586249327,21.97,-35.98,-13.36,766,777,772,750,811,33.333333333333336,-0.379,-0.539,0.755
86706,1755586249356,21.96,-35.94,-13.4,766,773,773,753,816,33.333333333333336,-0.39,-0.542,0.753
86735,1755586249386,21.94,-35.92,-13.39,763,767,767,758,816,34.48275862068966,-0.393,-0.544,0.749
86765,1755586249415,21.95,-35.87,-13.36,760,774,776,760,819,33.333333333333336,-0.391,-0.541,0.748
86795,1755586249445,21.83,-35.85,-13.39,766,769,763,757,814,33.333333333333336,-0.388,-0.538,0.749
86824,1755586249474,21.89,-35.89,-13.41,771,765,773,759,826,34.48275862068966,-0.388,-0.54,0.75
86854,1755586249504,21.92,-35.92,-13.41,771,767,769,752,820,33.333333333333336,-0.392,-0.545,0.748
86883,1755586249534,21.93,-35.9,-13.38,769,779,763,751,824,34.48275862068966,-0.39,-0.545,0.746
86913,1755586249563,21.98,-35.89,-13.36,782,768,768,759,812,33.333333333333336,-0.386,-0.542,0.747
86943,1755586249593,21.99,-35.88,-13.39,767,770,766,750,820,33.333333333333336,-0.385,-0.539,0.749
86972,1755586249622,21.98,-35.88,-13.44,763,773,770,756,817,34.48275862068966,-0.384,-0.538,0.748
87002,1755586249651,22.03,-35.94,-13.45,763,762,774,759,816,33.333333333333336,-0.39,-0.544,0.743
87031,1755586249681,22.16,-36.02,-13.37,762,774,765,757,817,34.48275862068966,-0.394,-0.547,0.74
87061,1755586249710,22.23,-36.05,-13.35,765,765,765,754,820,33.333333333333336,-0.389,-0.539,0.745
87090,1755586249740,22.17,-36.05,-13.43,765,775,770,753,828,34.48275862068966,-0.388,-0.541,0.747
87119,1755586249769,22.16,-36.06,-13.42,767,770,768,756,820,34.48275862068966,-0.39,-0.547,0.742
87149,1755586249799,22.24,-36.11,-13.36,769,774,768,756,822,33.333333333333336,-0.393,-0.546,0.74
87178,1755586249829,22.2,-36.15,-13.37,764,769,766,754,815,34.48275862068966,-0.39,-0.541,0.742
87208,1755586249858,22.18,-36.12,-13.43,767,777,766,762,817,33.333333333333336,-0.391,-0.542,0.743
87238,1755586249888,22.13,-36.17,-13.41,764,773,776,755,814,33.333333333333336,-0.397,-0.548,0.74
87267,1755586249918,22.1,-36.17,-13.37,772,771,764,756,815,34.48275862068966,-0.394,-0.545,0.74
87297,1755586249947,22.05,-36.14,-13.4,760,769,770,757,822,33.333333333333336,-0.393,-0.541,0.741
87326,1755586249977,21.95,-36.14,-13.44,766,772,775,755,812,34.48275862068966,-0.395,-0.544,0.743
87356,1755586250006,21.93,-36.12,-13.41,768,770,776,756,807,33.333333333333336,-0.394,-0.548,0.743
87386,1755586250036,22.03,-36.13,-13.36,768,773,772,754,820,33.333333333333336,-0.389,-0.545,0.743
87415,1755586250066,21.99,-36.0,-13.39,761,766,771,759,822,34.48275862068966,-0.39,-0.544,0.745
87445,1755586250095,21.89,-35.93,-13.49,767,772,769,747,817,33.333333333333336,-0.39,-0.542,0.743
87475,1755586250125,21.91,-35.91,-13.49,768,772,771,757,817,33.333333333333336,-0.392,-0.544,0.74
87504,1755586250155,21.89,-35.92,-13.46,763,765,770,747,815,34.48275862068966,-0.391,-0.545,0.743
87534,1755586250184,21.94,-35.82,-13.42,764,769,770,761,820,33.333333333333336,-0.385,-0.542,0.751
87564,1755586250214,21.95,-35.74,-13.44,770,767,767,757,816,33.333333333333336,-0.386,-0.54,0.752
87593,1755586250243,21.86,-35.68,-13.44,774,769,779,756,825,34.48275862068966,-0.389,-0.534,0.743
87623,1755586250273,21.89,-35.73,-13.44,765,772,768,750,819,33.333333333333336,-0.389,-0.533,0.745
87652,1755586250303,21.85,-35.79,-13.45,767,772,792,750,812,34.48275862068966,-0.389,-0.536,0.753
87682,1755586250332,21.78,-35.71,-13.47,766,769,772,754,820,33.333333333333336,-0.387,-0.536,0.752
87711,1755586250361,21.91,-35.73,-13.46,760,770,771,760,816,34.48275862068966,-0.386,-0.535,0.749
87741,1755586250391,21.76,-35.68,-13.51,768,775,764,746,824,33.333333333333336,-0.391,-0.535,0.749
87771,1755586250421,21.61,-35.73,-13.58,762,774,770,756,818,33.333333333333336,-0.388,-0.535,0.744
87800,1755586250450,21.67,-35.76,-13.57,766,770,772,752,822,34.48275862068966,-0.39,-0.541,0.75
87830,1755586250480,21.55,-35.6,-13.55,766,766,768,754,818,33.333333333333336,-0.386,-0.543,0.759
87859,1755586250509,21.25,-35.37,-13.63,766,768,775,755,816,34.48275862068966,-0.375,-0.537,0.757
87889,1755586250539,21.27,-35.34,-13.71,766,769,771,752,818,33.333333333333336,-0.371,-0.532,0.752
87918,1755586250568,21.32,-35.38,-13.69,762,768,765,758,816,34.48275862068966,-0.386,-0.539,0.755
87948,1755586250598,21.33,-35.4,-13.6,769,770,773,749,806,33.333333333333336,-0.386,-0.537,0.754
87977,1755586250627,21.5,-35.45,-13.6,764,773,775,754,814,34.48275862068966,-0.379,-0.533,0.755
88007,1755586250657,21.28,-35.4,-13.71,772,765,773,749,816,33.333333333333336,-0.374,-0.535,0.759
88037,1755586250687,21.23,-35.47,-13.89,769,765,777,755,814,33.333333333333336,-0.368,-0.534,0.756
88066,1755586250716,21.3,-35.57,-13.95,769,769,772,757,822,34.48275862068966,-0.377,-0.539,0.759
88095,1755586250745,21.27,-35.54,-13.94,772,773,784,751,811,34.48275862068966,-0.381,-0.538,0.758
88125,1755586250775,21.42,-35.59,-13.9,765,768,773,760,810,33.333333333333336,-0.378,-0.537,0.758
88154,1755586250805,21.53,-35.73,-13.88,767,772,770,758,817,34.48275862068966,-0.375,-0.539,0.755
88184,1755586250834,21.47,-35.68,-13.87,776,769,766,763,818,33.333333333333336,-0.38,-0.54,0.758
88214,1755586250864,21.44,-35.71,-13.86,768,778,776,755,821,33.333333333333336,-0.378,-0.539,0.757
88243,1755586250894,21.57,-35.72,-13.81,767,768,769,758,821,34.48275862068966,-0.379,-0.542,0.756
88273,1755586250923,21.48,-35.69,-13.79,765,769,771,752,811,33.333333333333336,-0.375,-0.54,0.756
88303,1755586250953,21.5,-35.69,-13.83,765,775,779,749,823,33.333333333333336,-0.371,-0.536,0.756
88332,1755586250982,21.49,-35.68,-13.86,770,771,773,750,812,34.48275862068966,-0.38,-0.54,0.756
88362,1755586251012,21.45,-35.69,-13.8,766,767,762,754,817,33.333333333333336,-0.382,-0.541,0.75
88391,1755586251041,21.58,-35.76,-13.75,763,770,771,750,815,34.48275862068966,-0.374,-0.538,0.752
88421,1755586251072,21.54,-35.73,-13.79,762,771,772,754,819,33.333333333333336,-0.372,-0.539,0.758
88441,1755586251091,21.45,-35.7,-13.83,759,774,780,750,813,50.0,-0.373,-0.54,0.752
88471,1755586251121,21.53,-35.73,-13.82,764,768,770,750,816,33.333333333333336,-0.38,-0.542,0.749
88500,1755586251150,21.5,-35.76,-13.78,767,777,770,745,803,34.48275862068966,-0.378,-0.543,0.754
88529,1755586251180,21.44,-35.71,-13.8,766,765,773,749,817,34.48275862068966,-0.37,-0.542,0.757
88559,1755586251210,21.47,-35.66,-13.82,765,771,766,748,815,33.333333333333336,-0.373,-0.542,0.755
88589,1755586251239,21.4,-35.64,-13.85,764,769,772,754,814,33.333333333333336,-0.378,-0.539,0.752
88619,1755586251269,21.39,-35.63,-13.87,772,766,775,751,811,33.333333333333336,-0.381,-0.54,0.751
88648,1755586251298,21.42,-35.68,-13.82,764,774,770,753,821,34.48275862068966,-0.378,-0.541,0.75
88678,1755586251328,21.42,-35.69,-13.82,770,756,781,755,822,33.333333333333336,-0.374,-0.537,0.753
88707,1755586251357,21.35,-35.66,-13.87,765,772,774,751,823,34.48275862068966,-0.377,-0.538,0.756
88737,1755586251387,21.34,-35.64,-13.87,768,772,767,752,816,33.333333333333336,-0.381,-0.543,0.754
88767,1755586251417,21.41,-35.67,-13.82,769,773,767,752,815,33.333333333333336,-0.38,-0.542,0.75
88797,1755586251447,21.37,-35.7,-13.83,767,781,770,757,814,33.333333333333336,-0.374,-0.537,0.751
88827,1755586251477,21.26,-35.64,-13.9,770,770,769,745,815,33.333333333333336,-0.371,-0.538,0.752
88856,1755586251506,21.19,-35.62,-13.94,769,781,766,757,818,34.48275862068966,-0.379,-0.543,0.747
88886,1755586251536,21.13,-35.68,-13.88,768,776,770,754,815,33.333333333333336,-0.381,-0.544,0.746
88915,1755586251565,21.14,-35.65,-13.8,767,772,774,751,820,34.48275862068966,-0.374,-0.541,0.756
88945,1755586251595,21.14,-35.6,-13.8,763,779,768,755,811,33.333333333333336,-0.368,-0.534,0.759
88974,1755586251624,21.14,-35.61,-13.84,764,772,772,757,814,34.48275862068966,-0.371,-0.538,0.754
89004,1755586251654,21.18,-35.64,-13.79,765,770,775,761,816,33.333333333333336,-0.378,-0.544,0.753
89033,1755586251683,21.22,-35.64,-13.73,766,775,771,749,821,34.48275862068966,-0.373,-0.541,0.756
89063,1755586251714,21.25,-35.58,-13.76,765,775,768,757,814,33.333333333333336,-0.372,-0.536,0.758
89083,1755586251733,21.2,-35.55,-13.78,770,767,774,752,815,50.0,-0.376,-0.534,0.754
89113,1755586251763,21.22,-35.62,-13.79,770,769,775,751,818,33.333333333333336,-0.38,-0.536,0.75
89142,1755586251792,21.25,-35.66,-13.76,765,772,771,753,814,34.48275862068966,-0.38,-0.539,0.752
89172,1755586251822,21.23,-35.62,-13.74,769,765,764,749,814,33.333333333333336,-0.374,-0.54,0.757
89201,1755586251851,21.2,-35.58,-13.76,765,767,777,754,815,34.48275862068966,-0.37,-0.538,0.755
89231,1755586251881,21.24,-35.61,-13.79,770,768,763,754,814,33.333333333333336,-0.374,-0.536,0.752
89261,1755586251911,21.18,-35.63,-13.8,773,776,775,756,814,33.333333333333336,-0.376,-0.536,0.753
89291,1755586251941,21.23,-35.65,-13.77,766,776,777,754,817,33.333333333333336,-0.376,-0.54,0.757
89320,1755586251971,21.2,-35.64,-13.77,764,776,778,768,815,34.48275862068966,-0.374,-0.541,0.755
89350,1755586252001,21.19,-35.64,-13.77,767,769,766,755,815,33.333333333333336,-0.372,-0.54,0.747
89370,1755586252021,21.19,-35.67,-13.78,770,760,770,760,813,50.0,-0.373,-0.539,0.745
89390,1755586252041,21.16,-35.69,-13.77,767,772,762,757,820,50.0,-0.373,-0.537,0.748
89420,1755586252070,21.19,-35.75,-13.78,772,772,776,753,818,33.333333333333336,-0.374,-0.538,0.756
89449,1755586252100,21.18,-35.7,-13.75,767,771,766,755,818,34.48275862068966,-0.371,-0.545,0.757
89470,1755586252121,21.22,-35.67,-13.71,768,782,770,754,815,47.61904761904762,-0.374,-0.546,0.756
89490,1755586252140,21.27,-35.59,-13.68,769,778,772,754,817,50.0,-0.374,-0.544,0.751
89520,1755586252170,21.23,-35.63,-13.71,769,775,784,745,812,33.333333333333336,-0.373,-0.539,0.748
89549,1755586252199,21.21,-35.65,-13.76,766,769,773,747,818,34.48275862068966,-0.374,-0.539,0.75
89579,1755586252229,21.21,-35.7,-13.76,761,771,770,752,813,33.333333333333336,-0.375,-0.54,0.753
89608,1755586252258,21.35,-35.66,-13.72,772,779,765,756,819,34.48275862068966,-0.379,-0.536,0.753
89638,1755586252288,21.24,-35.69,-13.76,771,772,770,754,812,33.333333333333336,-0.378,-0.533,0.748
89667,1755586252317,21.31,-35.78,-13.75,764,777,776,757,812,34.48275862068966,-0.379,-0.538,0.75
89697,1755586252347,21.29,-35.8,-13.72,764,771,774,754,824,33.333333333333336,-0.378,-0.54,0.754
89726,1755586252377,21.32,-35.78,-13.72,767,773,774,759,810,34.48275862068966,-0.373,-0.535,0.754
89756,1755586252406,21.34,-35.8,-13.75,767,770,771,750,821,33.333333333333336,-0.374,-0.538,0.755
89786,1755586252436,21.33,-35.77,-13.72,769,770,782,749,815,33.333333333333336,-0.379,-0.542,0.752
89815,1755586252466,21.38,-35.82,-13.69,767,775,769,754,818,34.48275862068966,-0.38,-0.539,0.749
89845,1755586252495,21.35,-35.83,-13.71,765,772,770,753,821,33.333333333333336,-0.38,-0.54,0.753
89875,1755586252525,21.35,-35.8,-13.7,768,774,776,755,814,33.333333333333336,-0.376,-0.543,0.757
89904,1755586252555,21.35,-35.71,-13.68,770,788,781,756,810,34.48275862068966,-0.372,-0.542,0.756
89934,1755586252585,21.39,-35.67,-13.69,762,771,775,754,818,33.333333333333336,-0.377,-0.54,0.754
89954,1755586252604,21.36,-35.67,-13.71,766,771,770,748,817,50.0,-0.382,-0.54,0.748
89984,1755586252634,21.41,-35.71,-13.69,767,770,773,755,822,33.333333333333336,-0.384,-0.541,0.749
90014,1755586252664,21.39,-35.71,-13.67,765,779,767,755,809,33.333333333333336,-0.378,-0.538,0.757
90043,1755586252693,21.4,-35.63,-13.71,769,774,774,753,826,34.48275862068966,-0.375,-0.538,0.759
90073,1755586252723,21.39,-35.63,-13.74,766,778,765,753,820,33.333333333333336,-0.379,-0.539,0.75
90102,1755586252752,21.45,-35.72,-13.73,764,772,778,755,813,34.48275862068966,-0.384,-0.537,0.744
90131,1755586252782,21.4,-35.75,-13.73,765,770,775,761,816,34.48275862068966,-0.386,-0.538,0.749
90161,1755586252811,21.36,-35.75,-13.72,763,768,772,758,814,33.333333333333336,-0.384,-0.543,0.755
90191,1755586252841,21.4,-35.7,-13.67,770,775,776,756,841,33.333333333333336,-0.379,-0.546,0.755
90220,1755586252870,21.37,-35.67,-13.65,760,784,772,758,822,34.48275862068966,-0.371,-0.537,0.751
90250,1755586252900,21.39,-35.72,-13.72,768,766,770,758,815,33.333333333333336,-0.375,-0.534,0.754
90279,1755586252930,21.32,-35.72,-13.74,764,765,767,752,830,34.48275862068966,-0.384,-0.541,0.755
90309,1755586252959,21.4,-35.76,-13.67,765,773,773,758,831,33.333333333333336,-0.381,-0.542,0.751
90339,1755586252989,21.44,-35.77,-13.66,763,760,763,758,826,33.333333333333336,-0.375,-0.539,0.754
90368,1755586253018,21.33,-35.73,-13.74,767,776,774,757,812,34.48275862068966,-0.374,-0.535,0.754
90398,1755586253048,21.39,-35.79,-13.8,770,774,771,758,813,33.333333333333336,-0.379,-0.541,0.755
90427,1755586253077,21.39,-35.82,-13.8,766,768,775,756,811,34.48275862068966,-0.378,-0.546,0.754
90457,1755586253107,21.36,-35.73,-13.81,767,779,768,754,811,33.333333333333336,-0.372,-0.542,0.751
90486,1755586253136,21.43,-35.75,-13.86,766,761,763,756,822,34.48275862068966,-0.372,-0.539,0.753
90516,1755586253166,21.37,-35.73,-13.9,768,770,774,750,815,33.333333333333336,-0.377,-0.542,0.754
90545,1755586253195,21.37,-35.72,-13.93,761,776,774,753,812,34.48275862068966,-0.379,-0.541,0.754
90575,1755586253225,21.37,-35.68,-13.95,770,778,774,757,814,33.333333333333336,-0.382,-0.54,0.751
90604,1755586253254,21.45,-35.76,-13.94,771,779,771,757,814,34.48275862068966,-0.385,-0.54,0.747
90634,1755586253284,21.44,-35.81,-13.9,765,772,772,748,817,33.333333333333336,-0.383,-0.541,0.751
90663,1755586253313,21.42,-35.84,-13.89,759,778,771,752,821,34.48275862068966,-0.375,-0.54,0.756
90693,1755586253343,21.46,-35.81,-13.9,764,769,771,758,820,33.333333333333336,-0.374,-0.541,0.753
90722,1755586253372,21.43,-35.8,-13.89,769,772,764,753,814,34.48275862068966,-0.383,-0.542,0.749
90752,1755586253402,21.46,-35.84,-13.84,769,775,768,751,826,33.333333333333336,-0.386,-0.543,0.75
90781,1755586253432,21.56,-35.86,-13.75,765,770,772,763,815,34.48275862068966,-0.381,-0.544,0.753
90811,1755586253461,21.59,-35.87,-13.73,767,773,764,751,827,33.333333333333336,-0.379,-0.543,0.754
90841,1755586253491,21.5,-35.87,-13.76,766,784,772,751,822,33.333333333333336,-0.376,-0.54,0.759
90870,1755586253520,21.53,-35.84,-13.75,763,772,769,756,818,34.48275862068966,-0.38,-0.542,0.76
90900,1755586253550,21.52,-35.82,-13.71,768,775,776,758,821,33.333333333333336,-0.379,-0.542,0.756
90929,1755586253580,21.53,-35.91,-13.72,764,775,769,756,810,34.48275862068966,-0.376,-0.538,0.752
90959,1755586253609,21.42,-35.9,-13.78,766,766,773,755,809,33.333333333333336,-0.379,-0.541,0.755
90989,1755586253639,21.41,-35.86,-13.77,766,761,774,751,817,33.333333333333336,-0.382,-0.544,0.757
91018,1755586253668,21.51,-35.87,-13.73,762,770,773,755,815,34.48275862068966,-0.378,-0.541,0.753
91048,1755586253698,21.47,-35.84,-13.77,765,765,768,757,815,33.333333333333336,-0.379,-0.538,0.752
91077,1755586253727,21.37,-35.88,-13.81,767,771,772,747,815,34.48275862068966,-0.382,-0.542,0.748
91107,1755586253757,21.43,-35.93,-13.78,770,776,762,751,815,33.333333333333336,-0.38,-0.544,0.749
91136,1755586253787,21.41,-35.93,-13.79,770,773,772,753,814,34.48275862068966,-0.38,-0.538,0.753
