timestamp_ms,recv_timestamp_ms,pitch,roll,yaw,flex1,flex2,flex3,flex4,flex5,sampling_hz,accel_x,accel_y,accel_z
47496,1755586552395,36.36,176.49,-38.65,814,759,818,867,880,34.48275862068966,-0.626,0.053,-0.79
47526,1755586552425,36.51,176.42,-38.58,814,764,818,857,871,33.333333333333336,-0.628,0.057,-0.795
47555,1755586552454,36.58,176.49,-38.53,807,773,828,860,876,34.48275862068966,-0.615,0.056,-0.79
47585,1755586552484,36.57,176.6,-38.55,818,768,817,859,869,33.333333333333336,-0.61,0.049,-0.795
47615,1755586552513,36.54,176.58,-38.57,816,762,826,869,874,33.333333333333336,-0.614,0.049,-0.807
47644,1755586552543,36.54,176.46,-38.58,810,769,825,867,872,34.48275862068966,-0.628,0.049,-0.806
47673,1755586552572,36.59,176.43,-38.47,811,779,825,864,902,34.48275862068966,-0.627,0.046,-0.791
47703,1755586552602,36.75,176.53,-38.3,813,767,833,863,872,33.333333333333336,-0.616,0.048,-0.785
47732,1755586552632,36.94,176.53,-38.24,809,775,819,868,879,34.48275862068966,-0.614,0.053,-0.798
47762,1755586552661,36.93,176.48,-38.26,813,773,830,869,875,33.333333333333336,-0.613,0.054,-0.808
47791,1755586552690,36.82,176.45,-38.3,815,767,821,871,880,34.48275862068966,-0.61,0.053,-0.803
47821,1755586552720,36.84,176.5,-38.26,811,770,834,873,873,33.333333333333336,-0.611,0.052,-0.797
47850,1755586552750,36.97,176.56,-38.18,815,773,822,867,868,34.48275862068966,-0.613,0.053,-0.803
47880,1755586552779,36.93,176.53,-38.19,811,770,828,854,875,33.333333333333336,-0.61,0.055,-0.806
47910,1755586552809,36.8,176.44,-38.31,813,767,819,857,880,33.333333333333336,-0.613,0.053,-0.793
47939,1755586552838,36.83,176.54,-38.34,808,762,816,868,871,34.48275862068966,-0.614,0.054,-0.785
47969,1755586552868,36.92,176.65,-38.38,814,771,836,865,873,33.333333333333336,-0.616,0.055,-0.792
47999,1755586552897,36.86,176.63,-38.51,810,778,822,868,877,33.333333333333336,-0.619,0.056,-0.806
48028,1755586552927,36.74,176.59,-38.59,815,766,821,873,882,34.48275862068966,-0.618,0.047,-0.798
48058,1755586552957,36.8,176.67,-38.54,818,771,827,867,881,33.333333333333336,-0.616,0.045,-0.792
48087,1755586552986,36.92,176.7,-38.5,814,765,814,866,882,34.48275862068966,-0.62,0.046,-0.802
48116,1755586553015,36.88,176.67,-38.49,812,766,825,865,871,34.48275862068966,-0.619,0.046,-0.807
48146,1755586553045,36.83,176.68,-38.48,819,762,827,863,881,33.333333333333336,-0.614,0.046,-0.804
48175,1755586553074,36.74,176.72,-38.51,810,775,823,858,876,34.48275862068966,-0.61,0.047,-0.805
48205,1755586553104,36.72,176.67,-38.54,814,767,835,864,868,33.333333333333336,-0.616,0.046,-0.8
48235,1755586553134,36.81,176.66,-38.51,808,759,825,867,880,33.333333333333336,-0.621,0.05,-0.795
48264,1755586553163,36.75,176.72,-38.53,806,768,826,860,877,34.48275862068966,-0.623,0.051,-0.788
48294,1755586553193,36.64,176.91,-38.54,807,770,827,876,882,33.333333333333336,-0.622,0.046,-0.801
48323,1755586553222,36.65,176.86,-38.51,811,767,825,864,878,34.48275862068966,-0.623,0.044,-0.801
48353,1755586553252,36.68,176.82,-38.49,808,768,823,865,881,33.333333333333336,-0.621,0.048,-0.792
48382,1755586553281,36.62,176.91,-38.47,815,765,826,867,879,34.48275862068966,-0.624,0.047,-0.79
48412,1755586553311,36.7,176.96,-38.37,815,766,828,864,884,33.333333333333336,-0.625,0.045,-0.793
48441,1755586553340,36.84,176.94,-38.27,813,766,820,865,877,34.48275862068966,-0.625,0.042,-0.79
48471,1755586553370,36.88,176.98,-38.19,812,767,819,857,882,33.333333333333336,-0.622,0.043,-0.79
48501,1755586553400,37.01,177.0,-38.09,811,775,825,865,873,33.333333333333336,-0.623,0.044,-0.795
48530,1755586553429,37.19,176.96,-37.98,814,770,815,865,887,34.48275862068966,-0.62,0.045,-0.795
48560,1755586553458,37.51,176.86,-37.83,811,764,825,865,876,33.333333333333336,-0.618,0.046,-0.799
48589,1755586553488,37.74,176.77,-37.64,810,764,819,864,872,34.48275862068966,-0.622,0.045,-0.801
48619,1755586553518,37.91,176.73,-37.42,808,767,831,861,875,33.333333333333336,-0.622,0.048,-0.803
48648,1755586553547,38.0,176.7,-37.26,813,766,825,874,880,34.48275862068966,-0.617,0.053,-0.801
48678,1755586553576,38.02,176.63,-37.22,813,766,830,857,878,33.333333333333336,-0.606,0.057,-0.795
48707,1755586553606,38.04,176.68,-37.23,808,770,812,867,873,34.48275862068966,-0.6,0.06,-0.788
48737,1755586553636,38.04,176.74,-37.3,809,788,807,856,874,33.333333333333336,-0.602,0.064,-0.803
48766,1755586553665,37.99,176.6,-37.4,810,766,821,856,872,34.48275862068966,-0.61,0.059,-0.804
48796,1755586553695,38.03,176.57,-37.33,815,763,833,866,863,33.333333333333336,-0.608,0.056,-0.795
48825,1755586553725,38.06,176.65,-37.31,816,766,833,870,878,34.48275862068966,-0.602,0.058,-0.803
48855,1755586553754,37.99,176.61,-37.3,810,769,821,866,899,33.333333333333336,-0.599,0.059,-0.804
48885,1755586553784,38.01,176.61,-37.25,815,763,822,866,870,33.333333333333336,-0.603,0.061,-0.799
48914,1755586553813,38.03,176.6,-37.23,811,770,807,873,878,34.48275862068966,-0.605,0.063,-0.805
48944,1755586553843,38.09,176.49,-37.26,810,768,828,869,895,33.333333333333336,-0.601,0.064,-0.809
48973,1755586553873,38.12,176.42,-37.3,809,767,837,866,885,34.48275862068966,-0.595,0.063,-0.808
49003,1755586553902,38.03,176.33,-37.39,804,769,821,860,874,33.333333333333336,-0.597,0.063,-0.811
49033,1755586553932,38.16,176.17,-37.38,812,765,835,866,871,33.333333333333336,-0.603,0.06,-0.812
49062,1755586553961,38.56,175.89,-37.22,816,769,823,874,872,34.48275862068966,-0.606,0.058,-0.805
49092,1755586553991,38.95,175.77,-36.93,817,765,822,866,874,33.333333333333336,-0.609,0.06,-0.799
49121,1755586554020,39.4,175.68,-36.58,817,768,824,858,868,34.48275862068966,-0.599,0.065,-0.808
49151,1755586554050,39.76,175.43,-36.37,813,769,824,864,865,33.333333333333336,-0.586,0.07,-0.813
49180,1755586554079,39.91,175.22,-36.3,807,771,823,873,875,34.48275862068966,-0.581,0.079,-0.82
49210,1755586554109,39.89,175.05,-36.31,812,767,826,867,874,33.333333333333336,-0.58,0.082,-0.816
49239,1755586554138,39.76,175.03,-36.35,810,778,824,863,871,34.48275862068966,-0.57,0.086,-0.818
49269,1755586554167,39.64,175.03,-36.4,811,769,820,860,862,33.333333333333336,-0.566,0.084,-0.816
49298,1755586554197,39.54,175.03,-36.4,811,773,836,861,877,34.48275862068966,-0.566,0.086,-0.826
49328,1755586554227,39.42,174.97,-36.41,816,764,817,867,873,33.333333333333336,-0.567,0.089,-0.833
49357,1755586554256,39.34,174.83,-36.44,809,767,815,865,879,34.48275862068966,-0.567,0.087,-0.826
49387,1755586554286,39.25,174.87,-36.38,817,777,827,864,867,33.333333333333336,-0.565,0.089,-0.821
49417,1755586554316,39.27,174.83,-36.36,815,764,820,869,879,33.333333333333336,-0.562,0.093,-0.832
49446,1755586554345,39.23,174.66,-36.42,812,767,827,860,879,34.48275862068966,-0.564,0.092,-0.831
49475,1755586554374,39.11,174.62,-36.44,817,765,825,861,878,34.48275862068966,-0.564,0.092,-0.825
49505,1755586554404,39.04,174.62,-36.42,806,764,817,869,875,33.333333333333336,-0.561,0.093,-0.829
49535,1755586554434,38.95,174.54,-36.4,816,768,824,867,876,33.333333333333336,-0.566,0.092,-0.829
49564,1755586554463,38.87,174.53,-36.37,823,771,824,869,875,34.48275862068966,-0.56,0.095,-0.828
49594,1755586554493,38.74,174.49,-36.37,816,762,826,868,875,33.333333333333336,-0.562,0.093,-0.828
49623,1755586554523,38.7,174.46,-36.28,817,773,823,870,861,34.48275862068966,-0.566,0.093,-0.826
49643,1755586554542,38.64,174.47,-36.23,813,765,819,866,878,50.0,-0.561,0.096,-0.828
49673,1755586554572,38.5,174.44,-36.23,816,775,831,875,879,33.333333333333336,-0.558,0.097,-0.833
49702,1755586554601,38.86,174.36,-36.18,808,775,838,871,873,34.48275862068966,-0.558,0.097,-0.83
49732,1755586554631,38.77,174.34,-36.18,813,770,815,868,878,33.333333333333336,-0.555,0.098,-0.827
49761,1755586554660,38.74,174.38,-36.12,808,768,816,863,883,34.48275862068966,-0.554,0.1,-0.826
49791,1755586554690,38.7,174.43,-36.11,815,760,821,864,862,33.333333333333336,-0.553,0.104,-0.839
49820,1755586554719,38.51,174.32,-36.15,814,760,821,865,868,34.48275862068966,-0.554,0.099,-0.838
49850,1755586554749,38.38,174.35,-36.09,812,771,824,868,880,33.333333333333336,-0.553,0.098,-0.829
49879,1755586554779,38.31,174.39,-36.05,808,769,824,863,867,34.48275862068966,-0.552,0.1,-0.833
49909,1755586554808,38.24,174.27,-36.05,818,769,823,867,873,33.333333333333336,-0.559,0.101,-0.838
49939,1755586554838,38.18,174.28,-35.99,815,774,818,863,877,33.333333333333336,-0.558,0.101,-0.831
49969,1755586554868,38.11,174.23,-35.97,813,768,821,867,880,33.333333333333336,-0.554,0.099,-0.835
49999,1755586554897,38.0,174.19,-35.97,813,763,835,864,872,33.333333333333336,-0.553,0.099,-0.832
50028,1755586554927,37.85,174.23,-35.98,819,772,809,863,869,34.48275862068966,-0.554,0.104,-0.831
50057,1755586554956,37.72,174.2,-36.01,813,775,823,858,876,34.48275862068966,-0.558,0.101,-0.828
50087,1755586554986,37.72,174.19,-35.93,810,767,817,872,877,33.333333333333336,-0.556,0.101,-0.833
50116,1755586555015,37.63,174.14,-35.94,814,774,824,859,876,34.48275862068966,-0.555,0.104,-0.835
50146,1755586555045,37.49,174.56,-35.96,808,769,815,864,884,33.333333333333336,-0.559,0.102,-0.827
50175,1755586555074,37.47,174.6,-35.93,812,769,825,865,869,34.48275862068966,-0.557,0.103,-0.828
50205,1755586555104,37.44,174.58,-35.9,813,773,804,864,870,33.333333333333336,-0.557,0.1,-0.829
50234,1755586555133,37.34,174.6,-35.87,810,772,817,857,869,34.48275862068966,-0.555,0.099,-0.833
50264,1755586555163,37.25,174.6,-35.82,817,764,816,862,877,33.333333333333336,-0.553,0.1,-0.838
50294,1755586555193,37.23,174.52,-35.79,807,766,821,870,872,33.333333333333336,-0.55,0.1,-0.839
50323,1755586555222,37.15,174.46,-35.79,815,771,806,867,876,34.48275862068966,-0.549,0.099,-0.835
50353,1755586555252,37.06,174.43,-35.75,815,768,822,870,878,33.333333333333336,-0.553,0.1,-0.837
50383,1755586555282,36.99,174.39,-35.72,807,770,821,867,877,33.333333333333336,-0.557,0.104,-0.839
50413,1755586555311,36.91,174.36,-35.7,813,766,819,860,883,33.333333333333336,-0.554,0.105,-0.832
50442,1755586555341,36.81,174.38,-35.72,808,771,816,866,878,34.48275862068966,-0.549,0.107,-0.836
50471,1755586555370,36.72,174.32,-35.8,812,773,821,868,880,34.48275862068966,-0.547,0.107,-0.835
50501,1755586555400,36.59,174.31,-35.87,810,768,824,863,870,33.333333333333336,-0.552,0.104,-0.834
50531,1755586555430,36.53,174.34,-35.88,813,771,829,862,868,33.333333333333336,-0.557,0.1,-0.837
50560,1755586555459,36.52,174.29,-35.83,816,765,820,862,872,34.48275862068966,-0.558,0.098,-0.839
50590,1755586555489,36.42,174.27,-35.8,818,768,837,867,879,33.333333333333336,-0.557,0.101,-0.836
50619,1755586555518,36.32,174.28,-35.81,815,765,824,861,862,34.48275862068966,-0.553,0.104,-0.834
50649,1755586555548,36.24,174.23,-35.85,812,769,828,864,875,33.333333333333336,-0.551,0.103,-0.835
50678,1755586555577,36.14,174.23,-35.9,815,777,823,874,859,34.48275862068966,-0.553,0.102,-0.831
50708,1755586555607,36.09,174.25,-35.9,808,758,831,859,864,33.333333333333336,-0.557,0.101,-0.828
50737,1755586555636,35.97,174.24,-35.92,815,766,819,863,881,34.48275862068966,-0.559,0.101,-0.834
50767,1755586555666,35.91,174.21,-35.92,809,770,833,860,869,33.333333333333336,-0.557,0.1,-0.836
50796,1755586555695,35.86,174.17,-35.92,820,768,819,859,871,34.48275862068966,-0.555,0.1,-0.833
50826,1755586555725,35.81,174.15,-35.92,810,771,827,859,871,33.333333333333336,-0.557,0.101,-0.827
50856,1755586555755,35.73,174.21,-35.94,817,770,809,874,873,33.333333333333336,-0.557,0.101,-0.827
50885,1755586555784,35.66,174.24,-35.96,817,767,816,869,871,34.48275862068966,-0.559,0.1,-0.828
50915,1755586555814,35.62,174.26,-35.96,814,770,832,865,870,33.333333333333336,-0.563,0.096,-0.827
50935,1755586555834,35.59,174.27,-35.91,812,772,818,863,884,50.0,-0.567,0.09,-0.816
50964,1755586555863,35.79,174.44,-35.69,813,768,826,870,874,34.48275862068966,-0.561,0.097,-0.816
50994,1755586555893,35.96,174.74,-35.65,810,778,820,868,875,33.333333333333336,-0.552,0.108,-0.834
51023,1755586555922,35.73,174.69,-35.82,814,766,830,859,878,34.48275862068966,-0.548,0.104,-0.838
51053,1755586555952,35.57,174.78,-35.92,812,773,819,863,862,33.333333333333336,-0.548,0.096,-0.83
51082,1755586555981,35.41,174.83,-36.03,813,774,827,871,881,34.48275862068966,-0.557,0.088,-0.838
51112,1755586556011,35.31,174.8,-36.01,813,766,822,866,882,33.333333333333336,-0.567,0.085,-0.839
51142,1755586556041,35.4,174.73,-35.82,814,772,820,862,876,33.333333333333336,-0.571,0.083,-0.834
51171,1755586556070,35.5,174.71,-35.65,814,767,821,860,876,34.48275862068966,-0.564,0.085,-0.831
51201,1755586556100,35.45,174.7,-35.59,812,771,824,863,867,33.333333333333336,-0.554,0.089,-0.835
51230,1755586556131,35.46,174.67,-35.54,815,775,825,868,879,34.48275862068966,-0.553,0.089,-0.837
51251,1755586556150,35.46,174.67,-35.48,813,772,826,862,875,47.61904761904762,-0.56,0.088,-0.832
51281,1755586556180,35.49,174.77,-35.33,807,762,818,869,870,33.333333333333336,-0.565,0.086,-0.824
51310,1755586556209,35.6,174.86,-35.13,812,763,826,864,886,34.48275862068966,-0.562,0.084,-0.823
51340,1755586556239,35.87,175.01,-34.88,816,773,826,858,876,33.333333333333336,-0.556,0.094,-0.834
51369,1755586556269,35.77,175.07,-34.85,812,764,818,866,872,34.48275862068966,-0.544,0.096,-0.838
51399,1755586556298,35.64,175.09,-34.91,809,767,817,852,873,33.333333333333336,-0.539,0.097,-0.842
51429,1755586556328,35.61,175.0,-35.02,813,773,820,865,873,33.333333333333336,-0.541,0.097,-0.85
51449,1755586556348,35.48,174.91,-35.15,815,768,813,871,874,50.0,-0.544,0.095,-0.849
51478,1755586556377,35.35,174.89,-35.21,814,765,818,869,873,34.48275862068966,-0.552,0.088,-0.832
51508,1755586556407,35.43,174.99,-35.11,814,776,823,866,880,33.333333333333336,-0.557,0.089,-0.84
51537,1755586556437,35.37,174.89,-35.13,815,766,822,864,872,34.48275862068966,-0.553,0.087,-0.848
51567,1755586556466,35.27,174.81,-35.16,811,768,827,869,898,33.333333333333336,-0.551,0.085,-0.834
51596,1755586556495,35.28,174.95,-35.1,810,778,823,866,876,34.48275862068966,-0.553,0.089,-0.833
51626,1755586556525,35.29,174.96,-35.07,808,776,822,856,881,33.333333333333336,-0.554,0.086,-0.834
51655,1755586556554,35.35,175.04,-34.99,811,771,826,872,876,34.48275862068966,-0.545,0.082,-0.827
51685,1755586556584,35.41,175.17,-34.98,813,771,821,864,881,33.333333333333336,-0.545,0.086,-0.839
51714,1755586556614,35.23,175.15,-35.1,814,774,831,862,879,34.48275862068966,-0.552,0.09,-0.846
51744,1755586556644,35.18,175.15,-35.11,810,766,817,862,873,33.333333333333336,-0.557,0.087,-0.839
51774,1755586556673,35.26,175.2,-35.0,810,776,817,865,884,33.333333333333336,-0.548,0.089,-0.847
51803,1755586556702,35.17,175.11,-35.09,813,774,824,857,874,34.48275862068966,-0.548,0.086,-0.849
51833,1755586556732,35.04,175.12,-35.11,812,773,826,860,869,33.333333333333336,-0.548,0.087,-0.844
51862,1755586556761,35.04,175.11,-35.09,811,763,823,867,882,34.48275862068966,-0.552,0.083,-0.843
51892,1755586556791,35.01,175.06,-35.04,813,767,818,878,869,33.333333333333336,-0.552,0.083,-0.839
51921,1755586556820,35.03,175.1,-34.99,813,765,831,865,871,34.48275862068966,-0.552,0.085,-0.841
51951,1755586556850,35.0,175.05,-35.01,808,771,823,870,909,33.333333333333336,-0.548,0.084,-0.842
51980,1755586556879,35.0,174.96,-35.03,817,770,834,860,863,34.48275862068966,-0.547,0.083,-0.838
52010,1755586556909,35.13,174.99,-34.94,813,771,823,863,872,33.333333333333336,-0.548,0.085,-0.84
52039,1755586556938,35.21,174.9,-34.93,811,755,823,860,872,34.48275862068966,-0.547,0.087,-0.851
52069,1755586556968,35.14,174.79,-35.0,808,773,824,862,879,33.333333333333336,-0.543,0.086,-0.848
52098,1755586556997,35.15,174.76,-34.99,817,772,821,877,868,34.48275862068966,-0.541,0.086,-0.845
52128,1755586557027,35.2,174.72,-34.97,811,771,816,861,873,33.333333333333336,-0.542,0.087,-0.851
52157,1755586557056,35.06,174.67,-35.04,808,773,834,863,874,34.48275862068966,-0.538,0.089,-0.849
52187,1755586557085,34.91,174.63,-35.1,808,773,825,868,886,33.333333333333336,-0.54,0.087,-0.846
52216,1755586557115,34.95,174.63,-35.02,816,774,816,865,880,34.48275862068966,-0.546,0.085,-0.847
52246,1755586557145,34.94,174.57,-34.99,811,768,825,871,864,33.333333333333336,-0.537,0.086,-0.85
52275,1755586557174,34.84,174.47,-35.0,812,777,818,875,880,34.48275862068966,-0.539,0.086,-0.842
52305,1755586557204,34.89,174.91,-34.92,810,777,826,857,879,33.333333333333336,-0.539,0.09,-0.844
52334,1755586557233,34.82,174.88,-34.87,808,770,823,866,877,34.48275862068966,-0.538,0.091,-0.847
52364,1755586557263,34.77,174.79,-34.85,808,769,824,858,875,33.333333333333336,-0.536,0.092,-0.848
52393,1755586557292,34.72,174.62,-34.88,812,770,819,870,873,34.48275862068966,-0.541,0.091,-0.849
52423,1755586557322,34.71,174.58,-34.84,807,766,818,866,863,33.333333333333336,-0.542,0.092,-0.842
52453,1755586557352,34.76,174.61,-34.76,809,771,815,870,859,33.333333333333336,-0.536,0.095,-0.842
52482,1755586557381,34.71,174.6,-34.76,813,767,825,864,874,34.48275862068966,-0.535,0.098,-0.851
52512,1755586557412,34.67,174.51,-34.68,811,771,825,872,881,33.333333333333336,-0.546,0.095,-0.851
52532,1755586557431,34.62,174.56,-34.55,814,769,818,867,880,50.0,-0.552,0.095,-0.851
52562,1755586557460,34.59,174.46,-34.38,811,778,827,872,904,33.333333333333336,-0.543,0.095,-0.855
52591,1755586557490,34.6,174.25,-34.28,810,763,824,872,900,34.48275862068966,-0.539,0.09,-0.848
52620,1755586557519,34.64,174.41,-33.98,813,765,823,856,890,34.48275862068966,-0.534,0.09,-0.832
52650,1755586557549,34.71,174.91,-33.57,814,780,818,862,895,33.333333333333336,-0.53,0.094,-0.825
52680,1755586557579,34.85,175.31,-33.23,807,773,824,863,897,33.333333333333336,-0.535,0.096,-0.837
52709,1755586557609,34.78,175.48,-33.16,809,776,822,869,893,34.48275862068966,-0.52,0.11,-0.859
52739,1755586557638,34.69,175.25,-33.32,812,776,818,868,900,33.333333333333336,-0.511,0.11,-0.862
52769,1755586557667,34.68,174.91,-33.46,814,765,817,859,888,33.333333333333336,-0.512,0.109,-0.861
52798,1755586557697,34.58,174.75,-33.64,809,765,822,864,889,34.48275862068966,-0.517,0.112,-0.86
52827,1755586557727,34.29,174.62,-33.85,815,771,826,857,888,34.48275862068966,-0.522,0.102,-0.852
52857,1755586557756,34.28,174.54,-33.82,812,765,819,865,894,33.333333333333336,-0.528,0.097,-0.846
52887,1755586557785,34.35,174.5,-33.8,812,769,814,869,893,33.333333333333336,-0.532,0.103,-0.853
52916,1755586557815,34.17,174.39,-33.89,807,773,816,871,883,34.48275862068966,-0.529,0.104,-0.848
52946,1755586557845,34.2,174.27,-33.95,816,773,817,859,890,33.333333333333336,-0.536,0.104,-0.843
52975,1755586557874,34.3,174.33,-33.9,808,774,819,862,885,34.48275862068966,-0.534,0.105,-0.842
53005,1755586557904,34.13,174.36,-33.93,814,770,822,865,888,33.333333333333336,-0.53,0.103,-0.854
53034,1755586557934,33.99,174.31,-33.94,811,766,818,864,889,34.48275862068966,-0.529,0.1,-0.858
53064,1755586557963,33.98,174.21,-33.88,814,766,824,858,889,33.333333333333336,-0.528,0.1,-0.854
53094,1755586557993,33.97,174.2,-33.77,812,764,818,874,885,33.333333333333336,-0.534,0.103,-0.853
53123,1755586558022,33.91,174.15,-33.7,811,766,821,880,890,34.48275862068966,-0.532,0.104,-0.844
53153,1755586558052,34.05,174.18,-33.58,816,767,822,862,891,33.333333333333336,-0.528,0.11,-0.852
53183,1755586558081,33.98,174.09,-33.61,820,776,828,858,884,33.333333333333336,-0.521,0.114,-0.861
53212,1755586558111,33.79,174.06,-33.74,813,772,826,869,876,34.48275862068966,-0.51,0.111,-0.851
53242,1755586558141,33.7,174.03,-33.81,813,766,813,862,890,33.333333333333336,-0.516,0.107,-0.853
53271,1755586558170,33.79,173.93,-33.78,812,771,818,867,878,34.48275862068966,-0.53,0.109,-0.864
53301,1755586558199,33.67,173.79,-33.79,815,765,820,858,890,33.333333333333336,-0.529,0.108,-0.859
53330,1755586558229,33.51,173.71,-33.82,809,761,822,869,891,34.48275862068966,-0.528,0.108,-0.845
53359,1755586558258,33.66,173.79,-33.7,813,768,811,880,882,34.48275862068966,-0.525,0.11,-0.851
53389,1755586558288,33.62,173.7,-33.77,812,769,821,866,886,33.333333333333336,-0.523,0.113,-0.861
53418,1755586558317,33.38,173.59,-33.87,816,766,817,869,895,34.48275862068966,-0.526,0.113,-0.851
53448,1755586558347,33.38,173.52,-33.88,812,772,822,863,887,33.333333333333336,-0.528,0.111,-0.85
53477,1755586558376,33.37,173.4,-33.93,813,773,817,873,893,34.48275862068966,-0.529,0.111,-0.851
53507,1755586558406,33.14,173.54,-33.95,811,769,819,864,883,33.333333333333336,-0.53,0.114,-0.846
53536,1755586558435,33.06,173.82,-33.81,810,771,823,867,890,34.48275862068966,-0.529,0.112,-0.84
53566,1755586558465,33.16,173.9,-33.64,813,767,821,867,877,33.333333333333336,-0.531,0.113,-0.855
53595,1755586558494,33.01,173.83,-33.64,811,768,817,864,879,34.48275862068966,-0.53,0.114,-0.856
53625,1755586558523,32.93,173.75,-33.6,807,769,820,887,883,33.333333333333336,-0.532,0.115,-0.852
53654,1755586558553,33.04,173.67,-33.51,812,771,817,868,883,34.48275862068966,-0.527,0.114,-0.85
53683,1755586558583,32.93,173.66,-33.52,807,769,818,867,874,34.48275862068966,-0.523,0.117,-0.853
53713,1755586558612,32.82,173.59,-33.66,809,764,814,867,885,33.333333333333336,-0.525,0.12,-0.847
53742,1755586558641,32.81,173.5,-33.82,817,771,827,870,883,34.48275862068966,-0.533,0.118,-0.842
53772,1755586558671,32.75,173.52,-33.92,814,770,825,856,888,33.333333333333336,-0.535,0.119,-0.843
53801,1755586558700,32.66,173.64,-33.93,815,775,816,872,880,34.48275862068966,-0.532,0.116,-0.846
53831,1755586558730,32.63,173.66,-34.02,810,774,821,864,872,33.333333333333336,-0.527,0.111,-0.852
53860,1755586558759,32.47,173.67,-34.13,813,761,814,864,876,34.48275862068966,-0.524,0.106,-0.85
53890,1755586558788,32.32,173.74,-34.2,811,768,824,860,886,33.333333333333336,-0.528,0.106,-0.86
53919,1755586558818,32.29,173.71,-34.21,816,766,821,872,881,34.48275862068966,-0.533,0.103,-0.852
53948,1755586558847,32.28,173.72,-34.2,816,774,827,858,887,34.48275862068966,-0.537,0.103,-0.842
53978,1755586558877,32.33,173.85,-34.17,813,768,823,869,878,33.333333333333336,-0.532,0.108,-0.842
54007,1755586558906,32.34,173.88,-34.29,811,764,822,851,888,34.48275862068966,-0.525,0.109,-0.843
54037,1755586558936,32.22,173.99,-34.47,807,776,812,873,883,33.333333333333336,-0.532,0.107,-0.848
54066,1755586558965,32.04,174.04,-34.59,811,759,815,866,882,34.48275862068966,-0.54,0.096,-0.857
54096,1755586558995,31.93,174.01,-34.65,817,776,820,881,882,33.333333333333336,-0.544,0.089,-0.85
54125,1755586559025,31.77,174.03,-34.72,818,775,815,867,881,34.48275862068966,-0.548,0.09,-0.837
54155,1755586559055,31.91,174.21,-34.65,809,788,833,873,880,33.333333333333336,-0.548,0.1,-0.842
54175,1755586559074,31.97,174.21,-34.66,810,773,824,872,890,50.0,-0.546,0.102,-0.844
54205,1755586559104,31.92,174.21,-34.82,815,773,825,856,883,33.333333333333336,-0.54,0.1,-0.841
54234,1755586559133,31.8,174.29,-34.99,813,773,821,865,874,34.48275862068966,-0.545,0.098,-0.848
54263,1755586559163,31.77,174.19,-35.12,811,769,831,866,886,34.48275862068966,-0.554,0.089,-0.849
54293,1755586559192,31.9,174.21,-35.08,809,771,818,867,888,33.333333333333336,-0.553,0.085,-0.839
54322,1755586559222,31.97,174.24,-35.06,805,766,818,858,885,34.48275862068966,-0.556,0.084,-0.847
54352,1755586559251,31.97,174.16,-35.03,808,768,819,864,877,33.333333333333336,-0.561,0.08,-0.843
54382,1755586559281,32.09,174.21,-34.85,806,765,822,850,875,33.333333333333336,-0.55,0.08,-0.844
54411,1755586559310,32.13,174.14,-34.81,809,790,830,868,881,34.48275862068966,-0.539,0.085,-0.851
54441,1755586559339,32.13,174.02,-34.89,816,776,814,888,877,33.333333333333336,-0.534,0.093,-0.848
54470,1755586559369,32.04,174.06,-35.06,812,774,820,865,885,34.48275862068966,-0.541,0.095,-0.841
54499,1755586559398,31.97,174.12,-35.15,810,759,832,863,877,34.48275862068966,-0.544,0.085,-0.845
54529,1755586559428,32.0,174.07,-35.15,813,767,830,861,871,33.333333333333336,-0.553,0.081,-0.846
54558,1755586559457,32.07,174.08,-35.15,813,769,812,870,890,34.48275862068966,-0.556,0.082,-0.838
54588,1755586559487,32.02,174.17,-35.09,816,770,810,864,881,33.333333333333336,-0.557,0.084,-0.844
54617,1755586559516,32.08,174.18,-35.02,810,766,814,870,879,34.48275862068966,-0.553,0.084,-0.843
54647,1755586559546,32.07,174.25,-35.02,813,768,819,876,869,33.333333333333336,-0.548,0.084,-0.839
54676,1755586559575,32.0,174.26,-35.04,816,772,814,868,883,34.48275862068966,-0.555,0.085,-0.841
54705,1755586559605,32.05,174.3,-35.02,814,779,824,868,887,34.48275862068966,-0.552,0.085,-0.839
54735,1755586559635,32.03,174.32,-35.02,812,775,824,867,881,33.333333333333336,-0.553,0.083,-0.84
54765,1755586559664,32.02,174.38,-35.0,819,770,820,866,878,33.333333333333336,-0.557,0.081,-0.835
54795,1755586559694,32.14,174.48,-34.94,808,770,822,865,886,33.333333333333336,-0.553,0.084,-0.836
54824,1755586559723,32.14,174.48,-34.92,818,764,817,873,877,34.48275862068966,-0.551,0.083,-0.844
54854,1755586559753,32.09,174.46,-34.91,813,773,820,864,878,33.333333333333336,-0.546,0.084,-0.847
54883,1755586559782,31.93,174.45,-34.98,808,773,825,864,885,34.48275862068966,-0.55,0.083,-0.841
54913,1755586559812,32.0,174.49,-34.93,812,771,824,866,879,33.333333333333336,-0.552,0.082,-0.84
54942,1755586559841,32.11,174.49,-34.9,815,774,824,871,889,34.48275862068966,-0.55,0.084,-0.841
54972,1755586559871,32.05,174.43,-34.96,816,774,824,855,883,33.333333333333336,-0.55,0.083,-0.844
55001,1755586559900,32.09,174.38,-34.99,818,775,817,872,882,34.48275862068966,-0.551,0.082,-0.839
55031,1755586559930,32.13,174.37,-35.06,808,767,820,859,878,33.333333333333336,-0.548,0.084,-0.842
55060,1755586559959,32.05,174.34,-35.2,813,771,812,869,882,34.48275862068966,-0.551,0.083,-0.84
55090,1755586559989,31.9,174.35,-35.31,814,767,818,868,877,33.333333333333336,-0.554,0.08,-0.842
55119,1755586560018,31.88,174.31,-35.32,813,772,809,856,878,34.48275862068966,-0.558,0.076,-0.835
55149,1755586560048,31.94,174.39,-35.23,812,768,823,853,896,33.333333333333336,-0.562,0.079,-0.837
55178,1755586560077,31.94,174.37,-35.21,811,760,811,860,877,34.48275862068966,-0.555,0.081,-0.836
55207,1755586560107,31.91,174.39,-35.25,813,768,820,863,890,34.48275862068966,-0.556,0.081,-0.835
55237,1755586560136,31.9,174.41,-35.26,810,764,820,865,881,33.333333333333336,-0.564,0.082,-0.833
55267,1755586560166,32.04,174.48,-35.22,815,771,818,866,883,33.333333333333336,-0.56,0.081,-0.829
55296,1755586560195,32.07,174.52,-35.26,812,768,822,870,890,34.48275862068966,-0.558,0.08,-0.837
55326,1755586560225,31.98,174.44,-35.33,810,771,824,862,881,33.333333333333336,-0.564,0.079,-0.836
55355,1755586560254,32.09,174.48,-35.27,813,766,821,866,887,34.48275862068966,-0.566,0.078,-0.825
55385,1755586560284,32.21,174.57,-35.2,810,760,820,864,879,33.333333333333336,-0.564,0.078,-0.832
55415,1755586560313,32.22,174.55,-35.2,812,767,827,867,873,33.333333333333336,-0.559,0.079,-0.838
55444,1755586560343,32.19,174.5,-35.23,806,762,815,861,869,34.48275862068966,-0.559,0.078,-0.834
55473,1755586560372,32.27,174.51,-35.18,813,765,819,861,882,34.48275862068966,-0.568,0.077,-0.828
55503,1755586560402,32.38,174.56,-35.11,813,769,822,870,877,33.333333333333336,-0.564,0.08,-0.83
55532,1755586560431,32.37,174.58,-35.13,809,765,819,869,887,34.48275862068966,-0.555,0.081,-0.838
55562,1755586560461,32.37,174.51,-35.19,815,774,817,872,879,33.333333333333336,-0.562,0.082,-0.835
55591,1755586560491,32.34,174.53,-35.22,814,767,821,848,881,34.48275862068966,-0.564,0.077,-0.827
55612,1755586560511,32.34,174.6,-35.19,815,773,823,864,921,47.61904761904762,-0.564,0.074,-0.826
55641,1755586560541,32.37,174.64,-35.17,821,772,821,868,887,34.48275862068966,-0.563,0.079,-0.834
55671,1755586560570,32.34,174.6,-35.19,808,768,828,862,883,33.333333333333336,-0.561,0.076,-0.831
55701,1755586560600,32.38,174.65,-35.15,814,768,815,874,883,33.333333333333336,-0.559,0.08,-0.833
55730,1755586560629,32.41,174.62,-35.17,810,769,822,867,880,34.48275862068966,-0.562,0.078,-0.835
55759,1755586560658,32.45,174.6,-35.12,807,772,822,862,877,34.48275862068966,-0.566,0.075,-0.829
55789,1755586560688,32.52,174.69,-35.04,820,771,825,876,879,33.333333333333336,-0.565,0.08,-0.828
55818,1755586560717,32.52,174.69,-35.06,811,770,818,863,873,34.48275862068966,-0.563,0.078,-0.831
55848,1755586560747,32.62,174.75,-34.96,811,769,829,860,875,33.333333333333336,-0.561,0.077,-0.833
55877,1755586560776,32.62,174.76,-34.98,815,781,817,865,875,34.48275862068966,-0.557,0.081,-0.842
55907,1755586560806,32.37,174.64,-35.22,813,770,822,883,875,33.333333333333336,-0.557,0.078,-0.832
55936,1755586560836,32.3,174.68,-35.28,810,772,818,863,878,34.48275862068966,-0.57,0.076,-0.826
55966,1755586560865,32.44,174.79,-35.19,811,771,824,859,873,33.333333333333336,-0.566,0.078,-0.835
55995,1755586560894,32.37,174.71,-35.28,813,773,825,866,895,34.48275862068966,-0.559,0.073,-0.833
56025,1755586560924,32.34,174.65,-35.31,813,762,819,866,889,33.333333333333336,-0.563,0.072,-0.824
56055,1755586560954,32.42,174.71,-35.27,810,770,826,862,874,33.333333333333336,-0.571,0.075,-0.831
56084,1755586560983,32.43,174.72,-35.26,818,770,816,867,882,34.48275862068966,-0.566,0.075,-0.83
56114,1755586561013,32.44,174.73,-35.26,811,773,820,863,880,33.333333333333336,-0.566,0.072,-0.826
56143,1755586561042,32.48,174.78,-35.22,814,770,822,861,887,34.48275862068966,-0.574,0.073,-0.83
56173,1755586561072,32.58,174.72,-35.13,809,768,825,867,894,33.333333333333336,-0.573,0.073,-0.83
56202,1755586561101,32.7,174.71,-35.08,815,772,827,867,880,34.48275862068966,-0.567,0.075,-0.826
56232,1755586561131,32.68,174.75,-35.09,816,770,818,855,891,33.333333333333336,-0.561,0.079,-0.829
56261,1755586561161,32.67,174.78,-35.12,808,763,822,865,891,34.48275862068966,-0.564,0.08,-0.828
