timestamp_ms,recv_timestamp_ms,pitch,roll,yaw,flex1,flex2,flex3,flex4,flex5,sampling_hz,accel_x,accel_y,accel_z
47359,1755586210008,21.56,-33.6,-11.48,774,772,772,747,814,34.48275862068966,-0.383,-0.51,0.769
47389,1755586210038,21.63,-33.64,-11.46,774,773,769,747,815,33.333333333333336,-0.384,-0.516,0.77
47418,1755586210068,21.58,-33.61,-11.44,771,764,776,752,810,34.48275862068966,-0.385,-0.516,0.774
47448,1755586210097,21.56,-33.54,-11.46,775,778,769,754,810,33.333333333333336,-0.384,-0.512,0.774
47477,1755586210127,21.55,-33.48,-11.47,770,768,770,754,819,34.48275862068966,-0.387,-0.513,0.773
47507,1755586210156,21.53,-33.54,-11.46,774,775,769,754,820,33.333333333333336,-0.387,-0.512,0.769
47537,1755586210186,21.55,-33.58,-11.44,775,770,771,755,821,33.333333333333336,-0.386,-0.512,0.771
47566,1755586210216,21.51,-33.54,-11.45,773,771,773,748,817,34.48275862068966,-0.384,-0.511,0.775
47596,1755586210245,21.52,-33.53,-11.5,768,774,766,754,817,33.333333333333336,-0.384,-0.509,0.773
47625,1755586210275,21.56,-33.51,-11.47,773,765,773,754,820,34.48275862068966,-0.39,-0.513,0.772
47655,1755586210304,21.58,-33.54,-11.43,768,772,770,753,819,33.333333333333336,-0.387,-0.513,0.77
47684,1755586210333,21.6,-33.54,-11.43,773,775,763,757,814,34.48275862068966,-0.382,-0.508,0.771
47714,1755586210363,21.56,-33.54,-11.47,771,774,774,754,817,33.333333333333336,-0.383,-0.511,0.775
47743,1755586210393,21.56,-33.52,-11.47,763,779,769,757,816,34.48275862068966,-0.387,-0.511,0.772
47773,1755586210422,21.63,-33.52,-11.44,775,776,770,748,815,33.333333333333336,-0.388,-0.51,0.771
47802,1755586210452,21.61,-33.56,-11.46,776,778,774,759,821,34.48275862068966,-0.387,-0.509,0.772
47832,1755586210482,21.56,-33.54,-11.45,766,774,763,751,824,33.333333333333336,-0.389,-0.51,0.771
47862,1755586210511,21.63,-33.57,-11.39,770,759,767,765,823,33.333333333333336,-0.388,-0.51,0.772
47891,1755586210541,21.65,-33.58,-11.37,762,774,770,752,817,34.48275862068966,-0.386,-0.512,0.775
47921,1755586210570,21.56,-33.52,-11.37,769,768,767,750,818,33.333333333333336,-0.383,-0.512,0.773
47951,1755586210600,21.58,-33.5,-11.38,770,769,766,753,818,33.333333333333336,-0.384,-0.511,0.771
47980,1755586210629,21.59,-33.51,-11.38,772,773,785,760,827,34.48275862068966,-0.387,-0.509,0.773
48009,1755586210659,21.56,-33.5,-11.38,771,775,779,753,823,34.48275862068966,-0.388,-0.51,0.773
48039,1755586210688,21.6,-33.5,-11.36,772,771,771,756,823,33.333333333333336,-0.385,-0.509,0.773
48068,1755586210718,21.58,-33.46,-11.36,777,770,769,754,819,34.48275862068966,-0.386,-0.51,0.773
48098,1755586210747,21.56,-33.48,-11.36,767,771,763,753,822,33.333333333333336,-0.386,-0.511,0.773
48127,1755586210776,21.6,-33.47,-11.34,774,772,773,748,814,34.48275862068966,-0.388,-0.509,0.773
48157,1755586210806,21.56,-33.44,-11.32,765,773,771,749,823,33.333333333333336,-0.386,-0.509,0.772
48186,1755586210835,21.62,-33.47,-11.31,771,767,769,758,808,34.48275862068966,-0.384,-0.51,0.776
48216,1755586210865,21.59,-33.43,-11.34,769,768,773,758,820,33.333333333333336,-0.384,-0.509,0.775
48245,1755586210894,21.54,-33.39,-11.38,773,773,768,753,819,34.48275862068966,-0.389,-0.511,0.77
48275,1755586210924,21.58,-33.83,-11.34,768,773,775,752,816,33.333333333333336,-0.393,-0.511,0.77
48304,1755586210954,21.57,-33.81,-11.29,771,763,771,756,814,34.48275862068966,-0.388,-0.508,0.772
48334,1755586210984,21.6,-33.81,-11.32,770,772,775,745,830,33.333333333333336,-0.384,-0.505,0.775
48364,1755586211013,21.54,-33.83,-11.36,768,765,762,753,822,33.333333333333336,-0.386,-0.507,0.774
48393,1755586211043,21.61,-33.84,-11.33,766,764,773,751,817,34.48275862068966,-0.39,-0.51,0.774
48423,1755586211073,21.6,-33.82,-11.32,771,767,773,753,817,33.333333333333336,-0.389,-0.509,0.775
48444,1755586211093,21.58,-33.79,-11.33,766,769,773,754,817,47.61904761904762,-0.387,-0.506,0.776
48473,1755586211122,21.58,-33.77,-11.33,775,770,766,754,811,34.48275862068966,-0.386,-0.506,0.775
48502,1755586211152,21.66,-33.79,-11.31,769,779,772,754,821,34.48275862068966,-0.385,-0.51,0.776
48532,1755586211181,21.68,-33.77,-11.29,771,768,770,756,815,33.333333333333336,-0.384,-0.507,0.776
48561,1755586211211,21.72,-33.75,-11.33,769,770,763,750,820,34.48275862068966,-0.385,-0.506,0.777
48591,1755586211240,21.73,-33.69,-11.36,768,764,765,752,816,33.333333333333336,-0.387,-0.508,0.777
48620,1755586211269,21.83,-33.69,-11.37,768,779,774,754,822,34.48275862068966,-0.386,-0.51,0.774
48650,1755586211299,21.84,-33.61,-11.37,769,769,770,752,814,33.333333333333336,-0.389,-0.509,0.772
48679,1755586211329,21.82,-33.58,-11.35,774,771,772,749,819,34.48275862068966,-0.388,-0.505,0.773
48709,1755586211358,21.84,-33.59,-11.39,770,770,770,758,808,33.333333333333336,-0.389,-0.504,0.774
48738,1755586211388,21.8,-33.56,-11.4,774,770,771,755,807,34.48275862068966,-0.391,-0.507,0.775
48768,1755586211417,21.86,-33.52,-11.38,768,775,778,756,817,33.333333333333336,-0.39,-0.507,0.774
48798,1755586211447,21.95,-33.49,-11.36,774,776,768,758,818,33.333333333333336,-0.39,-0.505,0.774
48827,1755586211477,21.9,-33.46,-11.39,770,770,772,749,815,34.48275862068966,-0.392,-0.503,0.772
48857,1755586211506,21.9,-33.49,-11.39,775,777,774,757,820,33.333333333333336,-0.391,-0.505,0.771
48886,1755586211536,21.93,-33.53,-11.38,769,772,773,756,813,34.48275862068966,-0.387,-0.506,0.771
48916,1755586211566,21.9,-33.55,-11.4,774,771,774,765,819,33.333333333333336,-0.385,-0.505,0.771
48936,1755586211585,21.91,-33.6,-11.42,778,768,776,749,825,50.0,-0.387,-0.506,0.771
48965,1755586211615,21.88,-33.58,-11.43,766,771,775,755,811,34.48275862068966,-0.391,-0.506,0.771
48995,1755586211644,21.91,-33.56,-11.4,772,770,772,755,814,33.333333333333336,-0.392,-0.506,0.772
49024,1755586211674,21.92,-33.51,-11.38,769,764,764,753,820,34.48275862068966,-0.393,-0.507,0.773
49054,1755586211703,21.91,-33.48,-11.36,770,777,772,750,814,33.333333333333336,-0.39,-0.507,0.77
49083,1755586211733,21.93,-33.5,-11.36,770,775,780,749,820,34.48275862068966,-0.392,-0.506,0.771
49113,1755586211762,21.9,-33.48,-11.36,771,774,766,753,820,33.333333333333336,-0.391,-0.505,0.774
49143,1755586211792,21.95,-33.47,-11.34,771,770,768,753,816,33.333333333333336,-0.392,-0.505,0.775
49172,1755586211821,21.98,-33.49,-11.34,766,767,768,755,813,34.48275862068966,-0.392,-0.505,0.773
49202,1755586211851,21.94,-33.47,-11.33,776,772,774,753,811,33.333333333333336,-0.393,-0.508,0.773
49231,1755586211880,21.95,-33.44,-11.31,768,773,764,750,824,34.48275862068966,-0.39,-0.507,0.774
49260,1755586211910,21.98,-33.43,-11.33,773,773,774,756,815,34.48275862068966,-0.391,-0.503,0.775
49290,1755586211940,21.93,-33.4,-11.34,773,778,774,755,821,33.333333333333336,-0.396,-0.508,0.773
49320,1755586211970,21.93,-33.37,-11.29,769,773,773,749,818,33.333333333333336,-0.393,-0.506,0.77
49350,1755586211999,21.99,-33.36,-11.31,772,762,763,756,818,33.333333333333336,-0.388,-0.501,0.776
49379,1755586212029,21.83,-33.28,-11.39,767,772,771,759,817,34.48275862068966,-0.389,-0.503,0.776
49409,1755586212058,21.88,-33.3,-11.38,772,778,769,750,813,33.333333333333336,-0.39,-0.505,0.772
49439,1755586212088,21.89,-33.31,-11.36,767,776,770,743,813,33.333333333333336,-0.393,-0.503,0.771
49468,1755586212117,21.82,-33.31,-11.4,772,773,772,748,819,34.48275862068966,-0.391,-0.501,0.773
49498,1755586212147,21.84,-33.32,-11.41,775,773,776,752,816,33.333333333333336,-0.391,-0.503,0.775
49527,1755586212177,21.88,-33.32,-11.39,769,779,766,758,817,34.48275862068966,-0.391,-0.504,0.776
49547,1755586212197,21.88,-33.31,-11.4,774,773,768,755,812,50.0,-0.391,-0.504,0.774
49577,1755586212226,21.86,-33.28,-11.4,771,784,766,755,818,33.333333333333336,-0.387,-0.503,0.773
49606,1755586212256,21.89,-33.29,-11.39,767,763,770,754,817,34.48275862068966,-0.387,-0.502,0.773
49636,1755586212285,21.84,-33.31,-11.44,775,779,776,754,818,33.333333333333336,-0.388,-0.499,0.773
49665,1755586212315,21.86,-33.34,-11.46,772,780,776,756,815,34.48275862068966,-0.394,-0.503,0.773
49685,1755586212335,21.87,-33.34,-11.46,776,773,774,756,815,50.0,-0.397,-0.507,0.772
49715,1755586212364,21.88,-33.33,-11.44,769,767,774,755,810,33.333333333333336,-0.388,-0.505,0.772
49744,1755586212394,21.85,-33.33,-11.5,769,773,769,754,821,34.48275862068966,-0.384,-0.504,0.774
49774,1755586212423,21.75,-33.35,-11.58,766,763,768,750,816,33.333333333333336,-0.387,-0.504,0.772
49803,1755586212453,21.81,-33.38,-11.56,771,763,772,756,813,34.48275862068966,-0.393,-0.508,0.773
49833,1755586212483,21.88,-33.4,-11.52,771,783,772,752,825,33.333333333333336,-0.39,-0.506,0.774
49863,1755586212512,21.83,-33.34,-11.53,772,766,774,755,817,33.333333333333336,-0.387,-0.505,0.776
49893,1755586212542,21.81,-33.35,-11.57,764,766,771,753,814,33.333333333333336,-0.387,-0.506,0.774
49922,1755586212572,21.82,-33.36,-11.58,773,769,782,756,816,34.48275862068966,-0.39,-0.505,0.774
49952,1755586212601,21.8,-33.34,-11.59,768,772,772,752,820,33.333333333333336,-0.39,-0.506,0.776
49982,1755586212631,21.82,-33.3,-11.59,771,772,772,758,836,33.333333333333336,-0.387,-0.506,0.777
50011,1755586212661,21.82,-33.3,-11.59,766,778,774,754,817,34.48275862068966,-0.388,-0.506,0.776
50041,1755586212690,21.82,-33.32,-11.58,775,773,778,758,821,33.333333333333336,-0.39,-0.507,0.774
50070,1755586212720,21.84,-33.32,-11.55,774,774,773,753,811,34.48275862068966,-0.39,-0.507,0.773
50100,1755586212750,21.82,-33.34,-11.57,773,773,764,752,818,33.333333333333336,-0.385,-0.505,0.774
50130,1755586212779,21.81,-33.33,-11.57,769,770,773,754,817,33.333333333333336,-0.383,-0.506,0.777
50159,1755586212809,21.84,-33.3,-11.57,770,776,775,749,816,34.48275862068966,-0.386,-0.506,0.777
50189,1755586212838,21.83,-33.33,-11.59,771,772,774,753,821,33.333333333333336,-0.389,-0.506,0.773
50218,1755586212868,21.86,-33.36,-11.6,773,771,775,754,820,34.48275862068966,-0.39,-0.507,0.772
50248,1755586212898,21.83,-33.37,-11.59,773,764,769,750,817,33.333333333333336,-0.389,-0.507,0.775
50278,1755586212927,21.87,-33.34,-11.56,770,766,770,747,811,33.333333333333336,-0.388,-0.508,0.775
50307,1755586212957,21.87,-33.32,-11.55,778,782,772,752,815,34.48275862068966,-0.387,-0.505,0.771
50337,1755586212986,21.79,-33.34,-11.58,768,771,771,759,820,33.333333333333336,-0.385,-0.504,0.768
50366,1755586213016,21.78,-33.34,-11.58,766,770,776,749,819,34.48275862068966,-0.389,-0.507,0.774
50396,1755586213045,21.78,-33.34,-11.58,768,770,774,756,820,33.333333333333336,-0.389,-0.508,0.776
50425,1755586213075,21.83,-33.27,-11.56,772,774,771,751,817,34.48275862068966,-0.385,-0.505,0.774
50455,1755586213104,21.82,-33.24,-11.59,772,792,773,753,818,33.333333333333336,-0.384,-0.504,0.774
50485,1755586213134,21.78,-33.25,-11.61,767,771,760,748,811,33.333333333333336,-0.388,-0.506,0.774
50514,1755586213164,21.81,-33.21,-11.56,770,768,772,759,819,34.48275862068966,-0.39,-0.508,0.776
50544,1755586213193,21.75,-33.12,-11.56,774,765,764,759,819,33.333333333333336,-0.383,-0.503,0.775
50573,1755586213223,21.65,-32.99,-11.67,771,768,765,751,820,34.48275862068966,-0.383,-0.499,0.777
50603,1755586213252,21.43,-33.0,-11.78,769,767,793,757,812,33.333333333333336,-0.382,-0.502,0.772
50632,1755586213282,21.54,-33.05,-11.76,768,769,780,757,808,34.48275862068966,-0.386,-0.508,0.777
50662,1755586213311,21.49,-33.0,-11.71,766,772,772,748,823,33.333333333333336,-0.385,-0.505,0.781
50691,1755586213341,21.55,-32.95,-11.72,770,769,767,750,810,34.48275862068966,-0.379,-0.502,0.78
50721,1755586213370,21.56,-32.95,-11.71,770,778,767,753,816,33.333333333333336,-0.382,-0.505,0.777
50750,1755586213400,21.54,-32.97,-11.68,771,767,777,756,815,34.48275862068966,-0.38,-0.503,0.778
50780,1755586213429,21.59,-32.98,-11.68,765,768,770,757,817,33.333333333333336,-0.38,-0.502,0.78
50809,1755586213459,21.61,-32.99,-11.67,769,766,775,753,817,34.48275862068966,-0.385,-0.503,0.778
50839,1755586213489,21.62,-33.07,-11.65,769,770,775,754,821,33.333333333333336,-0.385,-0.502,0.773
50869,1755586213518,21.58,-33.11,-11.62,769,769,773,755,827,33.333333333333336,-0.383,-0.506,0.776
50898,1755586213548,21.6,-33.12,-11.59,768,770,774,750,814,34.48275862068966,-0.379,-0.504,0.781
50928,1755586213578,21.68,-33.11,-11.6,772,780,769,754,822,33.333333333333336,-0.381,-0.501,0.783
50948,1755586213597,21.65,-33.09,-11.61,769,776,770,752,818,50.0,-0.385,-0.502,0.78
50978,1755586213627,21.69,-33.14,-11.57,772,772,772,753,837,33.333333333333336,-0.388,-0.503,0.776
51007,1755586213656,21.72,-33.21,-11.5,769,779,772,744,823,34.48275862068966,-0.385,-0.504,0.777
51036,1755586213686,21.78,-33.21,-11.47,764,769,773,749,813,34.48275862068966,-0.383,-0.504,0.783
51066,1755586213715,21.75,-33.17,-11.5,771,769,766,752,818,33.333333333333336,-0.383,-0.5,0.783
51095,1755586213745,21.74,-33.13,-11.52,771,768,759,751,821,34.48275862068966,-0.387,-0.502,0.779
51125,1755586213775,21.77,-33.15,-11.49,776,774,771,751,812,33.333333333333336,-0.386,-0.501,0.778
51155,1755586213804,21.69,-33.12,-11.55,771,777,784,759,817,33.333333333333336,-0.383,-0.497,0.778
51184,1755586213834,21.6,-33.14,-11.68,770,780,770,754,818,34.48275862068966,-0.383,-0.502,0.777
51214,1755586213863,21.56,-33.13,-11.74,771,775,771,755,814,33.333333333333336,-0.385,-0.507,0.777
51243,1755586213893,21.53,-33.12,-11.75,775,771,773,759,815,34.48275862068966,-0.379,-0.507,0.777
51273,1755586213922,21.6,-33.1,-11.79,773,768,772,756,818,33.333333333333336,-0.376,-0.506,0.781
51302,1755586213952,21.48,-33.02,-11.84,763,766,772,747,815,34.48275862068966,-0.377,-0.5,0.779
51332,1755586213982,21.47,-33.04,-11.88,768,765,760,752,813,33.333333333333336,-0.384,-0.501,0.779
51352,1755586214001,21.51,-33.04,-11.88,773,769,767,757,806,50.0,-0.392,-0.506,0.778
51381,1755586214031,21.53,-33.08,-11.8,773,772,781,754,814,34.48275862068966,-0.396,-0.51,0.773
51411,1755586214060,21.61,-33.18,-11.71,766,783,766,757,818,33.333333333333336,-0.384,-0.506,0.77
51441,1755586214090,21.71,-33.25,-11.72,763,774,773,749,819,33.333333333333336,-0.373,-0.506,0.779
51470,1755586214119,21.66,-33.21,-11.75,770,777,768,754,825,34.48275862068966,-0.375,-0.509,0.786
51500,1755586214149,21.7,-33.14,-11.76,772,768,777,758,817,33.333333333333336,-0.376,-0.508,0.78
51529,1755586214178,21.92,-33.11,-11.7,770,770,766,758,815,34.48275862068966,-0.383,-0.509,0.775
51559,1755586214208,21.91,-33.09,-11.67,770,769,768,761,817,33.333333333333336,-0.388,-0.506,0.775
51588,1755586214238,21.88,-33.07,-11.67,768,777,774,749,824,34.48275862068966,-0.386,-0.502,0.777
51618,1755586214267,22.0,-33.04,-11.63,769,770,768,756,816,33.333333333333336,-0.386,-0.503,0.781
51647,1755586214297,22.06,-33.02,-11.61,770,769,773,754,819,34.48275862068966,-0.388,-0.5,0.778
51677,1755586214327,22.02,-33.06,-11.65,778,769,773,745,821,33.333333333333336,-0.386,-0.496,0.771
51707,1755586214356,22.05,-33.16,-11.67,773,775,769,754,820,33.333333333333336,-0.391,-0.507,0.775
51737,1755586214386,22.02,-33.17,-11.57,769,777,771,754,819,33.333333333333336,-0.39,-0.509,0.779
51766,1755586214416,22.04,-33.11,-11.53,775,770,771,746,824,34.48275862068966,-0.385,-0.504,0.779
51796,1755586214445,21.9,-33.03,-11.58,774,774,790,754,813,33.333333333333336,-0.387,-0.504,0.777
51825,1755586214475,21.82,-33.06,-11.55,774,774,775,748,818,34.48275862068966,-0.385,-0.504,0.774
51855,1755586214504,21.91,-33.1,-11.48,773,775,772,751,821,33.333333333333336,-0.385,-0.503,0.779
51884,1755586214534,21.84,-33.03,-11.48,765,772,770,759,806,34.48275862068966,-0.385,-0.501,0.783
51914,1755586214564,21.84,-32.98,-11.49,771,775,772,751,812,33.333333333333336,-0.388,-0.5,0.778
51944,1755586214593,21.93,-33.06,-11.45,772,777,773,755,813,33.333333333333336,-0.388,-0.502,0.774
51973,1755586214622,21.9,-33.05,-11.42,772,777,768,755,817,34.48275862068966,-0.389,-0.501,0.778
52003,1755586214652,21.86,-33.0,-11.45,768,770,771,753,820,33.333333333333336,-0.387,-0.5,0.781
52032,1755586214682,21.9,-32.99,-11.47,769,779,772,757,814,34.48275862068966,-0.391,-0.504,0.778
52062,1755586214711,21.92,-32.98,-11.43,776,773,765,758,824,33.333333333333336,-0.385,-0.5,0.775
52091,1755586214741,21.98,-32.95,-11.44,767,774,770,744,815,34.48275862068966,-0.387,-0.499,0.781
52121,1755586214770,21.87,-32.9,-11.49,771,766,775,750,813,33.333333333333336,-0.393,-0.501,0.777
52150,1755586214800,21.98,-32.91,-11.42,766,775,769,756,824,34.48275862068966,-0.392,-0.504,0.774
52180,1755586214829,21.98,-32.91,-11.4,767,768,771,750,816,33.333333333333336,-0.388,-0.5,0.778
52209,1755586214859,21.92,-32.87,-11.48,769,775,767,757,809,34.48275862068966,-0.387,-0.498,0.78
52239,1755586214888,21.96,-32.86,-11.49,775,772,775,758,821,33.333333333333336,-0.39,-0.502,0.778
52268,1755586214918,22.02,-32.86,-11.43,767,769,771,755,815,34.48275862068966,-0.393,-0.501,0.775
52298,1755586214947,22.0,-32.84,-11.44,770,767,779,758,819,33.333333333333336,-0.39,-0.497,0.777
52327,1755586214977,21.96,-32.86,-11.48,775,769,770,758,815,34.48275862068966,-0.387,-0.496,0.777
52357,1755586215006,22.03,-32.89,-11.49,772,769,770,747,815,33.333333333333336,-0.391,-0.499,0.776
52386,1755586215036,22.03,-32.95,-11.48,775,772,775,757,821,34.48275862068966,-0.391,-0.499,0.775
52416,1755586215065,22.15,-32.98,-11.47,771,768,772,756,822,33.333333333333336,-0.39,-0.497,0.772
52446,1755586215095,22.45,-33.19,-11.46,766,770,773,754,817,33.333333333333336,-0.389,-0.498,0.772
52475,1755586215124,22.44,-33.2,-11.44,764,775,780,757,816,34.48275862068966,-0.398,-0.499,0.769
52504,1755586215154,22.39,-33.22,-11.44,770,782,766,754,819,34.48275862068966,-0.398,-0.499,0.771
52534,1755586215184,22.46,-33.17,-11.45,772,769,771,761,811,33.333333333333336,-0.402,-0.502,0.776
52564,1755586215213,22.45,-33.12,-11.4,767,778,780,752,816,33.333333333333336,-0.404,-0.503,0.771
52593,1755586215243,22.58,-33.19,-11.35,770,776,775,751,809,34.48275862068966,-0.401,-0.501,0.768
52623,1755586215272,22.54,-33.19,-11.35,765,775,771,755,817,33.333333333333336,-0.4,-0.502,0.77
52652,1755586215302,22.49,-33.18,-11.34,772,762,772,753,818,34.48275862068966,-0.397,-0.501,0.771
52682,1755586215332,22.58,-33.19,-11.33,769,773,766,755,820,33.333333333333336,-0.397,-0.502,0.775
52712,1755586215361,22.51,-33.08,-11.31,766,769,774,752,821,33.333333333333336,-0.401,-0.506,0.776
52741,1755586215391,22.53,-33.01,-11.28,771,766,776,755,824,34.48275862068966,-0.398,-0.501,0.768
52771,1755586215420,22.56,-33.04,-11.29,770,774,773,751,814,33.333333333333336,-0.4,-0.499,0.767
52800,1755586215450,22.42,-33.0,-11.28,765,772,774,759,859,34.48275862068966,-0.401,-0.503,0.77
52830,1755586215479,22.46,-33.0,-11.26,770,766,775,756,822,33.333333333333336,-0.395,-0.501,0.771
52859,1755586215509,22.5,-33.0,-11.3,764,776,769,750,817,34.48275862068966,-0.396,-0.498,0.771
52889,1755586215539,22.41,-33.01,-11.38,772,773,770,755,839,33.333333333333336,-0.398,-0.499,0.769
52919,1755586215568,22.5,-33.07,-11.36,779,772,773,746,821,33.333333333333336,-0.404,-0.504,0.77
52948,1755586215598,22.53,-33.07,-11.29,774,774,772,754,818,34.48275862068966,-0.405,-0.502,0.769
52978,1755586215627,22.63,-33.08,-11.23,769,773,771,754,819,33.333333333333336,-0.398,-0.499,0.767
53007,1755586215657,22.7,-33.2,-11.22,771,776,769,750,818,34.48275862068966,-0.401,-0.501,0.769
53037,1755586215686,22.68,-33.23,-11.12,770,773,772,756,825,33.333333333333336,-0.403,-0.504,0.771
53066,1755586215716,22.84,-33.23,-10.95,771,771,776,750,816,34.48275862068966,-0.404,-0.504,0.77
53096,1755586215745,22.98,-33.08,-10.81,772,770,771,752,817,33.333333333333336,-0.415,-0.509,0.777
53125,1755586215775,22.71,-32.84,-10.71,773,787,777,751,817,34.48275862068966,-0.407,-0.499,0.765
53155,1755586215804,22.83,-32.9,-10.72,767,768,785,757,821,33.333333333333336,-0.401,-0.495,0.759
53184,1755586215834,22.71,-32.93,-10.73,775,764,769,765,822,34.48275862068966,-0.405,-0.501,0.768
53214,1755586215863,22.65,-32.86,-10.74,771,770,768,749,819,33.333333333333336,-0.4,-0.498,0.777
53243,1755586215893,22.72,-32.77,-10.79,768,768,767,755,816,34.48275862068966,-0.401,-0.495,0.775
53273,1755586215923,22.73,-32.72,-10.8,767,767,774,755,827,33.333333333333336,-0.407,-0.496,0.767
53302,1755586215952,22.7,-32.76,-10.81,780,769,770,760,828,34.48275862068966,-0.405,-0.492,0.763
53332,1755586215982,22.7,-32.83,-10.87,768,766,790,756,819,33.333333333333336,-0.405,-0.491,0.77
53362,1755586216011,22.67,-32.84,-10.93,772,776,778,754,821,33.333333333333336,-0.407,-0.493,0.773
53391,1755586216041,22.8,-32.84,-10.94,771,772,768,756,815,34.48275862068966,-0.41,-0.497,0.772
53421,1755586216070,22.8,-32.84,-10.91,774,775,775,754,819,33.333333333333336,-0.409,-0.497,0.766
53450,1755586216100,22.83,-32.84,-10.91,773,770,766,759,818,34.48275862068966,-0.407,-0.495,0.768
53480,1755586216129,22.74,-32.79,-10.94,771,771,778,754,821,33.333333333333336,-0.406,-0.494,0.773
53510,1755586216159,22.8,-32.81,-10.95,773,770,773,748,826,33.333333333333336,-0.406,-0.495,0.772
53539,1755586216188,22.82,-32.81,-10.94,773,774,770,755,813,34.48275862068966,-0.408,-0.497,0.769
53569,1755586216218,22.8,-32.83,-10.95,769,767,774,749,817,33.333333333333336,-0.404,-0.492,0.767
53598,1755586216248,22.84,-32.76,-10.96,771,764,764,751,818,34.48275862068966,-0.409,-0.496,0.773
53628,1755586216277,22.81,-32.75,-10.95,768,774,783,756,816,33.333333333333336,-0.409,-0.497,0.772
53658,1755586216307,22.87,-32.72,-10.92,769,775,771,754,815,33.333333333333336,-0.409,-0.495,0.768
53688,1755586216337,22.9,-32.77,-10.92,767,773,775,755,819,33.333333333333336,-0.409,-0.495,0.768
53717,1755586216367,22.91,-32.85,-10.94,763,765,777,756,813,34.48275862068966,-0.403,-0.491,0.769
53747,1755586216397,22.87,-32.79,-10.99,768,774,771,755,816,33.333333333333336,-0.404,-0.493,0.772
53777,1755586216426,22.84,-32.78,-11.02,769,781,762,758,818,33.333333333333336,-0.408,-0.496,0.768
53806,1755586216456,22.91,-32.8,-10.99,773,768,772,756,815,34.48275862068966,-0.411,-0.496,0.765
53836,1755586216485,22.96,-32.89,-11.0,775,772,771,757,810,33.333333333333336,-0.41,-0.492,0.766
53865,1755586216515,22.89,-32.87,-11.04,770,778,770,747,815,34.48275862068966,-0.409,-0.495,0.771
53895,1755586216544,22.92,-32.86,-11.03,769,768,774,758,815,33.333333333333336,-0.408,-0.498,0.771
53924,1755586216574,23.06,-32.91,-10.98,761,765,769,756,812,34.48275862068966,-0.409,-0.498,0.768
53954,1755586216603,23.02,-32.91,-10.94,766,772,769,750,820,33.333333333333336,-0.412,-0.497,0.77
53983,1755586216633,22.94,-32.86,-10.85,772,772,763,756,821,34.48275862068966,-0.411,-0.498,0.771
54013,1755586216662,23.02,-32.87,-10.75,767,769,769,757,819,33.333333333333336,-0.412,-0.5,0.768
54042,1755586216692,22.95,-32.84,-10.71,772,786,782,758,807,34.48275862068966,-0.413,-0.498,0.767
54072,1755586216722,22.77,-32.72,-10.73,771,773,771,750,820,33.333333333333336,-0.408,-0.493,0.768
54102,1755586216752,22.81,-32.78,-10.78,766,766,773,756,833,33.333333333333336,-0.404,-0.492,0.77
54132,1755586216781,22.82,-32.8,-10.77,772,780,774,757,856,33.333333333333336,-0.408,-0.497,0.773
54161,1755586216811,22.8,-32.75,-10.75,780,771,772,750,820,34.48275862068966,-0.403,-0.492,0.774
54191,1755586216840,22.87,-32.71,-10.83,778,778,766,751,817,33.333333333333336,-0.408,-0.493,0.775
54220,1755586216869,22.78,-32.68,-10.89,774,774,774,752,806,34.48275862068966,-0.412,-0.496,0.767
54250,1755586216899,23.24,-32.73,-10.85,771,779,774,758,821,33.333333333333336,-0.408,-0.495,0.765
54279,1755586216928,23.23,-32.73,-10.88,770,773,768,758,822,34.48275862068966,-0.407,-0.493,0.776
54309,1755586216958,22.99,-32.62,-10.98,773,767,774,759,814,33.333333333333336,-0.407,-0.493,0.781
54338,1755586216988,22.66,-32.42,-11.06,772,769,772,754,821,34.48275862068966,-0.402,-0.493,0.774
54368,1755586217017,22.78,-32.57,-11.04,770,774,771,753,817,33.333333333333336,-0.401,-0.492,0.767
54397,1755586217047,22.76,-32.67,-11.01,773,780,772,759,809,34.48275862068966,-0.409,-0.495,0.771
54427,1755586217076,22.58,-32.73,-11.03,765,777,770,752,828,33.333333333333336,-0.405,-0.494,0.775
54456,1755586217106,22.72,-32.71,-10.99,769,775,768,751,818,34.48275862068966,-0.398,-0.492,0.778
54486,1755586217135,22.77,-32.67,-10.96,765,768,769,753,814,33.333333333333336,-0.4,-0.493,0.782
54515,1755586217164,22.71,-32.7,-10.99,768,777,781,758,821,34.48275862068966,-0.399,-0.492,0.775
54545,1755586217194,22.83,-32.78,-10.99,770,769,774,749,816,33.333333333333336,-0.402,-0.495,0.772
54574,1755586217224,22.79,-32.77,-10.95,764,773,770,761,817,34.48275862068966,-0.401,-0.495,0.776
54604,1755586217254,22.84,-32.77,-10.97,774,761,771,756,817,33.333333333333336,-0.396,-0.493,0.782
54634,1755586217283,22.79,-32.74,-11.0,769,771,775,763,811,33.333333333333336,-0.397,-0.495,0.776
54663,1755586217313,22.82,-32.74,-11.0,773,772,774,750,809,34.48275862068966,-0.399,-0.495,0.774
54693,1755586217342,22.77,-32.73,-11.03,767,764,779,753,813,33.333333333333336,-0.396,-0.493,0.775
54722,1755586217372,22.79,-32.71,-11.04,769,786,764,747,813,34.48275862068966,-0.397,-0.496,0.78
54752,1755586217402,22.7,-32.62,-11.06,772,772,771,756,816,33.333333333333336,-0.397,-0.493,0.779
54782,1755586217431,22.77,-32.6,-11.07,770,769,776,754,824,33.333333333333336,-0.398,-0.493,0.775
54811,1755586217461,22.76,-32.64,-11.07,769,772,771,757,816,34.48275862068966,-0.403,-0.498,0.773
54841,1755586217490,22.7,-32.66,-11.05,770,773,770,752,815,33.333333333333336,-0.397,-0.496,0.772
54870,1755586217520,22.8,-32.69,-11.05,775,768,768,752,814,34.48275862068966,-0.396,-0.494,0.779
54900,1755586217550,22.7,-32.61,-11.09,766,770,776,756,821,33.333333333333336,-0.397,-0.495,0.781
54930,1755586217580,22.73,-32.59,-11.08,768,767,773,757,813,33.333333333333336,-0.396,-0.495,0.775
54960,1755586217609,22.79,-32.64,-11.08,771,774,776,751,815,33.333333333333336,-0.399,-0.497,0.776
54989,1755586217639,22.68,-32.61,-11.1,772,772,777,751,819,34.48275862068966,-0.4,-0.495,0.776
55019,1755586217669,22.73,-32.62,-11.09,770,774,774,756,817,33.333333333333336,-0.399,-0.496,0.776
55049,1755586217698,22.76,-32.63,-11.08,770,775,775,758,822,33.333333333333336,-0.401,-0.497,0.776
55079,1755586217728,22.77,-32.65,-11.07,773,767,769,757,819,33.333333333333336,-0.399,-0.494,0.773
55108,1755586217758,22.78,-32.67,-11.06,769,771,764,755,817,34.48275862068966,-0.399,-0.496,0.778
55138,1755586217787,22.78,-32.64,-11.06,768,773,766,753,820,33.333333333333336,-0.399,-0.497,0.782
55167,1755586217817,22.74,-32.57,-11.09,768,775,763,755,823,34.48275862068966,-0.398,-0.495,0.778
55197,1755586217847,22.79,-32.58,-11.09,771,770,774,765,816,33.333333333333336,-0.399,-0.495,0.775
55227,1755586217876,22.83,-32.64,-11.07,770,776,773,755,817,33.333333333333336,-0.402,-0.496,0.774
55256,1755586217906,22.74,-32.65,-11.07,768,778,769,756,812,34.48275862068966,-0.398,-0.495,0.775
55286,1755586217935,22.8,-32.65,-11.07,770,771,770,759,820,33.333333333333336,-0.396,-0.495,0.779
55315,1755586217965,22.8,-32.62,-11.1,770,764,769,753,818,34.48275862068966,-0.401,-0.498,0.779
55345,1755586217995,22.8,-32.64,-11.08,765,780,766,756,827,33.333333333333336,-0.403,-0.498,0.772
55374,1755586218024,22.82,-32.68,-11.04,772,763,774,758,818,34.48275862068966,-0.402,-0.496,0.771
55404,1755586218053,22.88,-32.78,-11.02,768,766,765,756,820,33.333333333333336,-0.399,-0.494,0.776
55433,1755586218083,22.8,-32.73,-11.04,773,776,767,755,817,34.48275862068966,-0.4,-0.495,0.776
55463,1755586218113,22.8,-32.7,-11.02,767,779,777,754,817,33.333333333333336,-0.397,-0.495,0.772
55493,1755586218143,22.75,-32.71,-11.02,775,777,766,755,813,33.333333333333336,-0.402,-0.497,0.771
55523,1755586218172,22.7,-32.75,-11.06,769,771,768,756,818,33.333333333333336,-0.397,-0.492,0.772
55553,1755586218203,22.79,-32.77,-11.1,764,775,772,754,812,33.333333333333336,-0.398,-0.493,0.775
55573,1755586218223,22.88,-32.84,-11.09,772,776,771,749,820,50.0,-0.401,-0.499,0.775
55603,1755586218252,22.85,-32.71,-11.06,770,764,771,753,809,33.333333333333336,-0.404,-0.502,0.775
55632,1755586218282,22.81,-32.7,-11.08,768,768,780,741,809,34.48275862068966,-0.397,-0.497,0.772
55662,1755586218311,22.81,-32.65,-11.14,763,776,770,752,814,33.333333333333336,-0.397,-0.495,0.775
55691,1755586218340,22.69,-32.59,-11.19,767,762,773,753,809,34.48275862068966,-0.398,-0.496,0.776
55720,1755586218370,22.81,-32.6,-11.21,769,775,769,750,818,34.48275862068966,-0.4,-0.496,0.774
55750,1755586218399,22.75,-32.52,-11.26,770,769,774,749,815,33.333333333333336,-0.403,-0.497,0.773
55779,1755586218429,22.56,-32.47,-11.37,771,767,768,745,816,34.48275862068966,-0.4,-0.495,0.769
55809,1755586218459,22.59,-32.52,-11.46,770,770,767,752,815,33.333333333333336,-0.403,-0.496,0.777
55839,1755586218489,22.52,-32.52,-11.45,767,777,769,749,812,33.333333333333336,-0.403,-0.498,0.78
55869,1755586218518,22.57,-32.49,-11.46,769,767,769,751,815,33.333333333333336,-0.395,-0.495,0.78
55898,1755586218548,22.52,-32.48,-11.52,771,773,762,751,822,34.48275862068966,-0.396,-0.495,0.776
55928,1755586218577,22.46,-32.53,-11.56,767,771,761,757,821,33.333333333333336,-0.401,-0.498,0.772
55957,1755586218606,22.52,-32.53,-11.5,770,770,774,757,815,34.48275862068966,-0.401,-0.501,0.775
55987,1755586218636,22.55,-32.52,-11.46,767,772,776,748,818,33.333333333333336,-0.395,-0.496,0.778
56016,1755586218666,22.55,-32.49,-11.48,771,774,767,752,812,34.48275862068966,-0.394,-0.495,0.777
56046,1755586218696,22.5,-32.51,-11.49,774,763,775,754,841,33.333333333333336,-0.397,-0.496,0.774
56076,1755586218725,22.51,-32.56,-11.45,769,778,757,753,824,33.333333333333336,-0.396,-0.496,0.773
56105,1755586218755,22.55,-32.59,-11.42,769,767,772,756,814,34.48275862068966,-0.394,-0.496,0.778
56135,1755586218784,22.48,-32.54,-11.42,777,765,772,756,813,33.333333333333336,-0.393,-0.497,0.779
