timestamp_ms,recv_timestamp_ms,pitch,roll,yaw,flex1,flex2,flex3,flex4,flex5,sampling_hz,accel_x,accel_y,accel_z
18205,1755585307661,10.52,96.0,26.17,824,784,776,758,803,33.333333333333336,-0.178,0.994,-0.02
18234,1755585307690,10.48,96.1,26.2,831,777,771,758,814,34.48275862068966,-0.177,0.982,-0.019
18264,1755585307720,10.44,96.22,26.21,825,776,779,754,808,33.333333333333336,-0.182,0.987,-0.02
18293,1755585307749,10.45,96.26,26.29,830,772,778,754,814,34.48275862068966,-0.187,0.989,-0.022
18323,1755585307779,10.46,96.24,26.37,823,784,771,757,812,33.333333333333336,-0.185,0.985,-0.027
18352,1755585307808,10.43,96.24,26.42,827,778,778,757,813,34.48275862068966,-0.18,0.983,-0.025
18382,1755585307837,10.39,96.3,26.43,826,782,768,757,808,33.333333333333336,-0.177,0.99,-0.023
18411,1755585307867,10.37,96.36,26.49,826,771,772,753,812,34.48275862068966,-0.178,0.989,-0.023
18441,1755585307897,10.32,96.36,26.49,830,772,773,755,807,33.333333333333336,-0.176,0.986,-0.029
18471,1755585307927,10.28,96.37,26.51,819,780,775,755,814,33.333333333333336,-0.178,0.981,-0.023
18501,1755585307956,10.26,96.37,26.54,827,770,772,761,813,33.333333333333336,-0.181,0.988,-0.022
18530,1755585307986,10.27,96.51,26.56,825,778,778,756,807,34.48275862068966,-0.18,0.99,-0.023
18560,1755585308015,10.25,96.55,26.61,821,782,767,759,813,33.333333333333336,-0.179,0.984,-0.025
18589,1755585308045,10.21,96.53,26.64,820,775,778,755,808,34.48275862068966,-0.178,0.984,-0.027
18618,1755585308074,10.13,96.48,26.64,837,776,771,760,816,34.48275862068966,-0.177,0.985,-0.026
18648,1755585308103,10.08,96.56,26.71,822,776,774,759,807,33.333333333333336,-0.177,0.991,-0.024
18677,1755585308133,10.04,96.6,26.67,839,779,768,754,806,34.48275862068966,-0.177,0.984,-0.022
18707,1755585308162,10.01,96.56,26.73,823,775,774,762,810,33.333333333333336,-0.18,0.984,-0.024
18736,1755585308192,9.99,96.61,26.83,817,777,776,756,811,34.48275862068966,-0.18,0.989,-0.023
18766,1755585308221,9.97,96.66,26.83,825,771,774,761,806,33.333333333333336,-0.177,0.988,-0.022
18795,1755585308251,9.96,96.71,26.91,830,782,774,753,807,34.48275862068966,-0.177,0.987,-0.021
18824,1755585308280,9.92,96.78,26.9,818,775,772,763,803,34.48275862068966,-0.177,0.987,-0.021
18854,1755585308310,9.92,96.84,26.94,824,777,771,755,822,33.333333333333336,-0.18,0.99,-0.022
18884,1755585308339,9.91,96.9,26.98,822,778,780,761,817,33.333333333333336,-0.178,0.988,-0.024
18913,1755585308369,9.9,97.01,27.0,818,776,771,761,809,34.48275862068966,-0.175,0.985,-0.023
18943,1755585308399,9.87,97.12,27.06,833,770,774,767,809,33.333333333333336,-0.177,0.991,-0.027
18973,1755585308429,9.86,97.1,27.09,826,779,782,759,808,33.333333333333336,-0.176,0.984,-0.026
19003,1755585308458,9.83,97.07,27.09,818,776,770,759,803,33.333333333333336,-0.176,0.986,-0.03
19032,1755585308488,9.79,97.11,27.09,826,773,775,755,814,34.48275862068966,-0.177,0.987,-0.029
19062,1755585308517,9.76,97.18,27.13,822,780,776,759,807,33.333333333333336,-0.178,0.987,-0.027
19091,1755585308547,9.74,97.24,27.2,826,776,773,756,818,34.48275862068966,-0.178,0.987,-0.028
19121,1755585308576,9.7,97.25,27.24,825,774,771,757,815,33.333333333333336,-0.175,0.986,-0.03
19150,1755585308606,9.65,97.24,27.24,827,769,776,762,814,34.48275862068966,-0.174,0.991,-0.028
19180,1755585308635,9.59,97.36,27.33,825,778,772,751,814,33.333333333333336,-0.173,0.992,-0.027
19209,1755585308665,9.58,97.45,27.29,823,773,780,756,809,34.48275862068966,-0.173,0.989,-0.032
19239,1755585308694,9.52,97.38,27.28,821,778,775,754,813,33.333333333333336,-0.172,0.984,-0.032
19268,1755585308724,9.45,97.54,27.28,822,784,774,760,806,34.48275862068966,-0.171,0.99,-0.03
19298,1755585308754,9.47,97.74,27.19,827,777,772,758,806,33.333333333333336,-0.175,0.993,-0.03
19327,1755585308783,9.45,97.87,27.16,830,774,777,753,813,34.48275862068966,-0.178,0.986,-0.034
19357,1755585308813,9.43,97.82,27.2,830,774,778,760,807,33.333333333333336,-0.179,0.982,-0.039
19386,1755585308842,9.38,97.84,27.3,827,783,769,759,816,34.48275862068966,-0.179,0.986,-0.038
19416,1755585308872,9.34,97.93,27.3,824,777,782,764,822,33.333333333333336,-0.179,0.991,-0.042
19445,1755585308901,9.32,97.94,27.3,818,776,775,764,810,34.48275862068966,-0.179,0.982,-0.041
19475,1755585308930,9.25,97.92,27.37,833,761,775,757,808,33.333333333333336,-0.178,0.981,-0.038
19504,1755585308960,9.2,97.99,27.36,823,770,768,757,828,34.48275862068966,-0.181,0.991,-0.041
19534,1755585308990,9.18,98.02,27.39,825,774,771,755,815,33.333333333333336,-0.181,0.982,-0.04
19564,1755585309019,9.14,97.92,27.42,824,784,776,758,803,33.333333333333336,-0.183,0.982,-0.047
19593,1755585309049,9.09,97.77,27.5,828,767,773,755,810,34.48275862068966,-0.179,0.981,-0.037
19623,1755585309078,9.07,97.84,27.54,825,773,774,759,806,33.333333333333336,-0.182,0.987,-0.035
19652,1755585309108,9.05,97.99,27.62,825,772,769,755,809,34.48275862068966,-0.18,0.989,-0.036
19682,1755585309137,9.03,97.96,27.64,830,773,765,758,806,33.333333333333336,-0.177,0.985,-0.041
19711,1755585309167,9.0,97.92,27.64,822,776,775,757,810,34.48275862068966,-0.175,0.982,-0.038
19741,1755585309196,8.96,97.91,27.68,826,771,779,756,803,33.333333333333336,-0.174,0.989,-0.037
19770,1755585309226,8.93,98.03,27.7,828,785,773,760,815,34.48275862068966,-0.175,0.987,-0.036
19800,1755585309256,8.86,98.1,27.74,827,785,767,758,804,33.333333333333336,-0.176,0.983,-0.037
19829,1755585309285,8.76,98.04,27.76,820,768,770,748,814,34.48275862068966,-0.176,0.984,-0.041
19859,1755585309315,8.68,98.08,27.73,829,781,768,765,808,33.333333333333336,-0.174,0.983,-0.037
19879,1755585309334,8.65,98.09,27.7,831,777,773,757,808,50.0,-0.176,0.989,-0.038
19908,1755585309364,8.62,98.0,27.67,825,764,776,761,816,34.48275862068966,-0.18,0.983,-0.039
19937,1755585309393,8.57,97.96,27.68,823,781,772,759,812,34.48275862068966,-0.183,0.983,-0.039
19967,1755585309422,8.51,98.0,27.72,832,765,782,758,817,33.333333333333336,-0.182,0.984,-0.036
19996,1755585309452,8.44,97.96,27.77,829,774,779,758,803,34.48275862068966,-0.182,0.988,-0.038
20025,1755585309482,8.35,97.91,27.76,823,792,773,758,808,34.48275862068966,-0.177,0.983,-0.036
20055,1755585309511,8.32,97.96,27.8,827,772,776,759,815,33.333333333333336,-0.177,0.987,-0.033
20085,1755585309540,8.31,97.99,27.81,830,773,779,754,806,33.333333333333336,-0.18,0.987,-0.037
20114,1755585309570,8.27,97.94,27.85,824,780,772,759,803,34.48275862068966,-0.18,0.982,-0.033
20144,1755585309599,8.29,97.53,27.88,824,771,765,758,807,33.333333333333336,-0.181,0.988,-0.033
20173,1755585309629,8.3,97.55,27.92,828,771,771,756,809,34.48275862068966,-0.18,0.987,-0.033
20202,1755585309658,8.28,97.52,27.96,835,781,776,762,810,34.48275862068966,-0.178,0.988,-0.035
20232,1755585309687,8.25,97.45,27.96,827,777,772,760,813,33.333333333333336,-0.176,0.986,-0.034
20261,1755585309717,8.23,97.34,27.97,824,768,774,761,812,34.48275862068966,-0.179,0.988,-0.034
20291,1755585309747,8.23,97.33,27.97,824,774,772,761,814,33.333333333333336,-0.18,0.986,-0.029
20320,1755585309776,8.24,97.32,27.98,831,774,770,755,806,34.48275862068966,-0.181,0.988,-0.028
20350,1755585309806,8.23,97.32,28.02,825,775,777,757,808,33.333333333333336,-0.181,0.987,-0.026
20379,1755585309835,8.21,97.32,27.98,833,778,775,758,810,34.48275862068966,-0.18,0.987,-0.027
20409,1755585309865,8.21,97.35,28.02,830,783,773,756,809,33.333333333333336,-0.18,0.986,-0.026
20438,1755585309894,8.18,97.36,28.09,822,770,777,752,812,34.48275862068966,-0.181,0.987,-0.026
20468,1755585309924,8.16,97.37,28.07,823,779,773,755,815,33.333333333333336,-0.179,0.985,-0.025
20497,1755585309953,8.12,97.5,28.09,823,776,768,755,811,34.48275862068966,-0.182,0.986,-0.026
20527,1755585309983,8.13,97.58,28.19,827,775,768,758,808,33.333333333333336,-0.184,0.986,-0.027
20557,1755585310013,8.12,97.62,28.23,827,776,772,762,809,33.333333333333336,-0.183,0.983,-0.026
20586,1755585310042,8.09,97.71,28.26,829,780,777,761,809,34.48275862068966,-0.182,0.988,-0.032
20616,1755585310072,8.04,97.64,28.28,825,777,773,754,810,33.333333333333336,-0.183,0.984,-0.032
20645,1755585310101,7.95,97.52,28.33,827,781,774,756,822,34.48275862068966,-0.179,0.983,-0.028
20675,1755585310131,7.95,97.56,28.3,822,784,772,760,811,33.333333333333336,-0.178,0.988,-0.026
20704,1755585310161,7.95,97.58,28.32,829,769,773,753,811,34.48275862068966,-0.179,0.987,-0.027
20734,1755585310190,7.92,97.64,28.39,830,773,771,757,809,33.333333333333336,-0.181,0.986,-0.025
20764,1755585310219,7.88,97.65,28.39,831,766,769,752,803,33.333333333333336,-0.181,0.984,-0.024
20793,1755585310249,7.88,97.7,28.42,818,765,779,760,807,34.48275862068966,-0.183,0.988,-0.024
20822,1755585310278,7.9,97.73,28.46,828,779,774,761,808,34.48275862068966,-0.183,0.988,-0.027
20852,1755585310307,7.85,97.6,28.53,831,774,775,750,819,33.333333333333336,-0.181,0.984,-0.029
20881,1755585310337,7.8,97.63,28.54,824,774,778,773,815,34.48275862068966,-0.178,0.987,-0.026
20911,1755585310366,7.78,97.73,28.5,821,776,778,760,807,33.333333333333336,-0.181,0.993,-0.027
20940,1755585310396,7.77,97.76,28.53,826,772,771,765,808,34.48275862068966,-0.182,0.984,-0.025
20969,1755585310425,7.77,97.82,28.59,834,769,767,752,812,34.48275862068966,-0.183,0.984,-0.023
20999,1755585310455,7.78,97.84,28.6,825,778,774,760,811,33.333333333333336,-0.183,0.987,-0.026
21028,1755585310484,7.75,97.88,28.62,830,771,775,758,812,34.48275862068966,-0.181,0.984,-0.028
21058,1755585310514,7.73,97.9,28.63,824,792,770,754,814,33.333333333333336,-0.18,0.985,-0.029
21087,1755585310543,7.73,97.92,28.63,823,773,776,750,810,34.48275862068966,-0.182,0.987,-0.028
21117,1755585310573,7.7,97.9,28.67,831,776,774,758,809,33.333333333333336,-0.182,0.983,-0.028
21147,1755585310602,7.66,97.8,28.67,832,782,773,755,818,33.333333333333336,-0.183,0.983,-0.033
21176,1755585310632,7.62,97.75,28.67,822,786,772,758,807,34.48275862068966,-0.181,0.982,-0.028
21206,1755585310661,7.61,97.75,28.73,826,780,773,754,815,33.333333333333336,-0.183,0.985,-0.024
21235,1755585310691,7.61,97.75,28.73,825,779,771,762,809,34.48275862068966,-0.184,0.986,-0.026
21265,1755585310720,7.58,97.64,28.78,826,772,771,760,816,33.333333333333336,-0.184,0.982,-0.025
21294,1755585310750,7.58,97.58,28.84,827,777,773,758,807,34.48275862068966,-0.184,0.985,-0.025
21323,1755585310780,7.59,97.56,28.85,828,772,773,761,825,34.48275862068966,-0.184,0.987,-0.023
21343,1755585310799,7.65,97.53,28.86,831,774,770,756,816,50.0,-0.186,0.986,-0.019
21373,1755585310828,7.71,97.54,28.95,831,774,768,754,808,33.333333333333336,-0.184,0.988,-0.021
21402,1755585310858,7.69,97.5,28.94,831,776,770,755,809,34.48275862068966,-0.179,0.987,-0.021
21432,1755585310887,7.67,97.47,28.94,830,778,774,751,811,33.333333333333336,-0.178,0.988,-0.018
21461,1755585310917,7.67,97.48,28.95,824,778,780,752,810,34.48275862068966,-0.182,0.989,-0.019
21491,1755585310946,7.67,97.49,28.97,832,778,768,758,810,33.333333333333336,-0.185,0.987,-0.019
21520,1755585310976,7.67,97.48,29.02,824,779,773,757,806,34.48275862068966,-0.186,0.984,-0.016
21549,1755585311006,7.71,97.47,29.1,824,781,778,755,816,34.48275862068966,-0.184,0.983,-0.014
21579,1755585311035,7.75,97.58,29.13,827,767,773,757,812,33.333333333333336,-0.185,0.988,-0.017
21609,1755585311065,7.75,97.59,29.17,835,776,775,754,810,33.333333333333336,-0.181,0.986,-0.017
21639,1755585311094,7.74,97.59,29.23,825,785,775,761,811,33.333333333333336,-0.177,0.985,-0.018
21668,1755585311124,7.74,97.63,29.21,830,776,767,759,808,34.48275862068966,-0.177,0.986,-0.018
21698,1755585311154,7.77,97.63,29.18,829,773,772,762,808,33.333333333333336,-0.18,0.983,-0.019
21727,1755585311183,7.79,97.59,29.21,830,771,770,750,809,34.48275862068966,-0.182,0.981,-0.023
21757,1755585311212,7.79,97.54,29.26,821,775,760,763,814,33.333333333333336,-0.181,0.983,-0.023
21786,1755585311242,7.8,97.56,29.26,837,777,774,755,807,34.48275862068966,-0.183,0.988,-0.021
21816,1755585311272,7.81,97.57,29.31,825,774,770,753,811,33.333333333333336,-0.181,0.985,-0.016
21836,1755585311292,7.84,97.53,29.31,833,773,774,754,814,50.0,-0.18,0.986,-0.017
21866,1755585311321,7.84,97.46,29.36,824,775,774,762,817,33.333333333333336,-0.178,0.985,-0.019
21895,1755585311351,7.8,97.34,29.35,829,770,775,760,812,34.48275862068966,-0.177,0.985,-0.02
21925,1755585311380,7.77,97.33,29.33,832,776,784,755,803,33.333333333333336,-0.181,0.987,-0.016
21954,1755585311410,7.82,97.34,29.36,831,778,776,759,811,34.48275862068966,-0.186,0.983,-0.018
21984,1755585311440,7.86,97.31,29.41,830,783,775,756,815,33.333333333333336,-0.183,0.984,-0.019
22013,1755585311469,7.88,97.33,29.42,828,777,773,762,809,34.48275862068966,-0.181,0.988,-0.02
22043,1755585311499,7.9,97.4,29.45,830,778,765,753,805,33.333333333333336,-0.18,0.989,-0.017
22072,1755585311529,7.88,97.37,29.42,827,779,778,760,809,34.48275862068966,-0.179,0.984,-0.015
22102,1755585311558,7.83,97.36,29.44,833,773,773,757,812,33.333333333333336,-0.182,0.987,-0.013
22132,1755585311588,7.85,97.46,29.48,818,773,776,759,809,33.333333333333336,-0.186,0.99,-0.012
22162,1755585311617,7.89,97.52,29.55,819,773,772,758,815,33.333333333333336,-0.188,0.984,-0.014
22191,1755585311647,7.93,97.61,29.64,838,775,780,759,807,34.48275862068966,-0.188,0.984,-0.017
22220,1755585311676,7.98,97.65,29.68,833,768,776,755,810,34.48275862068966,-0.187,0.986,-0.019
22250,1755585311706,8.02,97.67,29.75,825,770,778,753,811,33.333333333333336,-0.184,0.984,-0.018
22279,1755585311735,8.03,97.64,29.78,829,772,772,759,807,34.48275862068966,-0.18,0.984,-0.02
22309,1755585311765,7.99,97.65,29.78,823,778,777,757,809,33.333333333333336,-0.177,0.985,-0.019
22338,1755585311794,7.97,97.62,29.77,829,770,772,754,815,34.48275862068966,-0.179,0.986,-0.018
22368,1755585311823,7.96,97.69,29.84,830,779,764,754,808,33.333333333333336,-0.184,0.988,-0.02
22397,1755585311853,7.94,97.69,29.89,831,778,780,757,813,34.48275862068966,-0.184,0.983,-0.022
22427,1755585311883,7.93,97.69,29.93,827,777,780,757,814,33.333333333333336,-0.186,0.986,-0.024
22456,1755585311912,7.93,97.68,30.02,831,777,766,763,809,34.48275862068966,-0.185,0.985,-0.022
22486,1755585311942,7.92,97.69,30.08,830,774,773,757,808,33.333333333333336,-0.183,0.986,-0.023
22515,1755585311971,7.92,97.65,30.11,828,781,771,756,813,34.48275862068966,-0.181,0.986,-0.023
22545,1755585312001,7.88,97.63,30.19,835,772,767,759,813,33.333333333333336,-0.178,0.986,-0.02
22574,1755585312030,7.88,97.63,30.18,828,772,770,754,809,34.48275862068966,-0.179,0.99,-0.018
22604,1755585312060,7.87,97.61,30.23,830,775,773,757,807,33.333333333333336,-0.178,0.986,-0.019
22633,1755585312089,7.83,97.52,30.3,827,769,779,757,809,34.48275862068966,-0.18,0.985,-0.021
22663,1755585312119,7.73,97.47,30.39,832,775,773,757,815,33.333333333333336,-0.18,0.987,-0.021
22692,1755585312148,7.75,97.44,30.47,834,774,768,751,811,34.48275862068966,-0.18,0.988,-0.017
22722,1755585312178,7.81,97.52,30.58,831,766,773,757,810,33.333333333333336,-0.179,0.987,-0.016
22752,1755585312207,7.82,97.46,30.58,837,772,772,758,812,33.333333333333336,-0.173,0.983,-0.018
22781,1755585312237,7.8,97.43,30.59,835,778,775,757,810,34.48275862068966,-0.173,0.986,-0.019
22811,1755585312267,7.75,97.38,30.59,831,771,772,753,801,33.333333333333336,-0.172,0.986,-0.016
22840,1755585312296,7.73,97.34,30.59,837,774,774,762,808,34.48275862068966,-0.175,0.988,-0.013
22870,1755585312326,7.75,97.31,30.62,834,779,771,756,816,33.333333333333336,-0.173,0.985,-0.014
22899,1755585312355,7.75,97.21,30.61,835,777,780,756,798,34.48275862068966,-0.173,0.984,-0.018
22929,1755585312384,7.74,97.07,30.62,829,772,773,757,808,33.333333333333336,-0.178,0.985,-0.019
22958,1755585312414,7.71,96.93,30.69,832,766,767,754,811,34.48275862068966,-0.179,0.982,-0.012
22988,1755585312443,7.76,96.93,30.71,831,778,775,757,804,33.333333333333336,-0.179,0.987,-0.004
23017,1755585312473,7.82,96.97,30.75,831,780,775,768,812,34.48275862068966,-0.181,0.992,-0.004
23047,1755585312503,7.85,97.02,30.82,831,778,769,760,816,33.333333333333336,-0.176,0.987,-0.003
23077,1755585312533,7.84,97.06,30.86,833,781,769,756,807,33.333333333333336,-0.172,0.988,-0.004
23106,1755585312562,7.83,97.07,30.88,830,779,774,755,805,34.48275862068966,-0.171,0.987,-0.005
23136,1755585312591,7.8,97.09,30.91,822,776,779,756,806,33.333333333333336,-0.169,0.989,-0.005
23165,1755585312621,7.76,97.07,30.87,832,769,775,755,813,34.48275862068966,-0.167,0.99,-0.009
23194,1755585312650,7.72,97.0,30.82,832,775,773,762,803,34.48275862068966,-0.168,0.985,-0.016
23224,1755585312680,7.63,96.85,30.83,828,782,770,758,815,33.333333333333336,-0.172,0.979,-0.016
23253,1755585312710,7.54,96.72,30.84,826,774,767,750,806,34.48275862068966,-0.178,0.985,-0.01
23283,1755585312740,7.57,96.71,30.86,830,779,767,757,806,33.333333333333336,-0.184,0.989,-0.001
23303,1755585312759,7.63,96.67,30.9,827,778,773,757,812,50.0,-0.185,0.986,0.004
23333,1755585312789,7.69,96.67,30.99,832,770,777,759,807,33.333333333333336,-0.179,0.985,0.001
23363,1755585312819,7.71,96.69,31.02,831,777,778,755,805,33.333333333333336,-0.175,0.989,-0.0
23392,1755585312848,7.72,96.71,31.02,822,775,770,750,815,34.48275862068966,-0.176,0.988,0.001
23422,1755585312877,7.77,96.74,31.01,829,781,769,753,810,33.333333333333336,-0.182,0.987,0.003
23451,1755585312907,7.82,96.8,31.14,828,779,772,760,807,34.48275862068966,-0.183,0.987,0.005
23480,1755585312936,7.83,96.79,31.23,827,776,776,761,808,34.48275862068966,-0.18,0.989,0.001
23510,1755585312966,7.85,96.74,31.23,828,775,773,759,809,33.333333333333336,-0.178,0.986,-0.0
23539,1755585312995,7.84,96.77,31.3,826,771,773,752,817,34.48275862068966,-0.174,0.987,0.003
23569,1755585313025,7.83,96.85,31.34,831,790,770,756,813,33.333333333333336,-0.173,0.99,0.002
23599,1755585313055,7.87,96.87,31.38,831,780,776,759,821,33.333333333333336,-0.175,0.988,-0.003
23628,1755585313084,7.88,96.76,31.42,825,777,778,761,810,34.48275862068966,-0.172,0.983,-0.007
23658,1755585313114,7.85,96.61,31.48,827,781,770,761,814,33.333333333333336,-0.169,0.984,-0.006
23687,1755585313143,7.86,96.65,31.48,822,776,778,754,811,34.48275862068966,-0.172,0.993,-0.002
23717,1755585313173,7.91,96.73,31.49,831,781,775,753,804,33.333333333333336,-0.179,0.99,0.003
23746,1755585313202,7.95,96.75,31.59,830,773,778,757,820,34.48275862068966,-0.18,0.985,0.001
23776,1755585313232,7.99,96.72,31.67,821,776,768,754,813,33.333333333333336,-0.176,0.988,-0.002
23805,1755585313261,8.01,96.67,31.71,828,781,773,753,815,34.48275862068966,-0.172,0.988,-0.002
23835,1755585313291,8.01,96.61,31.71,822,774,766,760,808,33.333333333333336,-0.17,0.988,0.0
23864,1755585313320,7.99,96.57,31.77,834,774,772,753,812,34.48275862068966,-0.168,0.99,-0.002
23894,1755585313349,7.98,96.55,31.7,828,784,776,759,811,33.333333333333336,-0.167,0.985,-0.002
23923,1755585313379,7.96,96.48,31.71,824,776,768,759,805,34.48275862068966,-0.172,0.986,-0.004
23953,1755585313408,7.93,96.41,31.73,826,775,773,763,810,33.333333333333336,-0.175,0.988,0.0
23982,1755585313438,7.94,96.44,31.76,824,777,773,752,816,34.48275862068966,-0.177,0.988,0.006
24012,1755585313467,7.94,96.48,31.84,829,767,776,757,812,33.333333333333336,-0.176,0.989,0.006
24041,1755585313497,7.94,96.55,31.88,831,772,771,769,806,34.48275862068966,-0.171,0.99,0.005
24070,1755585313526,7.9,96.53,31.89,826,777,769,755,814,34.48275862068966,-0.166,0.988,0.002
24100,1755585313555,7.86,96.49,31.84,839,775,769,760,816,33.333333333333336,-0.167,0.987,-0.0
24129,1755585313585,7.82,96.45,31.85,824,776,776,750,819,34.48275862068966,-0.172,0.986,-0.001
24159,1755585313615,7.8,96.43,31.82,831,782,768,758,802,33.333333333333336,-0.177,0.986,0.002
24188,1755585313644,7.85,96.43,31.85,827,773,771,756,794,34.48275862068966,-0.182,0.987,0.005
24218,1755585313674,7.87,96.39,31.97,832,781,774,758,817,33.333333333333336,-0.182,0.986,0.005
24247,1755585313703,7.88,96.38,32.02,827,776,770,748,808,34.48275862068966,-0.174,0.988,0.003
24276,1755585313732,7.86,96.34,32.01,833,772,775,760,802,34.48275862068966,-0.17,0.989,0.004
24306,1755585313762,7.79,96.23,32.0,828,776,766,760,804,33.333333333333336,-0.169,0.987,0.006
24335,1755585313791,7.75,96.22,31.99,831,776,770,759,811,34.48275862068966,-0.172,0.993,0.006
24365,1755585313821,7.75,96.25,31.99,832,767,780,765,812,33.333333333333336,-0.176,0.988,0.011
24394,1755585313850,7.77,96.23,32.06,828,773,776,760,810,34.48275862068966,-0.179,0.986,0.008
24424,1755585313880,7.79,96.16,32.07,829,789,776,762,802,33.333333333333336,-0.177,0.986,0.007
24453,1755585313909,7.81,96.14,32.08,827,776,769,757,815,34.48275862068966,-0.175,0.988,0.006
24483,1755585313939,7.8,96.14,32.1,827,779,777,753,818,33.333333333333336,-0.176,0.987,0.008
24512,1755585313968,7.8,96.14,32.12,827,774,774,758,807,34.48275862068966,-0.179,0.988,0.011
24541,1755585313997,7.83,96.14,32.16,831,773,774,757,809,34.48275862068966,-0.18,0.987,0.013
24571,1755585314026,7.84,96.1,32.2,825,778,769,754,815,33.333333333333336,-0.176,0.988,0.01
24600,1755585314056,7.84,96.08,32.22,839,769,766,761,813,34.48275862068966,-0.173,0.988,0.01
24630,1755585314086,7.82,96.12,32.24,833,773,774,758,812,33.333333333333336,-0.175,0.987,0.011
24659,1755585314115,7.81,96.12,32.27,832,778,772,757,812,34.48275862068966,-0.177,0.986,0.009
24688,1755585314144,7.81,96.1,32.31,826,778,771,758,814,34.48275862068966,-0.177,0.987,0.007
24718,1755585314174,7.83,96.04,32.35,831,783,778,757,812,33.333333333333336,-0.176,0.985,0.009
24747,1755585314203,7.82,96.01,32.36,826,778,766,756,806,34.48275862068966,-0.176,0.988,0.013
24777,1755585314232,7.85,96.06,32.39,826,772,772,757,804,33.333333333333336,-0.176,0.989,0.015
24806,1755585314262,7.88,96.07,32.42,834,780,765,755,811,34.48275862068966,-0.176,0.985,0.016
24835,1755585314292,7.88,96.11,32.5,824,776,766,754,813,34.48275862068966,-0.177,0.988,0.013
24865,1755585314321,7.89,96.09,32.5,828,774,777,764,803,33.333333333333336,-0.176,0.986,0.011
24895,1755585314351,7.88,96.03,32.53,831,775,771,758,811,33.333333333333336,-0.176,0.986,0.009
24915,1755585314371,7.9,95.92,32.57,827,775,771,757,811,50.0,-0.177,0.986,0.012
24944,1755585314401,7.91,95.93,32.64,829,774,769,756,808,34.48275862068966,-0.178,0.988,0.018
24974,1755585314430,7.93,95.97,32.7,827,775,774,751,810,33.333333333333336,-0.175,0.99,0.018
25004,1755585314460,7.92,96.0,32.74,829,774,770,756,799,33.333333333333336,-0.171,0.987,0.015
25033,1755585314489,7.89,95.94,32.75,827,774,777,759,802,34.48275862068966,-0.169,0.985,0.012
25063,1755585314519,7.87,95.91,32.8,827,776,777,756,812,33.333333333333336,-0.172,0.989,0.012
25092,1755585314548,7.85,95.94,32.8,828,782,787,751,809,34.48275862068966,-0.172,0.988,0.013
25122,1755585314578,7.85,95.91,32.83,825,771,776,757,845,33.333333333333336,-0.174,0.986,0.012
25151,1755585314607,7.84,95.86,32.87,829,785,777,754,806,34.48275862068966,-0.173,0.985,0.012
25181,1755585314637,7.82,95.86,32.88,831,771,770,753,815,33.333333333333336,-0.173,0.989,0.015
25210,1755585314666,7.83,95.88,32.93,831,772,777,761,813,34.48275862068966,-0.176,0.989,0.015
25240,1755585314695,7.83,95.85,32.92,825,776,770,757,811,33.333333333333336,-0.176,0.986,0.018
25269,1755585314725,7.86,95.82,32.99,828,780,771,757,810,34.48275862068966,-0.177,0.986,0.017
25298,1755585314754,7.86,95.81,33.04,822,781,770,753,812,34.48275862068966,-0.174,0.987,0.016
25328,1755585314785,7.85,95.79,33.04,828,779,774,761,809,33.333333333333336,-0.172,0.989,0.016
25348,1755585314804,7.85,95.74,33.07,830,769,769,754,813,50.0,-0.171,0.987,0.017
25378,1755585314834,7.84,95.7,33.09,833,772,770,755,807,33.333333333333336,-0.171,0.986,0.016
25407,1755585314863,7.84,95.69,33.11,828,776,777,762,816,34.48275862068966,-0.174,0.987,0.017
25437,1755585314893,7.83,95.69,33.15,828,771,772,754,807,33.333333333333336,-0.175,0.986,0.019
25466,1755585314922,7.83,95.71,33.19,824,782,777,756,807,34.48275862068966,-0.175,0.988,0.02
25496,1755585314952,7.83,95.75,33.25,823,770,774,758,815,33.333333333333336,-0.173,0.988,0.02
25525,1755585314981,7.82,95.73,33.27,834,773,772,754,818,34.48275862068966,-0.171,0.988,0.018
25555,1755585315010,7.82,95.74,33.26,827,776,776,757,808,33.333333333333336,-0.17,0.987,0.015
25584,1755585315040,7.8,95.79,33.29,826,777,771,758,813,34.48275862068966,-0.171,0.987,0.017
25614,1755585315069,7.8,95.77,33.3,827,783,762,760,805,33.333333333333336,-0.174,0.987,0.015
25643,1755585315099,7.82,95.73,33.35,828,779,780,757,809,34.48275862068966,-0.174,0.985,0.014
25672,1755585315128,7.8,95.72,33.4,825,773,770,752,811,34.48275862068966,-0.172,0.985,0.018
25702,1755585315158,7.79,95.73,33.42,818,777,775,763,810,33.333333333333336,-0.172,0.988,0.02
25731,1755585315187,7.81,95.75,33.42,830,772,775,758,824,34.48275862068966,-0.173,0.99,0.019
25761,1755585315217,7.8,95.78,33.47,829,779,775,755,800,33.333333333333336,-0.171,0.988,0.016
25790,1755585315246,7.76,95.75,33.5,832,777,768,763,814,34.48275862068966,-0.169,0.988,0.014
25820,1755585315275,7.73,95.73,33.48,833,780,768,761,803,33.333333333333336,-0.171,0.988,0.012
25849,1755585315305,7.72,95.7,33.49,827,779,783,758,809,34.48275862068966,-0.174,0.987,0.013
25878,1755585315334,7.73,95.71,33.52,822,771,776,758,817,34.48275862068966,-0.178,0.989,0.015
25908,1755585315363,7.72,95.66,33.57,821,775,767,762,814,33.333333333333336,-0.177,0.988,0.015
25937,1755585315393,7.71,95.66,33.63,831,772,777,764,810,34.48275862068966,-0.174,0.989,0.016
25967,1755585315422,7.68,95.57,33.62,827,780,774,761,808,33.333333333333336,-0.171,0.989,0.02
25996,1755585315452,7.66,95.62,33.67,824,771,768,761,813,34.48275862068966,-0.17,0.991,0.018
26026,1755585315482,7.63,95.59,33.63,819,775,775,761,809,33.333333333333336,-0.17,0.987,0.016
26055,1755585315511,7.6,95.54,33.66,825,781,776,760,804,34.48275862068966,-0.172,0.986,0.019
26084,1755585315540,7.59,95.53,33.69,836,775,774,751,806,34.48275862068966,-0.172,0.99,0.022
26114,1755585315570,7.6,95.56,33.67,824,776,770,754,807,33.333333333333336,-0.171,0.991,0.021
26143,1755585315600,7.6,95.59,33.69,825,778,772,759,813,34.48275862068966,-0.172,0.988,0.018
26173,1755585315629,7.57,95.58,33.66,822,783,766,755,807,33.333333333333336,-0.174,0.985,0.019
26203,1755585315659,7.58,95.56,33.69,824,778,776,755,808,33.333333333333336,-0.179,0.985,0.02
26232,1755585315688,7.63,95.53,33.73,829,773,777,753,806,34.48275862068966,-0.182,0.988,0.019
26262,1755585315718,7.67,95.49,33.82,828,780,775,760,810,33.333333333333336,-0.176,0.984,0.023
26291,1755585315747,7.7,95.51,33.85,822,777,774,764,813,34.48275862068966,-0.173,0.988,0.023
26321,1755585315777,7.68,95.54,33.86,826,781,771,756,814,33.333333333333336,-0.174,0.989,0.024
26350,1755585315807,7.69,95.53,33.89,827,774,775,761,814,34.48275862068966,-0.173,0.987,0.023
26380,1755585315836,7.7,95.52,33.89,827,770,770,761,809,33.333333333333336,-0.174,0.988,0.02
26400,1755585315856,7.73,95.45,33.91,823,785,772,757,811,50.0,-0.175,0.986,0.02
26430,1755585315885,7.74,95.45,33.95,833,773,769,754,809,33.333333333333336,-0.177,0.988,0.018
26459,1755585315915,7.76,95.5,34.0,832,785,779,760,801,34.48275862068966,-0.175,0.989,0.02
26489,1755585315945,7.76,95.53,34.0,824,777,769,759,812,33.333333333333336,-0.172,0.989,0.02
26518,1755585315974,7.74,95.58,34.02,821,773,776,759,813,34.48275862068966,-0.17,0.989,0.021
26548,1755585316004,7.71,95.55,34.0,830,766,772,754,818,33.333333333333336,-0.172,0.987,0.02
26577,1755585316033,7.71,95.53,34.03,830,775,770,761,819,34.48275862068966,-0.177,0.986,0.018
26607,1755585316062,7.72,95.51,34.08,828,770,774,760,809,33.333333333333336,-0.178,0.987,0.017
26636,1755585316092,7.74,95.54,34.13,824,778,773,757,810,34.48275862068966,-0.176,0.988,0.019
26665,1755585316121,7.73,95.54,34.17,825,775,774,758,812,34.48275862068966,-0.175,0.987,0.017
26695,1755585316151,7.72,95.54,34.2,832,777,770,757,806,33.333333333333336,-0.172,0.986,0.018
26725,1755585316181,7.7,95.51,34.23,826,772,771,762,810,33.333333333333336,-0.171,0.987,0.019
26754,1755585316211,7.68,95.5,34.23,831,771,776,748,802,34.48275862068966,-0.172,0.985,0.019
26775,1755585316230,7.69,95.46,34.23,820,776,776,756,811,47.61904761904762,-0.176,0.984,0.021
26804,1755585316260,7.68,95.48,34.3,823,775,777,754,802,34.48275862068966,-0.176,0.985,0.023
26833,1755585316289,7.69,95.46,34.32,828,783,768,760,801,34.48275862068966,-0.176,0.986,0.02
26863,1755585316319,7.69,95.45,34.37,828,783,772,751,808,33.333333333333336,-0.176,0.985,0.019
26892,1755585316348,7.66,95.44,34.41,818,777,778,765,812,34.48275862068966,-0.174,0.985,0.022
26922,1755585316377,7.65,95.45,34.42,822,780,773,754,804,33.333333333333336,-0.173,0.988,0.019
26951,1755585316407,7.65,95.42,34.44,821,775,776,752,810,34.48275862068966,-0.173,0.984,0.021
