timestamp_ms,recv_timestamp_ms,pitch,roll,yaw,flex1,flex2,flex3,flex4,flex5,sampling_hz,accel_x,accel_y,accel_z
27071,1755587374048,49.82,-82.73,-35.06,778,778,763,822,847,34.48275862068966,-0.767,-0.64,0.077
27101,1755587374078,49.79,-82.72,-35.02,774,771,776,826,842,33.333333333333336,-0.765,-0.638,0.079
27130,1755587374107,49.84,-82.75,-35.04,783,774,763,816,852,34.48275862068966,-0.765,-0.639,0.079
27160,1755587374137,49.87,-82.72,-35.01,779,772,770,818,845,33.333333333333336,-0.767,-0.64,0.078
27190,1755587374166,49.88,-82.78,-35.0,781,782,767,824,848,33.333333333333336,-0.766,-0.638,0.076
27219,1755587374196,49.91,-82.8,-35.0,777,776,768,817,854,34.48275862068966,-0.766,-0.638,0.079
27249,1755587374226,49.89,-82.76,-35.0,781,776,770,822,840,33.333333333333336,-0.765,-0.636,0.078
27278,1755587374255,49.94,-82.8,-35.01,774,769,763,821,862,34.48275862068966,-0.768,-0.639,0.078
27308,1755587374285,49.91,-82.74,-34.99,782,776,771,818,843,33.333333333333336,-0.768,-0.638,0.077
27337,1755587374314,49.94,-82.76,-35.0,783,776,772,820,851,34.48275862068966,-0.764,-0.636,0.077
27367,1755587374344,49.97,-82.82,-35.0,781,775,770,810,846,33.333333333333336,-0.766,-0.637,0.078
27396,1755587374373,49.91,-82.76,-34.99,783,777,789,818,833,34.48275862068966,-0.767,-0.64,0.076
27426,1755587374403,49.89,-82.79,-34.98,782,763,767,815,852,33.333333333333336,-0.766,-0.638,0.074
27455,1755587374432,49.9,-82.89,-34.98,778,780,765,817,847,34.48275862068966,-0.765,-0.636,0.074
27485,1755587374462,49.94,-82.92,-34.99,781,778,771,818,846,33.333333333333336,-0.767,-0.637,0.078
27514,1755587374491,49.88,-82.86,-34.99,778,775,762,818,857,34.48275862068966,-0.766,-0.637,0.079
27544,1755587374521,49.94,-82.88,-34.98,780,779,771,820,855,33.333333333333336,-0.765,-0.639,0.077
27574,1755587374550,49.98,-82.91,-34.95,774,770,767,816,846,33.333333333333336,-0.763,-0.639,0.075
27603,1755587374580,50.01,-82.89,-34.95,776,776,766,824,849,34.48275862068966,-0.766,-0.638,0.075
27633,1755587374610,50.04,-82.9,-34.95,788,784,775,823,838,33.333333333333336,-0.767,-0.637,0.076
27662,1755587374640,50.14,-82.9,-34.93,781,772,774,821,843,34.48275862068966,-0.767,-0.636,0.077
27692,1755587374669,50.16,-82.88,-34.92,782,765,770,807,849,33.333333333333336,-0.766,-0.636,0.076
27722,1755587374699,50.17,-82.91,-34.93,784,769,769,824,844,33.333333333333336,-0.766,-0.635,0.073
27751,1755587374728,50.2,-82.86,-34.93,774,769,769,817,851,34.48275862068966,-0.768,-0.635,0.075
27781,1755587374758,50.2,-82.77,-34.89,782,772,774,823,845,33.333333333333336,-0.768,-0.635,0.075
27811,1755587374788,50.16,-82.79,-34.88,778,770,771,823,845,33.333333333333336,-0.767,-0.636,0.072
27840,1755587374817,50.17,-82.81,-34.85,775,779,765,824,857,34.48275862068966,-0.768,-0.636,0.072
27870,1755587374847,50.11,-82.77,-34.85,779,767,762,827,841,33.333333333333336,-0.767,-0.633,0.077
27899,1755587374876,50.09,-82.72,-34.86,778,780,767,823,845,34.48275862068966,-0.767,-0.633,0.078
27929,1755587374906,50.13,-82.75,-34.84,778,778,771,831,849,33.333333333333336,-0.772,-0.637,0.072
27959,1755587374936,50.07,-82.77,-34.82,779,779,762,814,848,33.333333333333336,-0.768,-0.634,0.073
27988,1755587374965,50.07,-82.86,-34.82,780,775,768,809,841,34.48275862068966,-0.767,-0.632,0.076
28018,1755587374995,50.0,-82.85,-34.83,781,769,770,816,853,33.333333333333336,-0.769,-0.636,0.079
28047,1755587375024,49.95,-82.84,-34.81,776,773,778,815,852,34.48275862068966,-0.769,-0.636,0.075
28077,1755587375054,49.97,-82.94,-34.8,765,771,771,824,848,33.333333333333336,-0.769,-0.634,0.075
28107,1755587375084,49.97,-82.95,-34.79,781,765,775,822,847,33.333333333333336,-0.77,-0.633,0.08
28127,1755587375104,49.9,-82.87,-34.8,774,791,771,821,844,50.0,-0.768,-0.633,0.084
28156,1755587375133,49.95,-82.79,-34.81,779,772,757,813,842,34.48275862068966,-0.767,-0.633,0.083
28186,1755587375163,50.02,-82.87,-34.81,789,774,772,821,875,33.333333333333336,-0.767,-0.634,0.078
28215,1755587375192,50.1,-83.01,-34.79,785,791,767,817,847,34.48275862068966,-0.772,-0.637,0.076
28245,1755587375222,50.07,-82.92,-34.76,783,760,766,823,847,33.333333333333336,-0.769,-0.634,0.08
28275,1755587375251,50.17,-82.88,-34.75,775,765,760,822,842,33.333333333333336,-0.766,-0.633,0.079
28304,1755587375281,50.22,-82.94,-34.74,785,772,773,824,853,34.48275862068966,-0.77,-0.634,0.077
28333,1755587375311,50.23,-82.96,-34.72,780,773,772,821,845,34.48275862068966,-0.772,-0.635,0.076
28363,1755587375340,50.29,-82.92,-34.69,777,776,774,824,847,33.333333333333336,-0.769,-0.632,0.076
28393,1755587375370,50.32,-82.95,-34.66,773,773,772,819,849,33.333333333333336,-0.767,-0.633,0.072
28422,1755587375399,50.38,-83.07,-34.65,785,779,757,826,841,34.48275862068966,-0.769,-0.635,0.071
28452,1755587375429,50.35,-83.05,-34.63,778,777,765,827,845,33.333333333333336,-0.768,-0.633,0.071
28481,1755587375458,50.39,-83.08,-34.63,782,780,769,819,854,34.48275862068966,-0.77,-0.633,0.072
28511,1755587375488,50.39,-83.13,-34.62,781,775,772,816,844,33.333333333333336,-0.771,-0.633,0.072
28541,1755587375518,50.38,-83.19,-34.59,776,777,771,819,846,33.333333333333336,-0.77,-0.633,0.072
28570,1755587375547,50.43,-83.12,-34.57,776,771,765,816,851,34.48275862068966,-0.772,-0.632,0.074
28600,1755587375577,50.42,-83.01,-34.53,779,762,761,827,843,33.333333333333336,-0.772,-0.63,0.073
28630,1755587375607,50.44,-83.14,-34.52,779,772,768,815,853,33.333333333333336,-0.772,-0.631,0.068
28660,1755587375637,50.49,-83.19,-34.51,777,773,768,823,850,33.333333333333336,-0.77,-0.633,0.067
28689,1755587375666,50.47,-83.14,-34.48,779,775,770,811,844,34.48275862068966,-0.771,-0.633,0.07
28719,1755587375696,50.48,-83.15,-34.47,778,773,767,822,848,33.333333333333336,-0.77,-0.631,0.07
28749,1755587375726,50.55,-83.19,-34.45,780,777,758,814,849,33.333333333333336,-0.771,-0.632,0.07
28779,1755587375755,50.58,-83.12,-34.44,780,775,764,829,847,33.333333333333336,-0.772,-0.629,0.07
28808,1755587375785,50.58,-83.04,-34.45,778,770,769,821,865,34.48275862068966,-0.773,-0.627,0.072
28838,1755587375815,50.54,-83.06,-34.46,777,764,772,813,843,33.333333333333336,-0.773,-0.628,0.066
28867,1755587375844,50.59,-83.16,-34.46,785,776,768,819,846,34.48275862068966,-0.773,-0.63,0.063
28897,1755587375874,50.57,-83.16,-34.45,777,774,765,822,848,33.333333333333336,-0.774,-0.629,0.067
28926,1755587375903,50.54,-83.21,-34.45,785,774,773,819,843,34.48275862068966,-0.772,-0.629,0.067
28956,1755587375933,50.6,-83.26,-34.45,777,772,766,828,831,33.333333333333336,-0.774,-0.629,0.067
28985,1755587375962,50.64,-83.33,-34.44,773,778,763,822,842,34.48275862068966,-0.775,-0.63,0.067
29015,1755587375992,50.65,-83.31,-34.43,783,768,771,826,854,33.333333333333336,-0.774,-0.629,0.068
29044,1755587376021,50.67,-83.27,-34.42,777,768,769,818,851,34.48275862068966,-0.775,-0.629,0.067
29074,1755587376051,50.69,-83.28,-34.41,772,774,769,826,852,33.333333333333336,-0.773,-0.629,0.067
29103,1755587376080,50.68,-83.29,-34.4,782,776,770,822,854,34.48275862068966,-0.774,-0.63,0.066
29133,1755587376110,50.71,-83.3,-34.39,779,767,770,820,853,33.333333333333336,-0.775,-0.63,0.067
29162,1755587376139,50.73,-83.29,-34.36,777,776,762,822,855,34.48275862068966,-0.776,-0.629,0.067
29192,1755587376169,50.67,-83.36,-34.36,781,776,765,819,849,33.333333333333336,-0.773,-0.628,0.065
29222,1755587376198,50.73,-83.44,-34.37,773,773,770,817,843,33.333333333333336,-0.773,-0.628,0.066
29251,1755587376228,50.74,-83.46,-34.36,774,780,773,812,852,34.48275862068966,-0.776,-0.63,0.068
29281,1755587376257,50.76,-83.5,-34.34,779,776,767,818,852,33.333333333333336,-0.776,-0.63,0.067
29310,1755587376287,50.8,-83.53,-34.33,778,774,772,813,846,34.48275862068966,-0.774,-0.629,0.065
29339,1755587376317,50.8,-83.55,-34.32,780,773,765,810,855,34.48275862068966,-0.773,-0.629,0.064
29360,1755587376337,50.8,-83.54,-34.32,782,777,763,821,849,47.61904761904762,-0.775,-0.629,0.065
29389,1755587376366,50.78,-83.6,-34.32,784,768,770,814,889,34.48275862068966,-0.772,-0.628,0.063
29419,1755587376396,50.81,-83.64,-34.31,783,767,773,816,842,33.333333333333336,-0.775,-0.628,0.065
29448,1755587376425,50.77,-83.64,-34.29,776,779,768,823,845,34.48275862068966,-0.777,-0.626,0.065
29478,1755587376455,50.8,-83.68,-34.28,778,773,776,817,866,33.333333333333336,-0.776,-0.627,0.062
29507,1755587376484,50.78,-83.75,-34.27,783,769,779,822,849,34.48275862068966,-0.775,-0.627,0.061
29537,1755587376514,50.8,-83.77,-34.27,779,768,770,825,843,33.333333333333336,-0.775,-0.627,0.064
29566,1755587376543,50.82,-83.71,-34.27,779,776,761,814,847,34.48275862068966,-0.777,-0.628,0.068
29596,1755587376573,50.79,-83.67,-34.25,781,778,772,819,850,33.333333333333336,-0.776,-0.627,0.065
29625,1755587376602,50.79,-83.71,-34.24,779,779,770,820,850,34.48275862068966,-0.776,-0.627,0.061
29655,1755587376632,50.73,-83.81,-34.25,779,768,771,828,834,33.333333333333336,-0.776,-0.627,0.064
29685,1755587376662,50.68,-83.81,-34.25,780,776,761,823,848,33.333333333333336,-0.776,-0.627,0.066
29714,1755587376691,50.53,-83.78,-34.26,781,777,765,827,843,34.48275862068966,-0.773,-0.626,0.063
29744,1755587376721,50.55,-83.85,-34.27,786,783,772,814,865,33.333333333333336,-0.774,-0.627,0.064
29773,1755587376750,50.52,-83.83,-34.29,777,765,768,830,840,34.48275862068966,-0.772,-0.628,0.066
29803,1755587376780,50.52,-83.74,-34.29,780,776,771,821,838,33.333333333333336,-0.773,-0.628,0.066
29833,1755587376810,50.57,-83.77,-34.3,781,776,768,828,855,33.333333333333336,-0.775,-0.63,0.066
29862,1755587376839,50.55,-83.75,-34.27,778,775,773,816,851,34.48275862068966,-0.774,-0.63,0.065
29892,1755587376869,50.47,-83.74,-34.26,777,772,774,822,842,33.333333333333336,-0.771,-0.627,0.065
29922,1755587376899,50.46,-83.74,-34.29,778,776,766,825,845,33.333333333333336,-0.774,-0.626,0.066
29952,1755587376928,50.45,-83.78,-34.28,774,782,772,816,843,33.333333333333336,-0.775,-0.626,0.067
29981,1755587376958,50.51,-83.73,-34.27,776,776,767,825,843,34.48275862068966,-0.775,-0.629,0.07
30011,1755587376988,50.52,-83.61,-34.27,772,775,769,821,842,33.333333333333336,-0.774,-0.627,0.069
30040,1755587377017,50.54,-83.62,-34.28,777,778,765,836,853,34.48275862068966,-0.774,-0.627,0.066
30070,1755587377047,50.53,-83.7,-34.28,779,775,772,812,849,33.333333333333336,-0.775,-0.63,0.067
30099,1755587377077,50.53,-83.63,-34.28,785,760,772,822,849,34.48275862068966,-0.773,-0.628,0.071
30119,1755587377097,50.53,-83.59,-34.28,774,781,772,819,842,50.0,-0.774,-0.627,0.075
30149,1755587377126,50.58,-83.62,-34.28,766,776,767,826,840,33.333333333333336,-0.773,-0.628,0.071
30179,1755587377156,50.64,-83.67,-34.25,772,773,782,818,841,33.333333333333336,-0.774,-0.629,0.068
30208,1755587377185,50.64,-83.69,-34.25,774,784,764,820,848,34.48275862068966,-0.772,-0.627,0.068
30238,1755587377215,50.64,-83.68,-34.26,783,770,771,822,830,33.333333333333336,-0.775,-0.627,0.068
30268,1755587377245,50.58,-83.69,-34.25,786,781,762,809,857,33.333333333333336,-0.775,-0.628,0.067
30297,1755587377274,50.64,-83.73,-34.25,781,774,778,814,848,34.48275862068966,-0.775,-0.629,0.065
30327,1755587377304,50.6,-83.76,-34.25,782,779,769,816,844,33.333333333333336,-0.774,-0.626,0.068
30356,1755587377333,50.58,-83.75,-34.29,776,773,772,827,849,34.48275862068966,-0.773,-0.625,0.073
30386,1755587377363,50.6,-83.67,-34.29,777,774,767,815,872,33.333333333333336,-0.776,-0.626,0.073
30416,1755587377392,50.55,-83.62,-34.3,784,774,776,817,850,33.333333333333336,-0.776,-0.624,0.071
30445,1755587377422,50.53,-83.63,-34.33,778,771,778,815,845,34.48275862068966,-0.775,-0.625,0.069
30474,1755587377452,50.49,-83.63,-34.36,778,786,761,817,842,34.48275862068966,-0.776,-0.625,0.074
30495,1755587377472,50.49,-83.57,-34.38,779,773,769,823,846,47.61904761904762,-0.776,-0.626,0.081
30524,1755587377501,50.48,-83.45,-34.4,783,772,769,815,851,34.48275862068966,-0.776,-0.628,0.079
30554,1755587377531,50.53,-83.39,-34.38,780,771,769,819,845,33.333333333333336,-0.778,-0.632,0.071
30583,1755587377560,50.51,-83.43,-34.38,777,770,769,814,844,34.48275862068966,-0.774,-0.632,0.065
30613,1755587377590,50.51,-83.45,-34.38,784,788,774,825,858,33.333333333333336,-0.772,-0.629,0.067
30642,1755587377619,50.49,-83.48,-34.39,779,774,772,823,849,34.48275862068966,-0.774,-0.631,0.069
30672,1755587377649,50.5,-83.5,-34.36,779,774,768,825,850,33.333333333333336,-0.774,-0.63,0.07
30702,1755587377679,50.55,-83.56,-34.36,789,782,771,816,831,33.333333333333336,-0.774,-0.631,0.073
30732,1755587377709,50.54,-83.52,-34.35,781,764,782,823,838,33.333333333333336,-0.773,-0.628,0.074
30762,1755587377738,50.52,-83.57,-34.36,780,776,765,817,845,33.333333333333336,-0.772,-0.629,0.072
30791,1755587377768,50.5,-83.56,-34.36,779,770,757,819,860,34.48275862068966,-0.773,-0.629,0.072
30821,1755587377797,50.48,-83.6,-34.35,775,777,771,822,834,33.333333333333336,-0.773,-0.629,0.072
30850,1755587377827,50.55,-83.63,-34.35,779,766,770,821,849,34.48275862068966,-0.773,-0.63,0.074
30880,1755587377857,50.53,-83.62,-34.34,785,780,769,817,841,33.333333333333336,-0.773,-0.63,0.072
30910,1755587377887,50.58,-83.63,-34.33,789,774,779,819,842,33.333333333333336,-0.773,-0.629,0.072
30939,1755587377916,50.58,-83.65,-34.31,781,775,774,821,845,34.48275862068966,-0.774,-0.629,0.073
30969,1755587377946,50.62,-83.65,-34.31,782,771,760,822,847,33.333333333333336,-0.774,-0.63,0.073
30999,1755587377976,50.63,-83.62,-34.31,779,772,764,829,854,33.333333333333336,-0.774,-0.63,0.072
31028,1755587378005,50.63,-83.63,-34.31,774,774,774,821,848,34.48275862068966,-0.772,-0.629,0.07
31058,1755587378035,50.69,-83.59,-34.3,779,775,773,816,834,33.333333333333336,-0.774,-0.628,0.072
31087,1755587378064,50.67,-83.6,-34.3,778,772,769,826,840,34.48275862068966,-0.774,-0.628,0.071
31117,1755587378094,50.65,-83.61,-34.3,781,769,774,824,845,33.333333333333336,-0.773,-0.63,0.068
31147,1755587378124,50.7,-83.63,-34.28,778,779,771,820,850,33.333333333333336,-0.775,-0.629,0.069
31177,1755587378154,50.65,-83.67,-34.29,782,762,773,818,840,33.333333333333336,-0.774,-0.628,0.069
31206,1755587378183,50.66,-83.61,-34.29,777,781,769,823,842,34.48275862068966,-0.775,-0.628,0.069
31236,1755587378212,50.67,-83.65,-34.29,785,774,775,813,839,33.333333333333336,-0.774,-0.628,0.069
31265,1755587378242,50.68,-83.66,-34.28,781,779,785,818,833,34.48275862068966,-0.771,-0.629,0.068
31295,1755587378272,50.66,-83.69,-34.3,781,769,767,825,839,33.333333333333336,-0.773,-0.63,0.068
31324,1755587378301,50.68,-83.69,-34.3,781,773,761,834,848,34.48275862068966,-0.774,-0.629,0.071
31354,1755587378331,50.67,-83.65,-34.29,773,776,769,814,833,33.333333333333336,-0.772,-0.628,0.072
31384,1755587378361,50.66,-83.66,-34.3,782,775,781,827,841,33.333333333333336,-0.772,-0.627,0.068
31414,1755587378391,50.63,-83.73,-34.31,780,773,771,821,852,33.333333333333336,-0.774,-0.629,0.065
31443,1755587378420,50.6,-83.82,-34.33,787,780,770,821,841,34.48275862068966,-0.774,-0.63,0.062
31473,1755587378450,50.58,-83.78,-34.32,780,777,770,818,849,33.333333333333336,-0.774,-0.631,0.068
31502,1755587378479,50.61,-83.73,-34.32,780,776,772,818,841,34.48275862068966,-0.772,-0.631,0.073
31532,1755587378509,50.64,-83.66,-34.3,777,774,769,815,847,33.333333333333336,-0.772,-0.633,0.072
31562,1755587378538,50.64,-83.64,-34.26,779,768,766,821,854,33.333333333333336,-0.773,-0.633,0.068
31591,1755587378568,50.64,-83.61,-34.24,783,771,774,832,851,34.48275862068966,-0.773,-0.629,0.068
31621,1755587378598,50.62,-83.65,-34.25,777,768,773,809,847,33.333333333333336,-0.772,-0.629,0.068
31650,1755587378627,50.63,-83.67,-34.23,779,761,762,819,848,34.48275862068966,-0.773,-0.63,0.068
31680,1755587378657,50.59,-83.65,-34.2,778,777,772,817,848,33.333333333333336,-0.773,-0.628,0.07
31710,1755587378687,50.61,-83.68,-34.22,787,776,777,812,845,33.333333333333336,-0.773,-0.628,0.07
31739,1755587378716,50.63,-83.67,-34.2,777,781,771,815,849,34.48275862068966,-0.775,-0.629,0.07
31769,1755587378746,50.63,-83.63,-34.18,776,775,766,820,843,33.333333333333336,-0.772,-0.627,0.071
31798,1755587378775,50.64,-83.6,-34.18,777,771,782,821,857,34.48275862068966,-0.772,-0.628,0.07
31828,1755587378805,50.65,-83.62,-34.17,778,781,772,820,840,33.333333333333336,-0.774,-0.629,0.067
31858,1755587378834,50.65,-83.61,-34.14,773,775,768,829,853,33.333333333333336,-0.774,-0.629,0.068
31887,1755587378864,50.67,-83.58,-34.12,774,771,771,818,849,34.48275862068966,-0.774,-0.626,0.07
31917,1755587378894,50.64,-83.63,-34.13,781,774,768,822,855,33.333333333333336,-0.774,-0.627,0.071
31947,1755587378924,50.65,-83.6,-34.11,772,771,772,823,850,33.333333333333336,-0.774,-0.628,0.069
31976,1755587378953,50.7,-83.59,-34.09,784,779,768,816,845,34.48275862068966,-0.776,-0.628,0.069
32006,1755587378983,50.71,-83.63,-34.08,778,778,769,824,858,33.333333333333336,-0.775,-0.626,0.071
32035,1755587379012,50.79,-83.59,-34.06,781,772,767,817,852,34.48275862068966,-0.777,-0.626,0.074
32065,1755587379042,50.79,-83.53,-34.05,779,772,780,817,859,33.333333333333336,-0.776,-0.627,0.07
32095,1755587379072,50.88,-83.56,-34.04,784,775,771,813,846,33.333333333333336,-0.777,-0.626,0.066
32115,1755587379092,50.88,-83.6,-34.04,775,777,775,819,852,50.0,-0.777,-0.626,0.064
32144,1755587379121,50.83,-83.6,-34.02,778,768,760,815,844,34.48275862068966,-0.778,-0.625,0.068
32174,1755587379151,50.79,-83.65,-34.03,780,771,762,821,856,33.333333333333336,-0.778,-0.625,0.069
32204,1755587379180,50.79,-83.67,-34.06,782,770,787,818,848,33.333333333333336,-0.777,-0.623,0.07
32233,1755587379210,50.75,-83.7,-34.06,783,768,770,819,858,34.48275862068966,-0.778,-0.623,0.07
32263,1755587379240,50.75,-83.69,-34.06,780,770,768,819,848,33.333333333333336,-0.782,-0.625,0.07
32292,1755587379269,50.72,-83.71,-34.04,782,779,771,829,853,34.48275862068966,-0.779,-0.624,0.069
32322,1755587379299,50.72,-83.75,-34.04,781,770,767,804,848,33.333333333333336,-0.775,-0.624,0.07
32352,1755587379329,50.73,-83.67,-34.05,777,773,771,833,844,33.333333333333336,-0.778,-0.625,0.072
32381,1755587379358,50.65,-83.66,-34.05,779,779,768,825,849,34.48275862068966,-0.777,-0.626,0.069
32411,1755587379388,50.71,-83.71,-34.04,778,771,766,813,847,33.333333333333336,-0.777,-0.627,0.068
32441,1755587379418,50.69,-83.67,-34.04,780,774,767,817,849,33.333333333333336,-0.779,-0.625,0.069
32470,1755587379447,50.66,-84.1,-34.05,776,777,773,820,853,34.48275862068966,-0.776,-0.625,0.07
32500,1755587379477,50.69,-84.02,-34.04,777,766,771,811,839,33.333333333333336,-0.778,-0.626,0.072
32530,1755587379507,50.65,-84.03,-34.05,775,773,764,821,846,33.333333333333336,-0.775,-0.625,0.069
32559,1755587379536,50.72,-84.06,-34.04,764,775,763,826,843,34.48275862068966,-0.778,-0.627,0.068
32589,1755587379566,50.71,-84.02,-34.03,776,768,770,818,847,33.333333333333336,-0.779,-0.625,0.07
32618,1755587379595,50.69,-83.96,-34.03,786,777,768,814,840,34.48275862068966,-0.776,-0.623,0.072
32648,1755587379625,50.71,-83.93,-34.06,779,781,771,819,837,33.333333333333336,-0.778,-0.624,0.071
32678,1755587379655,50.73,-83.93,-34.04,775,774,767,821,850,33.333333333333336,-0.779,-0.626,0.068
32707,1755587379684,50.78,-83.9,-34.04,777,781,772,818,866,34.48275862068966,-0.778,-0.625,0.07
32737,1755587379714,50.76,-83.85,-34.04,778,777,769,814,835,33.333333333333336,-0.776,-0.624,0.072
32767,1755587379744,50.77,-83.85,-34.03,780,773,758,816,842,33.333333333333336,-0.777,-0.624,0.069
32796,1755587379773,50.79,-83.86,-34.01,779,779,775,818,845,34.48275862068966,-0.778,-0.625,0.069
32826,1755587379803,50.79,-83.82,-34.0,770,787,768,821,848,33.333333333333336,-0.776,-0.624,0.07
32855,1755587379832,50.73,-83.85,-34.02,778,771,777,817,848,34.48275862068966,-0.777,-0.625,0.071
32885,1755587379862,50.76,-83.8,-34.01,773,777,775,821,851,33.333333333333336,-0.778,-0.625,0.072
32914,1755587379891,50.77,-83.78,-34.0,777,777,771,821,839,34.48275862068966,-0.778,-0.625,0.071
32944,1755587379921,50.88,-83.77,-33.98,782,780,766,808,842,33.333333333333336,-0.778,-0.625,0.072
32973,1755587379950,50.87,-83.77,-33.96,779,777,770,817,848,34.48275862068966,-0.776,-0.624,0.071
33003,1755587379980,50.85,-83.78,-33.97,791,779,769,824,851,33.333333333333336,-0.777,-0.625,0.071
33033,1755587380009,50.82,-83.78,-34.01,781,777,770,816,847,33.333333333333336,-0.777,-0.623,0.071
33062,1755587380039,50.77,-83.75,-34.03,777,766,777,824,849,34.48275862068966,-0.777,-0.623,0.073
33092,1755587380069,50.83,-83.73,-34.03,785,777,771,817,852,33.333333333333336,-0.778,-0.624,0.072
33121,1755587380098,50.84,-83.71,-34.03,777,779,771,817,848,34.48275862068966,-0.775,-0.623,0.072
33151,1755587380127,50.85,-83.66,-34.03,776,775,781,810,854,33.333333333333336,-0.776,-0.624,0.075
33180,1755587380157,50.79,-83.63,-34.02,776,783,763,817,866,34.48275862068966,-0.776,-0.624,0.073
33210,1755587380187,50.84,-83.65,-34.01,770,777,765,820,849,33.333333333333336,-0.778,-0.624,0.071
33239,1755587380217,50.78,-83.68,-34.02,781,773,772,812,849,34.48275862068966,-0.777,-0.623,0.072
33269,1755587380246,50.81,-83.66,-34.04,780,781,769,821,883,33.333333333333336,-0.778,-0.624,0.075
33299,1755587380276,50.82,-83.59,-34.04,783,774,771,821,848,33.333333333333336,-0.777,-0.625,0.074
33329,1755587380306,50.84,-83.64,-34.04,771,767,763,812,845,33.333333333333336,-0.776,-0.626,0.072
33358,1755587380335,50.89,-83.62,-34.03,785,777,765,821,851,34.48275862068966,-0.776,-0.626,0.074
33388,1755587380365,50.87,-83.6,-34.03,782,775,771,817,852,33.333333333333336,-0.776,-0.623,0.075
33418,1755587380394,50.83,-83.56,-34.04,775,787,770,819,844,33.333333333333336,-0.776,-0.623,0.076
33447,1755587380424,50.83,-83.57,-34.05,782,778,766,821,840,34.48275862068966,-0.778,-0.625,0.075
33477,1755587380454,50.84,-83.59,-34.03,781,775,763,827,848,33.333333333333336,-0.777,-0.624,0.074
33506,1755587380484,50.9,-83.59,-34.04,784,772,764,820,861,34.48275862068966,-0.777,-0.626,0.075
33536,1755587380513,50.85,-83.57,-34.03,779,776,774,820,849,33.333333333333336,-0.776,-0.626,0.072
33566,1755587380542,50.88,-83.56,-34.01,779,774,772,818,849,33.333333333333336,-0.778,-0.626,0.073
33595,1755587380572,50.89,-83.56,-34.0,781,773,771,817,850,34.48275862068966,-0.777,-0.624,0.073
33624,1755587380601,50.89,-83.54,-34.01,784,777,768,813,853,34.48275862068966,-0.776,-0.623,0.073
33654,1755587380631,50.93,-83.53,-34.02,776,767,777,824,851,33.333333333333336,-0.779,-0.623,0.074
33683,1755587380660,50.89,-83.54,-34.01,778,782,765,813,844,34.48275862068966,-0.776,-0.623,0.073
33713,1755587380691,50.87,-83.54,-34.02,773,777,773,822,843,33.333333333333336,-0.775,-0.623,0.075
33733,1755587380710,50.88,-83.49,-34.03,771,767,770,818,847,50.0,-0.775,-0.623,0.077
33763,1755587380740,50.88,-83.49,-34.03,781,780,765,819,877,33.333333333333336,-0.776,-0.624,0.076
33793,1755587380769,50.9,-83.46,-34.02,780,775,771,819,845,33.333333333333336,-0.777,-0.624,0.075
33822,1755587380799,50.88,-83.43,-34.02,779,780,774,814,846,34.48275862068966,-0.777,-0.623,0.075
33852,1755587380829,50.91,-83.41,-34.03,776,778,764,818,851,33.333333333333336,-0.777,-0.623,0.075
33881,1755587380858,50.93,-83.37,-34.04,777,776,769,818,854,34.48275862068966,-0.778,-0.625,0.074
33911,1755587380888,50.94,-83.38,-34.04,784,772,767,814,850,33.333333333333336,-0.776,-0.624,0.074
33931,1755587380908,50.93,-83.39,-34.04,787,767,773,820,852,50.0,-0.776,-0.625,0.076
33960,1755587380937,50.94,-83.36,-34.04,778,769,763,821,852,34.48275862068966,-0.775,-0.625,0.075
33990,1755587380967,50.96,-83.36,-34.03,779,777,770,811,855,33.333333333333336,-0.777,-0.625,0.074
34019,1755587380996,50.95,-83.41,-34.04,782,778,761,818,845,34.48275862068966,-0.776,-0.622,0.075
34049,1755587381026,50.95,-83.45,-34.07,780,772,768,822,858,33.333333333333336,-0.778,-0.623,0.075
34079,1755587381056,50.9,-83.36,-34.08,776,772,766,822,848,33.333333333333336,-0.778,-0.624,0.074
34108,1755587381085,50.87,-83.41,-34.08,778,769,770,825,849,34.48275862068966,-0.776,-0.625,0.072
34138,1755587381115,50.85,-83.44,-34.09,784,776,774,819,841,33.333333333333336,-0.774,-0.626,0.075
34167,1755587381144,50.84,-83.38,-34.09,780,784,767,818,845,34.48275862068966,-0.774,-0.627,0.077
34197,1755587381174,50.86,-83.38,-34.07,773,774,773,824,852,33.333333333333336,-0.774,-0.627,0.077
34227,1755587381204,50.94,-83.33,-34.05,779,773,779,819,851,33.333333333333336,-0.777,-0.628,0.079
34256,1755587381234,50.88,-83.26,-34.05,778,777,768,821,842,34.48275862068966,-0.772,-0.624,0.077
34286,1755587381263,50.9,-83.26,-34.06,781,775,761,820,858,33.333333333333336,-0.774,-0.623,0.074
34315,1755587381292,50.9,-83.32,-34.08,780,777,773,819,850,34.48275862068966,-0.777,-0.625,0.073
34345,1755587381322,50.91,-83.28,-34.06,774,770,764,822,849,33.333333333333336,-0.776,-0.624,0.074
34375,1755587381352,50.88,-83.34,-34.07,783,774,769,812,850,33.333333333333336,-0.774,-0.625,0.075
34404,1755587381381,50.91,-83.32,-34.07,782,771,765,819,841,34.48275862068966,-0.776,-0.627,0.076
34434,1755587381411,50.87,-83.3,-34.05,770,774,768,833,842,33.333333333333336,-0.776,-0.626,0.076
34464,1755587381441,50.83,-83.37,-34.01,772,777,765,823,840,33.333333333333336,-0.775,-0.624,0.079
34493,1755587381470,50.81,-83.37,-34.01,777,778,780,825,853,34.48275862068966,-0.775,-0.623,0.079
34523,1755587381499,50.78,-83.3,-34.03,783,765,771,815,848,33.333333333333336,-0.774,-0.622,0.079
34552,1755587381529,50.79,-83.32,-34.03,780,773,772,808,842,34.48275862068966,-0.777,-0.623,0.077
34582,1755587381558,50.82,-83.31,-34.01,783,773,770,824,854,33.333333333333336,-0.779,-0.626,0.079
34611,1755587381589,50.81,-83.22,-33.99,775,776,762,818,843,34.48275862068966,-0.775,-0.625,0.08
34631,1755587381609,50.82,-83.2,-33.99,771,774,774,814,852,50.0,-0.774,-0.623,0.08
34661,1755587381638,50.86,-83.26,-33.99,778,772,775,816,840,33.333333333333336,-0.776,-0.625,0.078
34691,1755587381668,50.87,-83.17,-33.97,785,769,769,823,850,33.333333333333336,-0.777,-0.625,0.077
34720,1755587381697,50.87,-83.16,-33.97,786,775,769,815,847,34.48275862068966,-0.776,-0.622,0.076
34750,1755587381727,50.88,-83.2,-33.97,779,789,782,819,825,33.333333333333336,-0.776,-0.623,0.076
34779,1755587381757,50.92,-83.18,-33.98,788,774,768,816,843,34.48275862068966,-0.777,-0.624,0.078
34809,1755587381786,50.86,-83.14,-33.97,773,776,752,825,848,33.333333333333336,-0.775,-0.623,0.077
34839,1755587381815,50.91,-83.11,-33.97,781,774,774,820,841,33.333333333333336,-0.777,-0.622,0.078
34868,1755587381845,50.85,-83.17,-33.96,785,776,779,833,842,34.48275862068966,-0.779,-0.624,0.075
34898,1755587381876,50.91,-83.17,-33.95,781,776,780,824,855,33.333333333333336,-0.779,-0.624,0.076
34918,1755587381895,50.89,-83.17,-33.96,781,772,764,820,851,50.0,-0.777,-0.625,0.078
34948,1755587381925,50.92,-83.14,-33.96,775,776,772,817,847,33.333333333333336,-0.776,-0.625,0.079
34978,1755587381955,50.9,-83.1,-33.94,777,770,772,821,852,33.333333333333336,-0.778,-0.625,0.079
35007,1755587381984,50.93,-83.12,-33.93,781,778,767,821,852,34.48275862068966,-0.778,-0.625,0.075
35037,1755587382014,50.85,-83.13,-33.92,782,776,776,812,844,33.333333333333336,-0.775,-0.623,0.075
35067,1755587382044,50.85,-83.16,-33.92,779,775,767,821,837,33.333333333333336,-0.774,-0.623,0.075
35096,1755587382073,50.94,-83.12,-33.91,790,778,765,812,843,34.48275862068966,-0.775,-0.623,0.078
35126,1755587382103,50.95,-83.1,-33.9,778,769,768,819,857,33.333333333333336,-0.78,-0.627,0.08
35155,1755587382133,50.88,-83.07,-33.89,772,775,772,825,848,34.48275862068966,-0.775,-0.625,0.075
35185,1755587382162,51.0,-83.07,-33.88,774,776,765,815,842,33.333333333333336,-0.775,-0.625,0.074
35215,1755587382191,50.98,-83.07,-33.89,780,776,769,818,849,33.333333333333336,-0.775,-0.624,0.076
35244,1755587382221,51.02,-83.07,-33.89,777,775,770,814,847,34.48275862068966,-0.776,-0.625,0.076
35274,1755587382251,50.99,-83.07,-33.88,780,776,775,824,842,33.333333333333336,-0.775,-0.624,0.076
35303,1755587382280,50.98,-83.08,-33.89,782,778,765,816,870,34.48275862068966,-0.776,-0.622,0.078
35333,1755587382310,50.94,-83.04,-33.89,778,773,762,839,843,33.333333333333336,-0.78,-0.623,0.076
35363,1755587382340,50.96,-83.07,-33.88,779,765,767,822,845,33.333333333333336,-0.78,-0.622,0.074
35392,1755587382370,50.9,-83.1,-33.9,778,782,767,822,837,34.48275862068966,-0.776,-0.621,0.074
35422,1755587382399,50.79,-83.06,-33.94,784,776,769,826,843,33.333333333333336,-0.776,-0.622,0.077
35452,1755587382429,50.73,-82.97,-33.95,774,778,761,816,867,33.333333333333336,-0.777,-0.626,0.077
35472,1755587382449,50.75,-82.92,-33.93,775,776,768,813,848,50.0,-0.779,-0.628,0.075
35501,1755587382478,50.74,-83.02,-33.92,777,777,769,811,845,34.48275862068966,-0.774,-0.627,0.073
35531,1755587382508,50.76,-82.96,-33.91,774,769,768,815,848,33.333333333333336,-0.774,-0.626,0.079
35561,1755587382538,50.62,-82.79,-33.89,780,777,768,817,846,33.333333333333336,-0.776,-0.624,0.079
35591,1755587382568,50.54,-82.82,-33.89,774,772,775,818,852,33.333333333333336,-0.774,-0.622,0.079
35611,1755587382588,50.58,-82.84,-33.9,786,771,776,819,837,50.0,-0.777,-0.624,0.082
35641,1755587382618,50.57,-82.75,-33.91,773,777,768,824,850,33.333333333333336,-0.776,-0.623,0.085
35670,1755587382647,50.54,-82.71,-33.91,779,762,772,813,846,34.48275862068966,-0.775,-0.621,0.083
35700,1755587382677,50.6,-82.8,-33.91,781,768,771,816,845,33.333333333333336,-0.777,-0.624,0.078
35730,1755587382707,50.68,-82.73,-33.89,783,774,765,826,845,33.333333333333336,-0.779,-0.625,0.079
35759,1755587382736,50.63,-82.71,-33.87,776,775,780,818,835,34.48275862068966,-0.776,-0.622,0.08
35789,1755587382766,50.6,-82.73,-33.89,770,777,768,819,841,33.333333333333336,-0.776,-0.622,0.084
35819,1755587382795,50.66,-82.69,-33.9,778,774,769,822,852,33.333333333333336,-0.777,-0.625,0.088
