timestamp_ms,recv_timestamp_ms,pitch,roll,yaw,flex1,flex2,flex3,flex4,flex5,sampling_hz,accel_x,accel_y,accel_z
92684,1755584889071,29.24,-76.85,-47.34,822,775,773,799,831,33.333333333333336,-0.471,-0.854,0.2
92713,1755584889101,29.16,-76.84,-47.38,820,772,778,801,845,34.48275862068966,-0.474,-0.855,0.19
92743,1755584889131,29.24,-76.92,-47.36,834,770,778,795,828,33.333333333333336,-0.477,-0.858,0.191
92773,1755584889161,29.26,-76.86,-47.35,818,761,770,791,833,33.333333333333336,-0.477,-0.859,0.198
92802,1755584889190,29.21,-76.78,-47.31,818,780,776,800,836,34.48275862068966,-0.476,-0.859,0.198
92832,1755584889220,29.27,-76.84,-47.28,815,776,777,789,835,33.333333333333336,-0.474,-0.857,0.202
92861,1755584889249,29.31,-76.68,-47.24,812,765,768,791,832,34.48275862068966,-0.475,-0.852,0.209
92891,1755584889279,29.38,-76.31,-47.19,812,769,771,801,831,33.333333333333336,-0.477,-0.85,0.205
92920,1755584889308,29.47,-76.17,-47.12,824,766,770,797,830,34.48275862068966,-0.478,-0.857,0.193
92950,1755584889339,29.44,-76.36,-47.04,811,772,784,800,842,33.333333333333336,-0.47,-0.857,0.189
92971,1755584889358,29.45,-76.45,-46.99,817,773,776,799,828,47.61904761904762,-0.467,-0.85,0.202
93000,1755584889388,29.47,-76.35,-47.03,822,765,775,797,839,34.48275862068966,-0.471,-0.847,0.209
93029,1755584889417,29.38,-76.27,-47.04,817,766,773,802,824,34.48275862068966,-0.476,-0.85,0.206
93059,1755584889447,29.54,-76.33,-46.96,819,771,778,799,838,33.333333333333336,-0.478,-0.855,0.204
93088,1755584889477,29.54,-76.32,-46.91,819,776,775,793,840,34.48275862068966,-0.474,-0.853,0.202
93118,1755584889506,29.44,-76.31,-46.93,812,765,774,804,844,33.333333333333336,-0.474,-0.847,0.2
93148,1755584889535,29.53,-76.35,-46.95,819,766,774,790,838,33.333333333333336,-0.479,-0.846,0.201
93177,1755584889565,29.49,-76.43,-46.97,821,771,776,795,833,34.48275862068966,-0.479,-0.848,0.203
93207,1755584889595,29.46,-76.47,-46.98,813,782,774,795,841,33.333333333333336,-0.476,-0.849,0.205
93236,1755584889624,29.51,-76.44,-47.01,814,780,772,799,832,34.48275862068966,-0.478,-0.849,0.202
93266,1755584889654,29.4,-76.45,-47.04,815,764,778,805,826,33.333333333333336,-0.481,-0.85,0.197
93295,1755584889683,29.39,-76.51,-47.04,820,773,772,793,832,34.48275862068966,-0.478,-0.848,0.196
93325,1755584889713,29.46,-76.6,-47.08,820,772,767,806,828,33.333333333333336,-0.477,-0.849,0.199
93355,1755584889743,29.41,-76.54,-47.09,822,778,769,796,833,33.333333333333336,-0.479,-0.851,0.204
93384,1755584889772,29.39,-76.45,-47.06,817,776,767,800,823,34.48275862068966,-0.479,-0.853,0.204
93414,1755584889802,29.41,-76.4,-47.03,822,774,777,802,833,33.333333333333336,-0.476,-0.849,0.196
93444,1755584889831,29.32,-76.5,-47.1,808,771,775,802,834,33.333333333333336,-0.476,-0.847,0.191
93473,1755584889861,29.29,-76.58,-47.13,816,773,771,796,829,34.48275862068966,-0.479,-0.851,0.198
93502,1755584889890,29.33,-76.57,-47.09,819,776,773,794,832,34.48275862068966,-0.478,-0.853,0.207
93532,1755584889920,29.38,-76.55,-47.09,818,774,776,793,822,33.333333333333336,-0.475,-0.852,0.205
93561,1755584889950,29.35,-76.56,-47.1,820,763,775,796,825,34.48275862068966,-0.476,-0.85,0.201
93591,1755584889979,29.3,-76.54,-47.12,818,769,776,805,822,33.333333333333336,-0.479,-0.85,0.198
93621,1755584890009,29.32,-76.58,-47.11,825,772,775,784,836,33.333333333333336,-0.479,-0.85,0.198
93650,1755584890038,29.32,-76.57,-47.1,820,773,771,802,837,34.48275862068966,-0.478,-0.853,0.201
93680,1755584890068,29.31,-76.53,-47.09,817,777,781,798,840,33.333333333333336,-0.477,-0.854,0.201
93709,1755584890097,29.31,-76.52,-47.09,820,770,775,801,827,34.48275862068966,-0.477,-0.852,0.2
93739,1755584890127,29.3,-76.53,-47.07,817,774,771,801,834,33.333333333333336,-0.479,-0.852,0.199
93769,1755584890156,29.31,-76.55,-47.03,819,767,768,802,835,33.333333333333336,-0.481,-0.851,0.202
93798,1755584890186,29.28,-76.5,-47.04,814,778,775,799,834,34.48275862068966,-0.48,-0.847,0.203
93828,1755584890216,29.25,-76.43,-47.06,813,772,772,786,840,33.333333333333336,-0.479,-0.847,0.203
93857,1755584890245,29.28,-76.44,-47.05,829,766,771,802,827,34.48275862068966,-0.476,-0.852,0.202
93887,1755584890275,29.34,-76.48,-47.03,817,772,773,794,823,33.333333333333336,-0.475,-0.852,0.205
93917,1755584890304,29.3,-76.43,-47.06,816,778,770,799,831,33.333333333333336,-0.475,-0.85,0.206
93946,1755584890334,29.28,-76.37,-47.08,820,770,777,802,847,34.48275862068966,-0.479,-0.85,0.203
93976,1755584890363,29.31,-76.42,-47.03,822,765,774,801,824,33.333333333333336,-0.485,-0.85,0.199
94005,1755584890393,29.3,-76.44,-46.94,814,772,772,801,836,34.48275862068966,-0.486,-0.851,0.202
94025,1755584890413,29.28,-76.44,-46.89,820,777,775,795,833,50.0,-0.482,-0.85,0.206
94055,1755584890443,29.38,-76.39,-46.83,817,771,775,793,830,33.333333333333336,-0.475,-0.845,0.213
94085,1755584890472,29.55,-76.31,-46.8,819,776,782,797,833,33.333333333333336,-0.475,-0.849,0.213
94114,1755584890502,29.57,-76.26,-46.75,818,758,781,790,833,34.48275862068966,-0.476,-0.856,0.203
94143,1755584890531,29.64,-76.26,-46.66,821,772,771,794,826,34.48275862068966,-0.48,-0.856,0.192
94173,1755584890561,29.72,-76.39,-46.62,821,774,775,793,833,33.333333333333336,-0.483,-0.845,0.192
94203,1755584890590,29.67,-76.46,-46.65,815,777,786,798,834,33.333333333333336,-0.486,-0.836,0.198
94232,1755584890620,29.61,-76.43,-46.69,818,766,780,796,841,34.48275862068966,-0.487,-0.842,0.203
94262,1755584890650,29.54,-76.47,-46.71,817,770,791,792,834,33.333333333333336,-0.483,-0.847,0.203
94291,1755584890679,29.5,-76.48,-46.71,821,765,774,801,827,34.48275862068966,-0.48,-0.846,0.209
94321,1755584890709,29.53,-76.41,-46.76,824,767,776,799,844,33.333333333333336,-0.481,-0.841,0.212
94351,1755584890739,29.48,-76.32,-46.82,816,769,778,793,828,33.333333333333336,-0.485,-0.841,0.206
94381,1755584890768,29.37,-76.37,-46.86,820,774,774,793,828,33.333333333333336,-0.484,-0.845,0.201
94410,1755584890798,29.4,-76.37,-46.82,823,775,778,800,822,34.48275862068966,-0.487,-0.849,0.202
94440,1755584890828,29.35,-76.33,-46.8,815,774,776,794,836,33.333333333333336,-0.484,-0.845,0.201
94469,1755584890857,29.24,-76.34,-46.84,815,769,793,800,826,34.48275862068966,-0.479,-0.843,0.205
94499,1755584890887,29.37,-76.42,-46.87,818,781,773,796,827,33.333333333333336,-0.482,-0.847,0.209
94528,1755584890916,29.36,-76.36,-46.88,826,777,771,797,818,34.48275862068966,-0.481,-0.849,0.208
94558,1755584890946,29.33,-76.3,-46.88,824,780,778,795,830,33.333333333333336,-0.482,-0.848,0.206
94588,1755584890975,29.37,-76.29,-46.89,819,763,777,805,832,33.333333333333336,-0.482,-0.845,0.203
94617,1755584891005,29.32,-76.36,-46.92,822,767,770,791,830,34.48275862068966,-0.483,-0.846,0.204
94647,1755584891034,29.31,-76.4,-46.9,823,772,776,791,828,33.333333333333336,-0.484,-0.85,0.208
94676,1755584891064,29.4,-76.37,-46.84,821,792,775,796,838,34.48275862068966,-0.482,-0.848,0.21
94706,1755584891093,29.4,-76.27,-46.84,812,771,776,801,838,33.333333333333336,-0.48,-0.844,0.206
94735,1755584891123,29.35,-76.26,-46.89,818,777,772,794,829,34.48275862068966,-0.483,-0.844,0.199
94765,1755584891152,29.33,-76.34,-46.89,819,787,786,794,839,33.333333333333336,-0.486,-0.846,0.199
94794,1755584891182,29.31,-76.41,-46.88,821,771,766,802,832,34.48275862068966,-0.484,-0.847,0.206
94824,1755584891211,29.29,-76.36,-46.89,816,772,789,796,823,33.333333333333336,-0.481,-0.849,0.211
94853,1755584891241,29.29,-76.29,-46.88,816,770,765,799,832,34.48275862068966,-0.479,-0.849,0.21
94883,1755584891270,29.35,-76.29,-46.85,822,774,782,790,833,33.333333333333336,-0.482,-0.849,0.207
94912,1755584891300,29.36,-76.27,-46.83,817,760,780,796,841,34.48275862068966,-0.484,-0.846,0.206
94942,1755584891330,29.3,-76.27,-46.84,808,773,772,803,836,33.333333333333336,-0.482,-0.844,0.206
94971,1755584891359,29.35,-76.27,-46.86,817,771,770,786,836,34.48275862068966,-0.481,-0.846,0.209
95001,1755584891389,29.34,-76.25,-46.86,815,775,773,798,834,33.333333333333336,-0.48,-0.847,0.209
95030,1755584891418,29.3,-76.3,-46.89,815,764,772,791,817,34.48275862068966,-0.483,-0.847,0.207
95060,1755584891448,29.31,-76.31,-46.88,812,774,787,795,842,33.333333333333336,-0.483,-0.847,0.207
95089,1755584891477,29.28,-76.26,-46.86,814,770,776,798,830,34.48275862068966,-0.481,-0.846,0.208
95119,1755584891507,29.27,-76.28,-46.89,812,774,772,793,837,33.333333333333336,-0.481,-0.845,0.206
95148,1755584891536,29.27,-76.32,-46.91,819,792,779,797,827,34.48275862068966,-0.481,-0.846,0.207
95178,1755584891566,29.24,-76.36,-46.94,822,774,771,801,851,33.333333333333336,-0.481,-0.848,0.209
95207,1755584891595,29.26,-76.32,-46.92,818,768,765,796,830,34.48275862068966,-0.482,-0.85,0.208
95237,1755584891625,29.26,-76.29,-46.91,819,764,791,797,836,33.333333333333336,-0.48,-0.848,0.205
95266,1755584891655,29.27,-76.32,-46.92,818,767,775,797,830,34.48275862068966,-0.481,-0.846,0.204
95286,1755584891674,29.25,-76.33,-46.94,819,775,772,792,825,50.0,-0.481,-0.845,0.207
95316,1755584891704,29.23,-76.25,-46.97,819,766,772,794,840,33.333333333333336,-0.484,-0.849,0.212
95346,1755584891734,29.16,-76.1,-46.99,817,774,766,797,841,33.333333333333336,-0.481,-0.849,0.21
95375,1755584891763,29.21,-76.16,-46.98,811,771,778,791,833,34.48275862068966,-0.48,-0.85,0.207
95405,1755584891793,29.23,-76.2,-46.96,819,770,769,800,821,33.333333333333336,-0.481,-0.846,0.206
95434,1755584891822,29.22,-76.22,-46.98,818,770,776,796,833,34.48275862068966,-0.483,-0.846,0.208
95464,1755584891852,29.26,-76.21,-46.98,819,771,781,803,830,33.333333333333336,-0.482,-0.847,0.209
95493,1755584891881,29.24,-76.19,-46.96,820,771,772,794,828,34.48275862068966,-0.48,-0.848,0.209
95523,1755584891911,29.22,-76.18,-46.97,821,777,775,801,838,33.333333333333336,-0.48,-0.848,0.208
95552,1755584891940,29.23,-76.17,-46.97,817,776,773,792,825,34.48275862068966,-0.481,-0.848,0.208
95582,1755584891970,29.22,-76.16,-46.95,818,773,754,798,832,33.333333333333336,-0.482,-0.847,0.208
95611,1755584891999,29.25,-76.16,-46.96,825,775,777,797,828,34.48275862068966,-0.482,-0.847,0.207
95641,1755584892029,29.23,-76.16,-46.96,811,768,772,802,820,33.333333333333336,-0.48,-0.847,0.207
95670,1755584892058,29.25,-76.17,-46.96,819,773,766,794,837,34.48275862068966,-0.479,-0.847,0.209
95700,1755584892088,29.25,-76.16,-46.97,818,770,780,799,832,33.333333333333336,-0.479,-0.847,0.21
95729,1755584892117,29.23,-76.19,-46.97,820,769,770,798,832,34.48275862068966,-0.482,-0.846,0.209
95759,1755584892147,29.27,-76.19,-46.96,817,764,771,801,844,33.333333333333336,-0.481,-0.845,0.209
95789,1755584892176,29.21,-76.15,-46.98,820,777,770,797,831,33.333333333333336,-0.479,-0.847,0.21
95818,1755584892206,29.17,-76.19,-47.0,821,763,773,801,817,34.48275862068966,-0.477,-0.848,0.209
95848,1755584892235,29.26,-76.25,-46.99,822,762,773,794,828,33.333333333333336,-0.479,-0.847,0.209
95877,1755584892265,29.24,-76.28,-47.01,813,778,775,797,831,34.48275862068966,-0.48,-0.843,0.207
95907,1755584892295,29.18,-76.31,-47.07,813,770,768,804,836,33.333333333333336,-0.481,-0.843,0.202
95936,1755584892324,29.13,-76.43,-47.13,814,770,772,793,833,34.48275862068966,-0.482,-0.849,0.204
95966,1755584892354,29.06,-76.5,-47.13,826,770,767,791,832,33.333333333333336,-0.482,-0.855,0.209
95995,1755584892383,29.04,-76.51,-47.11,820,776,777,789,826,34.48275862068966,-0.479,-0.853,0.213
96025,1755584892413,29.06,-76.49,-47.14,807,767,771,801,827,33.333333333333336,-0.477,-0.848,0.213
96054,1755584892442,28.98,-76.57,-47.23,813,768,777,798,827,34.48275862068966,-0.478,-0.849,0.211
96084,1755584892472,28.94,-76.67,-47.29,818,771,773,804,826,33.333333333333336,-0.481,-0.851,0.211
96113,1755584892501,28.93,-76.69,-47.3,816,768,773,804,838,34.48275862068966,-0.477,-0.852,0.209
96143,1755584892531,28.95,-76.71,-47.32,815,768,776,795,830,33.333333333333336,-0.474,-0.849,0.207
96172,1755584892560,29.0,-76.69,-47.34,822,778,777,800,829,34.48275862068966,-0.475,-0.851,0.206
96202,1755584892590,28.95,-76.69,-47.36,824,766,767,792,828,33.333333333333336,-0.474,-0.852,0.203
96231,1755584892619,28.99,-76.74,-47.39,816,769,777,801,828,34.48275862068966,-0.471,-0.853,0.204
96261,1755584892649,29.04,-76.7,-47.39,824,775,781,792,830,33.333333333333336,-0.472,-0.853,0.208
96290,1755584892678,28.99,-76.6,-47.38,817,772,780,797,834,34.48275862068966,-0.473,-0.852,0.207
96320,1755584892708,29.01,-76.63,-47.36,812,776,777,795,835,33.333333333333336,-0.474,-0.853,0.203
96349,1755584892737,29.08,-76.62,-47.33,819,782,770,800,830,34.48275862068966,-0.473,-0.853,0.205
96379,1755584892767,29.02,-76.55,-47.34,817,771,767,803,837,33.333333333333336,-0.471,-0.852,0.207
96408,1755584892796,29.06,-76.48,-47.34,820,770,769,800,832,34.48275862068966,-0.472,-0.852,0.208
96438,1755584892826,29.11,-76.49,-47.35,820,773,766,800,844,33.333333333333336,-0.474,-0.851,0.205
96468,1755584892855,29.03,-76.52,-47.38,822,761,773,812,832,33.333333333333336,-0.474,-0.851,0.203
96497,1755584892885,29.03,-76.54,-47.4,817,774,766,805,814,34.48275862068966,-0.474,-0.853,0.206
96526,1755584892914,29.08,-76.5,-47.38,823,753,769,798,824,34.48275862068966,-0.472,-0.856,0.208
96556,1755584892944,29.05,-76.48,-47.39,824,776,772,797,824,33.333333333333336,-0.472,-0.855,0.203
96586,1755584892973,29.04,-76.5,-47.4,817,785,772,801,834,33.333333333333336,-0.475,-0.852,0.2
96615,1755584893003,29.09,-76.53,-47.39,821,768,773,816,838,34.48275862068966,-0.477,-0.851,0.202
96645,1755584893033,29.07,-76.47,-47.4,812,771,774,800,834,33.333333333333336,-0.476,-0.852,0.205
96674,1755584893062,28.98,-76.42,-47.42,810,774,774,805,828,34.48275862068966,-0.473,-0.853,0.203
96704,1755584893092,29.05,-76.46,-47.4,817,766,774,797,824,33.333333333333336,-0.474,-0.855,0.202
96733,1755584893122,29.11,-76.4,-47.36,818,767,775,816,826,34.48275862068966,-0.474,-0.854,0.205
96763,1755584893151,29.03,-76.3,-47.35,816,773,766,795,818,33.333333333333336,-0.473,-0.852,0.206
96793,1755584893181,29.0,-76.31,-47.37,815,752,777,802,837,33.333333333333336,-0.472,-0.849,0.205
96823,1755584893211,29.01,-76.32,-47.39,814,770,771,802,807,33.333333333333336,-0.473,-0.851,0.206
96852,1755584893240,29.0,-76.27,-47.36,818,778,778,801,817,34.48275862068966,-0.476,-0.855,0.207
96882,1755584893270,28.95,-76.26,-47.35,817,764,771,798,838,33.333333333333336,-0.473,-0.852,0.204
96911,1755584893299,28.96,-76.29,-47.37,814,771,770,792,823,34.48275862068966,-0.471,-0.85,0.204
96941,1755584893329,28.95,-76.32,-47.41,820,773,767,797,835,33.333333333333336,-0.473,-0.852,0.205
96971,1755584893359,28.91,-76.32,-47.41,816,766,775,796,829,33.333333333333336,-0.475,-0.852,0.206
97000,1755584893388,28.9,-76.36,-47.41,812,773,773,794,826,34.48275862068966,-0.473,-0.85,0.207
97030,1755584893418,28.88,-76.41,-47.45,816,768,779,797,837,33.333333333333336,-0.47,-0.85,0.21
97060,1755584893448,28.86,-76.35,-47.48,812,772,778,799,832,33.333333333333336,-0.471,-0.852,0.211
97089,1755584893477,28.88,-76.27,-47.46,818,756,781,803,833,34.48275862068966,-0.473,-0.854,0.207
97119,1755584893507,28.9,-76.32,-47.46,816,772,773,788,833,33.333333333333336,-0.471,-0.849,0.205
97149,1755584893536,28.93,-76.31,-47.48,821,766,781,804,842,33.333333333333336,-0.473,-0.849,0.206
97178,1755584893566,28.84,-76.31,-47.52,816,770,771,794,835,34.48275862068966,-0.472,-0.851,0.204
97208,1755584893595,28.82,-76.33,-47.52,811,768,770,797,837,33.333333333333336,-0.473,-0.852,0.205
97237,1755584893625,28.85,-76.35,-47.5,819,769,776,797,833,34.48275862068966,-0.474,-0.852,0.209
97267,1755584893654,28.8,-76.26,-47.48,823,768,773,800,832,33.333333333333336,-0.474,-0.852,0.211
97296,1755584893684,28.78,-76.18,-47.49,824,769,776,793,826,34.48275862068966,-0.472,-0.852,0.209
97326,1755584893714,28.73,-76.23,-47.53,818,776,775,800,835,33.333333333333336,-0.472,-0.852,0.205
97355,1755584893743,28.69,-76.32,-47.54,818,770,782,798,833,34.48275862068966,-0.473,-0.853,0.204
97385,1755584893773,28.61,-76.47,-47.62,822,766,773,793,831,33.333333333333336,-0.47,-0.851,0.203
97414,1755584893802,28.55,-76.55,-47.65,816,774,763,804,829,34.48275862068966,-0.473,-0.851,0.21
97444,1755584893832,28.58,-76.48,-47.63,820,769,773,795,835,33.333333333333336,-0.472,-0.852,0.215
97473,1755584893861,28.56,-76.51,-47.66,814,772,783,797,834,34.48275862068966,-0.471,-0.853,0.213
97503,1755584893891,28.55,-76.52,-47.67,821,769,777,793,821,33.333333333333336,-0.47,-0.851,0.208
97532,1755584893920,28.63,-76.45,-47.64,817,766,771,798,831,34.48275862068966,-0.472,-0.852,0.21
97562,1755584893950,28.62,-76.41,-47.66,815,771,775,795,842,33.333333333333336,-0.47,-0.852,0.209
97591,1755584893980,28.63,-76.46,-47.68,811,767,775,793,831,34.48275862068966,-0.471,-0.852,0.209
97612,1755584894000,28.65,-76.44,-47.67,812,770,773,794,827,47.61904761904762,-0.472,-0.852,0.21
97642,1755584894029,28.66,-76.38,-47.68,821,771,781,799,829,33.333333333333336,-0.472,-0.854,0.213
97671,1755584894059,28.58,-76.33,-47.69,815,767,780,795,832,34.48275862068966,-0.472,-0.856,0.209
97701,1755584894089,28.59,-76.36,-47.66,817,768,782,799,832,33.333333333333336,-0.469,-0.855,0.206
97730,1755584894118,28.6,-76.37,-47.66,813,766,775,810,842,34.48275862068966,-0.469,-0.852,0.208
97760,1755584894148,28.57,-76.35,-47.68,821,768,775,796,820,33.333333333333336,-0.47,-0.85,0.213
97789,1755584894177,28.62,-76.3,-47.69,818,773,774,804,834,34.48275862068966,-0.469,-0.852,0.212
97819,1755584894207,28.6,-76.32,-47.72,818,777,773,798,832,33.333333333333336,-0.47,-0.855,0.208
97839,1755584894227,28.55,-76.35,-47.71,815,775,773,802,831,50.0,-0.471,-0.859,0.207
97868,1755584894256,28.61,-76.32,-47.66,810,775,775,798,838,34.48275862068966,-0.471,-0.855,0.21
97898,1755584894286,28.62,-76.29,-47.66,822,766,769,803,837,33.333333333333336,-0.469,-0.85,0.21
97927,1755584894315,28.56,-76.31,-47.7,812,773,773,792,829,34.48275862068966,-0.469,-0.851,0.208
97957,1755584894345,28.56,-76.39,-47.71,821,775,783,790,818,33.333333333333336,-0.468,-0.852,0.209
97986,1755584894374,28.59,-76.41,-47.71,819,770,771,800,818,34.48275862068966,-0.469,-0.852,0.215
98016,1755584894404,28.58,-76.37,-47.74,819,769,774,804,839,33.333333333333336,-0.468,-0.853,0.211
98045,1755584894433,28.55,-76.42,-47.78,820,779,775,796,829,34.48275862068966,-0.47,-0.852,0.205
98075,1755584894463,28.57,-76.51,-47.79,821,769,777,798,825,33.333333333333336,-0.47,-0.852,0.206
98105,1755584894492,28.54,-76.49,-47.83,817,784,771,796,830,33.333333333333336,-0.469,-0.856,0.21
98134,1755584894522,28.51,-76.45,-47.82,809,768,776,798,831,34.48275862068966,-0.468,-0.859,0.21
98164,1755584894552,28.53,-76.47,-47.8,814,772,781,803,833,33.333333333333336,-0.466,-0.857,0.208
98193,1755584894581,28.6,-76.48,-47.8,823,763,766,798,842,34.48275862068966,-0.468,-0.855,0.211
98223,1755584894611,28.61,-76.4,-47.81,818,769,784,803,827,33.333333333333336,-0.469,-0.855,0.211
98252,1755584894640,28.59,-76.35,-47.82,818,768,771,792,836,34.48275862068966,-0.467,-0.852,0.207
98282,1755584894670,28.58,-76.41,-47.89,816,766,772,798,840,33.333333333333336,-0.468,-0.851,0.211
98311,1755584894699,28.6,-76.29,-47.93,813,773,770,794,830,34.48275862068966,-0.467,-0.859,0.216
98341,1755584894730,28.65,-76.25,-47.86,815,784,781,796,828,33.333333333333336,-0.468,-0.866,0.211
98361,1755584894749,28.69,-76.22,-47.77,816,762,777,801,834,50.0,-0.47,-0.872,0.203
98391,1755584894779,28.64,-76.24,-47.68,812,778,770,797,833,33.333333333333336,-0.469,-0.864,0.202
98420,1755584894809,28.63,-76.15,-47.68,823,774,769,790,833,34.48275862068966,-0.474,-0.854,0.215
98441,1755584894829,28.64,-76.03,-47.68,810,767,772,805,837,47.61904761904762,-0.474,-0.844,0.22
98470,1755584894858,28.65,-75.99,-47.7,814,776,775,800,825,34.48275862068966,-0.475,-0.848,0.207
98500,1755584894888,28.75,-76.17,-47.62,813,770,776,802,836,33.333333333333336,-0.473,-0.851,0.201
98530,1755584894917,28.93,-76.21,-47.56,815,768,763,795,829,33.333333333333336,-0.468,-0.848,0.211
98559,1755584894947,28.92,-76.08,-47.61,817,767,771,802,832,34.48275862068966,-0.463,-0.847,0.217
98589,1755584894976,28.94,-76.02,-47.64,819,769,780,808,832,33.333333333333336,-0.464,-0.848,0.212
98618,1755584895006,29.04,-76.06,-47.61,818,767,770,803,835,34.48275862068966,-0.469,-0.847,0.21
98648,1755584895035,28.99,-76.09,-47.61,829,779,788,793,842,33.333333333333336,-0.468,-0.842,0.209
98677,1755584895065,29.02,-76.1,-47.67,815,772,770,796,829,34.48275862068966,-0.468,-0.844,0.212
98707,1755584895094,29.03,-76.08,-47.7,815,776,775,806,827,33.333333333333336,-0.471,-0.852,0.21
98736,1755584895124,28.97,-76.13,-47.71,814,769,774,801,833,34.48275862068966,-0.473,-0.854,0.205
98765,1755584895153,29.02,-76.21,-47.7,811,773,774,802,828,34.48275862068966,-0.474,-0.852,0.204
98795,1755584895183,29.02,-76.23,-47.69,817,773,772,788,837,33.333333333333336,-0.474,-0.853,0.203
98824,1755584895212,28.94,-76.24,-47.69,815,774,765,794,838,34.48275862068966,-0.471,-0.855,0.201
98854,1755584895242,28.98,-76.32,-47.68,815,773,770,803,840,33.333333333333336,-0.467,-0.854,0.207
98883,1755584895271,29.11,-76.36,-47.67,814,771,781,798,824,34.48275862068966,-0.47,-0.853,0.212
98913,1755584895301,29.09,-76.32,-47.7,818,772,773,793,832,33.333333333333336,-0.472,-0.85,0.207
98942,1755584895330,29.01,-76.38,-47.77,820,772,773,804,834,34.48275862068966,-0.471,-0.85,0.202
98972,1755584895360,28.99,-76.48,-47.78,815,769,771,788,833,33.333333333333336,-0.476,-0.854,0.2
99001,1755584895389,28.92,-76.59,-47.75,816,774,774,794,832,34.48275862068966,-0.477,-0.852,0.199
99031,1755584895419,28.97,-76.71,-47.74,819,762,778,818,834,33.333333333333336,-0.472,-0.851,0.205
99060,1755584895448,29.01,-76.68,-47.77,816,771,777,802,836,34.48275862068966,-0.471,-0.849,0.209
99090,1755584895478,28.91,-76.62,-47.83,817,773,771,796,838,33.333333333333336,-0.472,-0.851,0.203
99119,1755584895507,28.91,-76.69,-47.86,816,778,779,796,839,34.48275862068966,-0.471,-0.855,0.202
99149,1755584895537,28.97,-76.75,-47.85,821,761,779,787,825,33.333333333333336,-0.472,-0.858,0.202
99178,1755584895566,28.97,-76.65,-47.82,821,775,768,801,835,34.48275862068966,-0.472,-0.861,0.197
99208,1755584895596,29.0,-76.65,-47.77,819,764,777,796,828,33.333333333333336,-0.466,-0.863,0.196
99237,1755584895625,29.04,-76.69,-47.73,815,770,766,801,833,34.48275862068966,-0.466,-0.858,0.207
99267,1755584895655,29.07,-76.55,-47.72,811,769,771,794,834,33.333333333333336,-0.471,-0.852,0.213
99297,1755584895684,28.99,-76.45,-47.74,814,766,769,801,837,33.333333333333336,-0.473,-0.853,0.205
99326,1755584895714,29.0,-76.52,-47.7,815,773,779,799,834,34.48275862068966,-0.474,-0.853,0.197
99356,1755584895744,29.02,-76.6,-47.7,818,759,771,796,837,33.333333333333336,-0.472,-0.85,0.194
99386,1755584895774,28.94,-76.59,-47.73,814,778,774,796,833,33.333333333333336,-0.473,-0.851,0.194
99415,1755584895803,28.91,-76.66,-47.74,813,777,772,799,821,34.48275862068966,-0.473,-0.855,0.198
99445,1755584895833,28.98,-76.67,-47.68,820,771,782,794,836,33.333333333333336,-0.474,-0.859,0.204
99474,1755584895862,28.98,-76.65,-47.61,815,770,768,797,824,34.48275862068966,-0.473,-0.856,0.202
99504,1755584895892,28.92,-76.64,-47.61,818,763,779,798,832,33.333333333333336,-0.472,-0.851,0.198
99533,1755584895921,28.91,-76.71,-47.63,815,772,772,803,831,34.48275862068966,-0.472,-0.852,0.199
99563,1755584895951,28.9,-76.71,-47.65,822,768,772,800,828,33.333333333333336,-0.475,-0.858,0.203
99593,1755584895980,28.89,-76.7,-47.59,817,762,769,799,830,33.333333333333336,-0.475,-0.859,0.201
99622,1755584896010,28.99,-76.79,-47.54,820,768,771,800,831,34.48275862068966,-0.473,-0.852,0.201
99651,1755584896039,29.07,-76.81,-47.57,821,761,776,791,828,34.48275862068966,-0.468,-0.85,0.207
99681,1755584896069,28.98,-76.7,-47.65,820,772,766,805,827,33.333333333333336,-0.467,-0.853,0.205
99710,1755584896098,28.99,-76.76,-47.7,809,776,781,799,829,34.48275862068966,-0.473,-0.856,0.2
99740,1755584896128,29.07,-76.78,-47.66,815,774,759,799,832,33.333333333333336,-0.477,-0.855,0.202
99770,1755584896158,29.07,-76.7,-47.64,816,771,777,794,820,33.333333333333336,-0.476,-0.854,0.203
99799,1755584896187,29.01,-76.67,-47.66,821,772,772,793,831,34.48275862068966,-0.474,-0.849,0.195
99829,1755584896217,28.98,-76.74,-47.7,821,767,775,801,844,33.333333333333336,-0.474,-0.85,0.195
99859,1755584896247,28.98,-76.77,-47.73,814,766,776,802,836,33.333333333333336,-0.475,-0.854,0.204
99888,1755584896276,29.01,-76.68,-47.72,833,778,783,793,819,34.48275862068966,-0.475,-0.856,0.206
99918,1755584896306,29.01,-76.66,-47.72,821,773,772,796,833,33.333333333333336,-0.473,-0.855,0.196
99947,1755584896336,29.03,-76.75,-47.74,815,769,775,799,828,34.48275862068966,-0.475,-0.853,0.194
99977,1755584896366,29.01,-76.76,-47.76,812,772,771,806,825,33.333333333333336,-0.476,-0.854,0.199
100007,1755584896396,28.94,-76.65,-47.73,816,778,769,792,830,33.333333333333336,-0.475,-0.857,0.196
100037,1755584896425,29.0,-76.72,-47.71,824,760,775,796,835,33.333333333333336,-0.475,-0.856,0.195
100066,1755584896454,29.03,-76.71,-47.67,813,773,782,793,829,34.48275862068966,-0.474,-0.853,0.199
100096,1755584896484,28.98,-76.68,-47.68,815,775,781,791,826,33.333333333333336,-0.473,-0.851,0.2
100125,1755584896513,28.98,-76.63,-47.69,818,768,779,792,834,34.48275862068966,-0.474,-0.852,0.199
100155,1755584896543,28.96,-76.61,-47.67,823,777,771,791,849,33.333333333333336,-0.477,-0.853,0.197
100184,1755584896572,28.91,-76.66,-47.64,820,772,774,800,826,34.48275862068966,-0.476,-0.853,0.195
100214,1755584896602,28.98,-76.71,-47.62,825,767,775,793,831,33.333333333333336,-0.475,-0.853,0.2
100243,1755584896632,29.01,-76.66,-47.62,818,769,772,794,830,34.48275862068966,-0.473,-0.852,0.203
100273,1755584896661,29.04,-76.6,-47.62,826,762,769,794,825,33.333333333333336,-0.473,-0.854,0.203
100303,1755584896691,29.04,-76.56,-47.6,820,776,772,791,838,33.333333333333336,-0.474,-0.851,0.197
100332,1755584896720,28.98,-76.61,-47.63,813,768,772,802,829,34.48275862068966,-0.477,-0.85,0.193
100362,1755584896750,28.97,-76.72,-47.64,818,781,781,791,837,33.333333333333336,-0.478,-0.849,0.193
100391,1755584896779,28.97,-76.72,-47.64,811,775,779,803,828,34.48275862068966,-0.476,-0.851,0.201
100421,1755584896809,28.96,-76.64,-47.64,822,767,769,800,838,33.333333333333336,-0.473,-0.851,0.203
100450,1755584896838,29.04,-76.63,-47.63,816,773,773,798,831,34.48275862068966,-0.474,-0.852,0.2
100480,1755584896868,29.05,-76.65,-47.61,815,772,761,796,835,33.333333333333336,-0.476,-0.851,0.198
100510,1755584896898,29.0,-76.64,-47.61,818,771,785,798,824,33.333333333333336,-0.477,-0.851,0.197
100539,1755584896927,29.06,-76.62,-47.59,820,764,781,799,827,34.48275862068966,-0.478,-0.851,0.196
100569,1755584896956,29.04,-76.65,-47.6,824,774,770,793,818,33.333333333333336,-0.474,-0.849,0.198
100598,1755584896986,29.03,-76.62,-47.63,811,775,778,804,838,34.48275862068966,-0.475,-0.85,0.2
100628,1755584897015,29.05,-76.62,-47.64,823,777,772,802,816,33.333333333333336,-0.478,-0.851,0.197
100657,1755584897045,29.03,-76.62,-47.62,817,776,774,799,830,34.48275862068966,-0.478,-0.853,0.196
100686,1755584897075,29.06,-76.68,-47.62,819,770,764,803,832,34.48275862068966,-0.476,-0.851,0.199
100716,1755584897104,29.07,-76.67,-47.63,816,778,771,798,825,33.333333333333336,-0.474,-0.85,0.201
100746,1755584897134,29.08,-76.68,-47.64,813,774,767,799,823,33.333333333333336,-0.477,-0.85,0.199
100775,1755584897163,29.1,-76.7,-47.64,822,777,776,797,833,34.48275862068966,-0.477,-0.85,0.197
100805,1755584897192,29.1,-76.74,-47.65,817,764,778,802,833,33.333333333333336,-0.476,-0.85,0.196
100834,1755584897222,29.09,-76.72,-47.65,808,770,774,793,834,34.48275862068966,-0.478,-0.852,0.198
100864,1755584897251,29.1,-76.68,-47.64,817,772,771,795,836,33.333333333333336,-0.478,-0.85,0.198
100893,1755584897281,29.07,-76.68,-47.66,814,775,771,796,839,34.48275862068966,-0.477,-0.849,0.196
100923,1755584897311,29.07,-76.72,-47.68,821,775,778,796,831,33.333333333333336,-0.477,-0.851,0.197
100952,1755584897340,29.04,-76.72,-47.67,818,771,773,792,835,34.48275862068966,-0.478,-0.853,0.197
100982,1755584897370,29.03,-76.69,-47.64,816,772,770,798,824,33.333333333333336,-0.478,-0.852,0.201
101012,1755584897400,29.12,-76.66,-47.61,814,771,783,789,827,33.333333333333336,-0.475,-0.85,0.203
101041,1755584897429,29.1,-76.63,-47.62,811,775,775,800,827,34.48275862068966,-0.474,-0.847,0.198
101071,1755584897459,29.02,-76.68,-47.67,816,761,771,800,820,33.333333333333336,-0.474,-0.85,0.194
101101,1755584897489,29.05,-76.76,-47.68,816,773,778,800,826,33.333333333333336,-0.477,-0.853,0.198
101130,1755584897518,29.07,-76.73,-47.66,817,772,768,803,841,34.48275862068966,-0.478,-0.854,0.203
101160,1755584897548,29.06,-76.7,-47.64,816,774,769,800,826,33.333333333333336,-0.476,-0.851,0.199
101189,1755584897577,29.04,-76.73,-47.67,821,781,781,803,834,34.48275862068966,-0.475,-0.849,0.197
101219,1755584897607,28.99,-76.75,-47.69,814,772,767,802,825,33.333333333333336,-0.477,-0.851,0.197
101248,1755584897636,29.01,-76.77,-47.68,820,768,770,792,829,34.48275862068966,-0.477,-0.852,0.2
101278,1755584897666,29.04,-76.77,-47.67,821,763,777,801,825,33.333333333333336,-0.476,-0.851,0.202
101308,1755584897695,29.01,-76.75,-47.68,819,765,774,801,824,33.333333333333336,-0.475,-0.851,0.199
101337,1755584897725,29.02,-76.75,-47.69,822,779,773,798,854,34.48275862068966,-0.476,-0.852,0.197
101367,1755584897754,29.0,-76.77,-47.69,810,772,774,796,822,33.333333333333336,-0.476,-0.852,0.197
101396,1755584897784,29.01,-76.77,-47.68,816,765,779,801,838,34.48275862068966,-0.476,-0.852,0.199
101425,1755584897813,29.01,-76.74,-47.69,827,777,776,804,829,34.48275862068966,-0.477,-0.85,0.199
101455,1755584897843,28.97,-76.79,-47.7,816,773,779,789,825,33.333333333333336,-0.474,-0.85,0.199
