timestamp_ms,recv_timestamp_ms,pitch,roll,yaw,flex1,flex2,flex3,flex4,flex5,sampling_hz,accel_x,accel_y,accel_z
23791,1755586747868,65.48,-121.51,-15.35,806,774,834,877,886,33.333333333333336,-0.884,-0.41,-0.242
23820,1755586747898,65.38,-121.5,-15.36,817,768,834,881,886,34.48275862068966,-0.889,-0.41,-0.24
23850,1755586747928,65.35,-121.51,-15.36,816,779,830,874,884,33.333333333333336,-0.889,-0.412,-0.238
23879,1755586747957,65.34,-121.49,-15.37,814,768,845,878,892,34.48275862068966,-0.886,-0.412,-0.239
23909,1755586747987,65.2,-121.46,-15.37,815,774,836,869,888,33.333333333333336,-0.886,-0.411,-0.244
23939,1755586748017,65.15,-121.56,-15.39,816,768,844,885,891,33.333333333333336,-0.887,-0.411,-0.243
23969,1755586748046,65.09,-121.57,-15.41,820,772,830,882,887,33.333333333333336,-0.886,-0.41,-0.238
23998,1755586748076,64.99,-121.55,-15.43,816,775,846,888,891,34.48275862068966,-0.888,-0.409,-0.239
24028,1755586748105,64.94,-121.65,-15.45,816,770,837,883,904,33.333333333333336,-0.887,-0.408,-0.239
24057,1755586748135,64.85,-121.7,-15.46,813,775,837,878,880,34.48275862068966,-0.885,-0.41,-0.24
24087,1755586748164,64.75,-121.7,-15.46,812,765,834,872,889,33.333333333333336,-0.886,-0.41,-0.239
24116,1755586748194,64.72,-121.68,-15.44,815,771,839,878,890,34.48275862068966,-0.883,-0.41,-0.239
24146,1755586748224,64.69,-121.7,-15.43,815,765,835,882,886,33.333333333333336,-0.883,-0.41,-0.242
24166,1755586748244,64.66,-121.71,-15.43,815,772,842,875,892,50.0,-0.884,-0.41,-0.242
24196,1755586748274,64.58,-121.68,-15.44,814,775,837,872,889,33.333333333333336,-0.883,-0.409,-0.241
24225,1755586748303,64.53,-121.62,-15.42,815,771,836,882,887,34.48275862068966,-0.884,-0.41,-0.243
24255,1755586748333,64.48,-121.6,-15.37,815,774,830,867,891,33.333333333333336,-0.884,-0.409,-0.241
24285,1755586748363,64.32,-121.55,-15.38,809,767,831,878,884,33.333333333333336,-0.883,-0.408,-0.239
24314,1755586748392,64.13,-121.48,-15.41,811,768,843,886,892,34.48275862068966,-0.884,-0.41,-0.243
24344,1755586748422,64.09,-121.47,-15.41,817,764,838,880,889,33.333333333333336,-0.886,-0.411,-0.239
24364,1755586748442,64.09,-121.42,-15.4,813,777,837,877,892,50.0,-0.885,-0.411,-0.234
24394,1755586748472,64.04,-121.33,-15.4,817,768,833,877,892,33.333333333333336,-0.883,-0.41,-0.236
24414,1755586748492,63.98,-121.27,-15.4,820,759,829,880,889,50.0,-0.885,-0.411,-0.241
24444,1755586748521,63.98,-121.28,-15.37,815,769,827,881,877,33.333333333333336,-0.885,-0.41,-0.241
24473,1755586748551,63.89,-121.32,-15.4,815,773,835,886,889,34.48275862068966,-0.881,-0.41,-0.242
24503,1755586748581,63.75,-121.31,-15.45,811,776,836,869,890,33.333333333333336,-0.885,-0.411,-0.241
24523,1755586748601,63.69,-121.27,-15.44,815,767,826,876,890,50.0,-0.887,-0.411,-0.239
24553,1755586748631,63.66,-121.29,-15.42,811,770,839,883,885,33.333333333333336,-0.886,-0.41,-0.236
24582,1755586748660,63.6,-121.3,-15.44,817,765,836,881,891,34.48275862068966,-0.883,-0.41,-0.237
24612,1755586748690,63.56,-121.31,-15.49,814,764,834,876,898,33.333333333333336,-0.883,-0.412,-0.238
24642,1755586748719,63.48,-121.25,-15.48,812,764,829,879,886,33.333333333333336,-0.886,-0.413,-0.236
24671,1755586748749,63.46,-121.23,-15.47,814,776,847,884,876,34.48275862068966,-0.887,-0.413,-0.234
24701,1755586748778,63.42,-121.19,-15.48,814,757,838,873,880,33.333333333333336,-0.883,-0.412,-0.234
24730,1755586748808,63.38,-121.18,-15.48,816,772,840,884,873,34.48275862068966,-0.886,-0.412,-0.235
24760,1755586748838,63.33,-121.2,-15.5,816,763,834,871,885,33.333333333333336,-0.884,-0.411,-0.235
24789,1755586748867,63.27,-121.19,-15.56,814,765,852,880,880,34.48275862068966,-0.883,-0.411,-0.235
24819,1755586748897,63.2,-121.2,-15.59,816,755,839,885,886,33.333333333333336,-0.886,-0.41,-0.238
24839,1755586748917,63.17,-121.23,-15.6,817,767,841,881,904,50.0,-0.886,-0.41,-0.239
24868,1755586748946,63.15,-121.26,-15.64,807,772,836,882,901,34.48275862068966,-0.884,-0.412,-0.234
24898,1755586748976,63.09,-121.23,-15.65,819,768,835,874,886,33.333333333333336,-0.885,-0.413,-0.234
24928,1755586749006,63.03,-121.16,-15.66,816,770,839,871,887,33.333333333333336,-0.884,-0.413,-0.236
24957,1755586749035,62.98,-121.2,-15.69,812,773,835,873,884,34.48275862068966,-0.884,-0.413,-0.238
24987,1755586749065,62.89,-121.22,-15.71,818,764,828,877,890,33.333333333333336,-0.883,-0.415,-0.235
25017,1755586749094,62.85,-121.17,-15.71,811,767,834,880,891,33.333333333333336,-0.883,-0.416,-0.234
25046,1755586749124,62.86,-121.14,-15.69,808,771,834,868,886,34.48275862068966,-0.884,-0.416,-0.236
25076,1755586749153,62.85,-121.15,-15.68,813,765,836,877,886,33.333333333333336,-0.883,-0.416,-0.236
25105,1755586749183,62.78,-121.12,-15.68,815,769,838,884,892,34.48275862068966,-0.883,-0.415,-0.237
25135,1755586749213,62.75,-121.12,-15.7,818,764,835,873,888,33.333333333333336,-0.885,-0.415,-0.236
25164,1755586749242,62.74,-121.18,-15.74,813,762,842,861,891,34.48275862068966,-0.882,-0.415,-0.235
25194,1755586749272,62.72,-121.19,-15.75,813,761,835,872,895,33.333333333333336,-0.884,-0.417,-0.236
25224,1755586749302,62.7,-121.2,-15.75,815,769,831,881,889,33.333333333333336,-0.883,-0.417,-0.235
25253,1755586749331,62.67,-121.19,-15.76,809,764,846,880,912,34.48275862068966,-0.883,-0.416,-0.234
25283,1755586749361,62.7,-121.17,-15.74,816,771,833,877,893,33.333333333333336,-0.883,-0.416,-0.237
25313,1755586749390,62.72,-121.2,-15.72,817,760,836,879,888,33.333333333333336,-0.883,-0.415,-0.24
25342,1755586749420,62.66,-121.24,-15.74,815,772,835,881,891,34.48275862068966,-0.879,-0.415,-0.238
25372,1755586749449,62.66,-121.26,-15.75,816,768,837,884,895,33.333333333333336,-0.882,-0.416,-0.24
25401,1755586749480,62.65,-121.26,-15.73,801,766,838,877,891,34.48275862068966,-0.882,-0.415,-0.238
25422,1755586749499,62.63,-121.3,-15.74,811,776,825,875,882,47.61904761904762,-0.879,-0.415,-0.241
25451,1755586749529,62.63,-121.33,-15.74,817,773,834,872,894,34.48275862068966,-0.882,-0.416,-0.238
25481,1755586749559,62.6,-121.3,-15.74,812,772,837,873,886,33.333333333333336,-0.882,-0.416,-0.238
25510,1755586749588,62.54,-121.25,-15.71,808,766,844,883,893,34.48275862068966,-0.882,-0.416,-0.238
25540,1755586749618,62.58,-121.25,-15.7,811,766,842,884,896,33.333333333333336,-0.882,-0.417,-0.239
25569,1755586749647,62.56,-121.24,-15.68,816,771,834,870,887,34.48275862068966,-0.881,-0.417,-0.241
25599,1755586749677,62.51,-121.21,-15.68,814,766,837,870,894,33.333333333333336,-0.882,-0.416,-0.243
25629,1755586749707,62.48,-121.21,-15.66,810,771,833,881,887,33.333333333333336,-0.882,-0.416,-0.242
25658,1755586749736,62.39,-121.17,-15.66,810,760,848,881,888,34.48275862068966,-0.882,-0.414,-0.241
25688,1755586749766,62.39,-121.18,-15.64,812,769,834,887,888,33.333333333333336,-0.884,-0.415,-0.239
25718,1755586749796,62.4,-121.18,-15.62,808,771,833,881,883,33.333333333333336,-0.884,-0.416,-0.239
25747,1755586749825,62.33,-121.15,-15.57,813,769,837,884,891,34.48275862068966,-0.885,-0.415,-0.242
25777,1755586749855,62.34,-121.2,-15.54,810,768,839,876,887,33.333333333333336,-0.886,-0.414,-0.242
25807,1755586749885,62.3,-121.25,-15.54,816,772,823,879,884,33.333333333333336,-0.88,-0.414,-0.242
25827,1755586749905,62.23,-121.25,-15.54,815,762,836,889,873,50.0,-0.882,-0.414,-0.243
25856,1755586749934,62.21,-121.28,-15.55,809,768,834,881,889,34.48275862068966,-0.884,-0.414,-0.238
25886,1755586749964,62.24,-121.25,-15.48,810,778,837,872,886,33.333333333333336,-0.887,-0.417,-0.236
25915,1755586749993,62.17,-121.2,-15.38,822,765,826,867,877,34.48275862068966,-0.884,-0.415,-0.239
25945,1755586750023,62.22,-121.22,-15.36,813,767,833,880,888,33.333333333333336,-0.881,-0.412,-0.235
25975,1755586750053,62.24,-121.18,-15.35,816,775,841,879,884,33.333333333333336,-0.89,-0.412,-0.239
26005,1755586750082,62.15,-121.19,-15.31,811,763,843,890,885,33.333333333333336,-0.888,-0.411,-0.239
26034,1755586750112,62.14,-121.19,-15.3,818,771,841,871,908,34.48275862068966,-0.882,-0.409,-0.236
26064,1755586750142,62.13,-121.21,-15.32,817,773,826,879,888,33.333333333333336,-0.884,-0.41,-0.235
26094,1755586750172,62.17,-121.11,-15.28,812,770,838,879,888,33.333333333333336,-0.885,-0.409,-0.235
26114,1755586750191,62.22,-121.09,-15.27,813,765,828,877,891,50.0,-0.884,-0.407,-0.238
26143,1755586750221,62.26,-121.16,-15.28,814,768,841,890,885,34.48275862068966,-0.883,-0.409,-0.238
26173,1755586750251,62.24,-121.13,-15.26,820,775,837,878,885,33.333333333333336,-0.883,-0.409,-0.239
26193,1755586750271,62.23,-121.12,-15.28,817,768,833,879,879,50.0,-0.88,-0.408,-0.241
26223,1755586750300,62.21,-121.17,-15.32,814,754,848,892,888,33.333333333333336,-0.882,-0.407,-0.243
26252,1755586750330,62.18,-121.2,-15.32,820,760,830,881,886,34.48275862068966,-0.884,-0.408,-0.241
26282,1755586750359,62.15,-121.17,-15.32,814,764,829,872,891,33.333333333333336,-0.885,-0.408,-0.242
26311,1755586750389,62.07,-121.22,-15.34,815,767,831,878,886,34.48275862068966,-0.884,-0.409,-0.241
26341,1755586750419,62.07,-121.24,-15.34,818,770,839,879,887,33.333333333333336,-0.887,-0.409,-0.24
26370,1755586750448,62.0,-121.27,-15.33,813,763,830,873,881,34.48275862068966,-0.886,-0.407,-0.242
26400,1755586750478,61.88,-121.33,-15.36,813,769,834,880,879,33.333333333333336,-0.885,-0.406,-0.242
26429,1755586750507,61.89,-121.45,-15.39,819,761,844,870,882,34.48275862068966,-0.888,-0.407,-0.24
26459,1755586750537,61.93,-121.52,-15.37,819,776,844,874,882,33.333333333333336,-0.887,-0.406,-0.238
26488,1755586750566,61.84,-121.63,-15.4,813,774,833,876,885,34.48275862068966,-0.887,-0.401,-0.237
26518,1755586750596,61.83,-121.7,-15.46,815,776,841,875,886,33.333333333333336,-0.889,-0.401,-0.234
26547,1755586750625,61.86,-121.73,-15.49,815,765,831,870,884,34.48275862068966,-0.886,-0.405,-0.238
26577,1755586750655,61.73,-121.83,-15.58,815,774,835,876,880,33.333333333333336,-0.884,-0.405,-0.24
26606,1755586750684,61.65,-121.89,-15.64,810,763,832,874,889,34.48275862068966,-0.887,-0.407,-0.236
26636,1755586750714,61.67,-121.91,-15.65,812,770,841,874,888,33.333333333333336,-0.887,-0.407,-0.235
26666,1755586750744,61.59,-121.96,-15.64,817,771,839,871,887,33.333333333333336,-0.887,-0.412,-0.237
26696,1755586750774,61.57,-121.97,-15.62,813,772,834,877,891,33.333333333333336,-0.885,-0.413,-0.239
26725,1755586750803,61.59,-122.0,-15.6,810,770,832,882,880,34.48275862068966,-0.878,-0.411,-0.238
26755,1755586750833,61.59,-121.98,-15.61,816,772,844,876,892,33.333333333333336,-0.879,-0.415,-0.239
26784,1755586750862,61.59,-121.96,-15.59,806,758,835,874,883,34.48275862068966,-0.878,-0.414,-0.245
26814,1755586750892,61.5,-122.06,-15.61,812,762,828,879,884,33.333333333333336,-0.878,-0.414,-0.243
26844,1755586750922,61.5,-122.01,-15.6,816,771,832,873,886,33.333333333333336,-0.883,-0.414,-0.24
26874,1755586750952,61.46,-121.99,-15.59,816,766,834,875,880,33.333333333333336,-0.881,-0.412,-0.24
26903,1755586750981,61.52,-121.99,-15.6,813,765,838,878,887,34.48275862068966,-0.881,-0.415,-0.238
26933,1755586751011,61.55,-121.92,-15.59,815,772,833,875,893,33.333333333333336,-0.881,-0.416,-0.239
26963,1755586751041,61.57,-121.83,-15.58,817,765,831,882,883,33.333333333333336,-0.882,-0.416,-0.237
26992,1755586751070,61.59,-121.75,-15.61,815,770,845,879,887,34.48275862068966,-0.878,-0.415,-0.239
27022,1755586751100,61.57,-121.64,-15.72,815,766,841,881,891,33.333333333333336,-0.878,-0.415,-0.238
27052,1755586751129,61.46,-121.29,-15.89,819,769,831,878,886,33.333333333333336,-0.878,-0.417,-0.236
27081,1755586751159,61.36,-121.08,-16.1,812,769,836,893,887,34.48275862068966,-0.878,-0.411,-0.237
27111,1755586751189,61.3,-121.12,-16.24,814,767,837,870,883,33.333333333333336,-0.884,-0.41,-0.239
27140,1755586751218,61.31,-121.15,-16.27,809,763,830,873,884,34.48275862068966,-0.883,-0.411,-0.239
27170,1755586751248,61.28,-121.14,-16.31,806,768,842,878,886,33.333333333333336,-0.883,-0.415,-0.235
27200,1755586751278,61.29,-121.16,-16.34,817,760,827,880,888,33.333333333333336,-0.883,-0.417,-0.236
27229,1755586751307,61.25,-121.19,-16.35,816,773,843,878,896,34.48275862068966,-0.882,-0.417,-0.239
27259,1755586751337,61.19,-121.27,-16.33,817,767,839,875,886,33.333333333333336,-0.885,-0.416,-0.237
27289,1755586751366,61.13,-121.37,-16.29,816,768,831,876,883,33.333333333333336,-0.884,-0.416,-0.237
27318,1755586751396,61.09,-121.48,-16.31,813,773,835,877,881,34.48275862068966,-0.879,-0.422,-0.238
27348,1755586751426,60.96,-121.53,-16.35,808,764,839,882,892,33.333333333333336,-0.878,-0.427,-0.233
27377,1755586751455,60.9,-121.53,-16.39,814,769,844,875,878,34.48275862068966,-0.877,-0.427,-0.226
27407,1755586751485,60.92,-121.41,-16.36,814,761,842,883,891,33.333333333333336,-0.882,-0.427,-0.224
27436,1755586751514,60.99,-121.36,-16.33,817,763,832,884,882,34.48275862068966,-0.882,-0.425,-0.227
27466,1755586751544,60.98,-121.38,-16.33,810,767,842,878,891,33.333333333333336,-0.877,-0.424,-0.232
27496,1755586751574,60.95,-121.38,-16.36,813,767,836,876,889,33.333333333333336,-0.878,-0.425,-0.231
27525,1755586751603,61.01,-121.25,-16.33,809,773,835,871,895,34.48275862068966,-0.88,-0.426,-0.225
27555,1755586751632,61.13,-121.05,-16.29,813,770,844,877,879,33.333333333333336,-0.88,-0.425,-0.226
27584,1755586751662,61.14,-120.9,-16.33,814,771,838,871,879,34.48275862068966,-0.878,-0.426,-0.229
27614,1755586751692,61.14,-120.78,-16.45,813,768,837,872,884,33.333333333333336,-0.876,-0.424,-0.232
27644,1755586751721,61.1,-120.74,-16.66,815,772,826,874,882,33.333333333333336,-0.874,-0.423,-0.232
27673,1755586751751,61.02,-120.7,-16.86,819,763,839,886,881,34.48275862068966,-0.875,-0.424,-0.233
27703,1755586751781,61.0,-120.56,-16.9,809,769,833,875,889,33.333333333333336,-0.882,-0.426,-0.232
27733,1755586751811,61.01,-120.51,-16.91,814,769,832,880,886,33.333333333333336,-0.88,-0.429,-0.228
27762,1755586751840,60.96,-120.44,-16.97,811,765,839,877,886,34.48275862068966,-0.876,-0.431,-0.227
27792,1755586751870,60.85,-120.36,-16.98,810,766,827,877,884,33.333333333333336,-0.879,-0.432,-0.23
27822,1755586751900,60.87,-120.41,-17.01,814,766,837,877,883,33.333333333333336,-0.88,-0.432,-0.23
27851,1755586751929,60.83,-120.39,-17.04,808,764,836,871,884,34.48275862068966,-0.877,-0.433,-0.226
27881,1755586751959,60.77,-120.33,-17.06,810,766,842,869,885,33.333333333333336,-0.876,-0.435,-0.226
27910,1755586751989,60.76,-120.35,-17.1,813,774,831,872,887,34.48275862068966,-0.874,-0.436,-0.226
27940,1755586752019,60.74,-120.34,-17.09,813,770,834,872,884,33.333333333333336,-0.875,-0.437,-0.223
27970,1755586752048,60.71,-120.24,-17.08,810,768,839,870,888,33.333333333333336,-0.874,-0.436,-0.223
28000,1755586752078,60.73,-120.21,-17.09,810,767,826,874,888,33.333333333333336,-0.876,-0.437,-0.224
28030,1755586752108,60.76,-120.18,-17.05,812,772,831,873,889,33.333333333333336,-0.875,-0.438,-0.223
28059,1755586752137,60.78,-120.12,-17.04,806,767,834,875,886,34.48275862068966,-0.873,-0.437,-0.224
28089,1755586752167,60.81,-120.1,-17.04,812,768,855,863,883,33.333333333333336,-0.874,-0.436,-0.225
28118,1755586752196,60.81,-120.07,-17.06,807,768,833,874,883,34.48275862068966,-0.874,-0.436,-0.225
28148,1755586752226,60.76,-120.04,-17.07,814,768,831,872,884,33.333333333333336,-0.876,-0.437,-0.226
28178,1755586752255,60.79,-119.96,-17.05,810,762,834,881,906,33.333333333333336,-0.874,-0.439,-0.222
28207,1755586752286,60.86,-119.84,-17.02,815,765,836,871,879,34.48275862068966,-0.875,-0.438,-0.221
28227,1755586752305,60.88,-119.74,-17.0,809,771,842,877,887,50.0,-0.876,-0.437,-0.222
28257,1755586752335,60.87,-119.68,-17.01,809,766,834,884,889,33.333333333333336,-0.874,-0.436,-0.226
28286,1755586752364,60.84,-119.67,-17.04,812,765,823,874,872,34.48275862068966,-0.872,-0.437,-0.23
28316,1755586752394,60.72,-119.66,-17.09,813,777,828,874,886,33.333333333333336,-0.873,-0.438,-0.225
28346,1755586752424,60.64,-119.67,-17.15,811,766,838,880,876,33.333333333333336,-0.874,-0.439,-0.226
28376,1755586752454,60.66,-119.63,-17.1,807,772,843,872,878,33.333333333333336,-0.876,-0.441,-0.222
28405,1755586752483,60.65,-119.6,-17.08,813,768,837,882,890,34.48275862068966,-0.874,-0.44,-0.221
28435,1755586752513,60.61,-119.57,-17.08,814,764,839,877,880,33.333333333333336,-0.875,-0.438,-0.223
28464,1755586752542,60.63,-119.57,-17.09,808,766,832,880,886,34.48275862068966,-0.874,-0.436,-0.227
28494,1755586752572,60.63,-119.58,-17.08,805,773,842,878,889,33.333333333333336,-0.876,-0.437,-0.224
28524,1755586752602,60.57,-119.55,-17.08,813,769,820,871,878,33.333333333333336,-0.874,-0.438,-0.224
28553,1755586752631,60.54,-119.58,-17.07,810,767,836,873,888,34.48275862068966,-0.874,-0.439,-0.225
28583,1755586752661,60.57,-119.61,-17.05,818,765,833,868,885,33.333333333333336,-0.876,-0.439,-0.221
28613,1755586752691,60.56,-119.56,-17.03,816,770,837,878,891,33.333333333333336,-0.875,-0.437,-0.22
28643,1755586752720,60.55,-119.5,-17.03,812,778,835,883,888,33.333333333333336,-0.875,-0.436,-0.224
28672,1755586752750,60.53,-119.49,-17.03,815,775,827,880,915,34.48275862068966,-0.874,-0.437,-0.224
28702,1755586752780,60.52,-119.5,-17.03,814,765,835,871,882,33.333333333333336,-0.876,-0.437,-0.221
28732,1755586752809,60.52,-119.44,-17.02,815,770,845,875,887,33.333333333333336,-0.876,-0.437,-0.22
28761,1755586752839,60.53,-119.4,-17.01,809,775,835,874,889,34.48275862068966,-0.876,-0.437,-0.222
28791,1755586752869,60.53,-119.4,-17.0,812,761,823,873,892,33.333333333333336,-0.874,-0.437,-0.223
28820,1755586752898,60.51,-119.39,-16.99,811,767,835,877,880,34.48275862068966,-0.875,-0.438,-0.221
28850,1755586752929,60.51,-119.27,-16.95,812,765,839,881,880,33.333333333333336,-0.876,-0.438,-0.22
28870,1755586752948,60.53,-119.21,-16.93,813,765,838,880,888,50.0,-0.875,-0.437,-0.222
28900,1755586752978,60.54,-119.22,-16.95,813,772,833,869,880,33.333333333333336,-0.873,-0.436,-0.225
28930,1755586753008,60.54,-119.22,-16.95,816,775,840,874,875,33.333333333333336,-0.876,-0.435,-0.224
28960,1755586753038,60.52,-119.15,-16.94,814,767,832,864,884,33.333333333333336,-0.877,-0.435,-0.222
28980,1755586753058,60.51,-119.11,-16.93,816,773,847,873,882,50.0,-0.875,-0.434,-0.222
29009,1755586753087,60.54,-119.1,-16.95,811,769,843,876,886,34.48275862068966,-0.876,-0.436,-0.223
29039,1755586753117,60.54,-119.08,-16.94,814,762,833,878,884,33.333333333333336,-0.876,-0.436,-0.224
29069,1755586753146,60.49,-119.04,-16.92,815,774,833,878,884,33.333333333333336,-0.874,-0.435,-0.222
29098,1755586753176,60.53,-119.02,-16.92,820,760,833,875,887,34.48275862068966,-0.877,-0.434,-0.219
29128,1755586753206,60.57,-119.0,-16.92,814,768,827,872,893,33.333333333333336,-0.876,-0.436,-0.22
29157,1755586753236,60.55,-118.97,-16.9,813,762,832,875,885,34.48275862068966,-0.875,-0.437,-0.222
29187,1755586753265,60.54,-118.95,-16.88,813,767,831,877,893,33.333333333333336,-0.873,-0.436,-0.223
29217,1755586753295,60.57,-118.88,-16.86,812,766,849,882,882,33.333333333333336,-0.874,-0.437,-0.221
29247,1755586753325,60.6,-118.85,-16.85,815,769,832,876,887,33.333333333333336,-0.875,-0.436,-0.223
29276,1755586753354,60.6,-118.83,-16.85,812,760,837,874,880,34.48275862068966,-0.875,-0.434,-0.224
29306,1755586753384,60.63,-118.82,-16.84,813,767,833,879,882,33.333333333333336,-0.877,-0.433,-0.222
29336,1755586753414,60.63,-118.8,-16.86,817,767,836,878,883,33.333333333333336,-0.876,-0.433,-0.223
29366,1755586753444,60.61,-118.77,-16.86,808,771,844,870,875,33.333333333333336,-0.876,-0.435,-0.225
29395,1755586753473,60.61,-118.78,-16.86,809,776,836,870,895,34.48275862068966,-0.874,-0.437,-0.222
29425,1755586753503,60.61,-118.74,-16.84,807,771,836,875,876,33.333333333333336,-0.875,-0.438,-0.218
29455,1755586753533,60.6,-118.64,-16.82,813,767,839,880,880,33.333333333333336,-0.875,-0.436,-0.22
29484,1755586753562,60.63,-118.64,-16.81,814,765,832,882,878,34.48275862068966,-0.878,-0.437,-0.223
29514,1755586753592,60.66,-118.6,-16.79,816,766,845,869,888,33.333333333333336,-0.876,-0.435,-0.22
29534,1755586753612,60.68,-118.56,-16.79,813,769,838,871,881,50.0,-0.876,-0.435,-0.22
29564,1755586753642,60.67,-118.53,-16.78,812,773,828,878,879,33.333333333333336,-0.876,-0.434,-0.224
29584,1755586753662,60.68,-118.55,-16.79,815,767,839,877,895,50.0,-0.875,-0.434,-0.225
29613,1755586753691,60.66,-118.56,-16.8,811,766,833,871,874,34.48275862068966,-0.873,-0.435,-0.224
29643,1755586753721,60.64,-118.51,-16.78,811,766,836,875,880,33.333333333333336,-0.877,-0.435,-0.222
29673,1755586753751,60.68,-118.47,-16.77,808,767,836,878,887,33.333333333333336,-0.877,-0.435,-0.221
29702,1755586753780,60.69,-118.44,-16.76,813,756,833,875,880,34.48275862068966,-0.874,-0.435,-0.22
29732,1755586753810,60.64,-118.4,-16.79,810,766,839,869,887,33.333333333333336,-0.875,-0.434,-0.222
29762,1755586753840,60.66,-118.4,-16.79,815,774,834,870,877,33.333333333333336,-0.876,-0.435,-0.221
29791,1755586753869,60.71,-118.36,-16.76,813,773,828,873,886,34.48275862068966,-0.878,-0.438,-0.218
29821,1755586753900,60.73,-118.29,-16.76,810,765,832,865,877,33.333333333333336,-0.871,-0.436,-0.221
29841,1755586753919,60.67,-118.27,-16.77,808,769,834,893,881,50.0,-0.874,-0.438,-0.222
29871,1755586753949,60.71,-118.29,-16.75,816,766,833,872,885,33.333333333333336,-0.88,-0.439,-0.222
29901,1755586753979,60.74,-118.23,-16.73,811,780,831,868,880,33.333333333333336,-0.878,-0.436,-0.217
29930,1755586754008,60.7,-118.15,-16.73,814,776,831,868,884,34.48275862068966,-0.877,-0.434,-0.217
29960,1755586754038,60.74,-118.2,-16.72,815,776,822,869,879,33.333333333333336,-0.878,-0.434,-0.223
29989,1755586754067,60.73,-118.28,-16.74,812,776,843,874,886,34.48275862068966,-0.878,-0.434,-0.221
30019,1755586754097,60.69,-118.28,-16.78,812,767,836,878,881,33.333333333333336,-0.879,-0.435,-0.218
30049,1755586754126,60.68,-118.26,-16.78,806,773,832,876,900,33.333333333333336,-0.879,-0.436,-0.218
30078,1755586754156,60.76,-118.28,-16.77,810,769,834,866,893,34.48275862068966,-0.879,-0.437,-0.217
30108,1755586754186,60.78,-118.25,-16.78,806,771,836,874,878,33.333333333333336,-0.877,-0.435,-0.218
30137,1755586754215,60.69,-118.2,-16.79,812,777,837,872,880,34.48275862068966,-0.878,-0.435,-0.223
30167,1755586754245,60.68,-118.22,-16.79,810,767,832,877,886,33.333333333333336,-0.876,-0.436,-0.224
30197,1755586754274,60.65,-118.24,-16.82,813,771,832,870,892,33.333333333333336,-0.873,-0.436,-0.221
30226,1755586754304,60.6,-118.24,-16.83,811,770,836,866,884,34.48275862068966,-0.877,-0.436,-0.222
30256,1755586754334,60.69,-118.24,-16.81,812,769,830,874,895,33.333333333333336,-0.877,-0.437,-0.22
30286,1755586754364,60.66,-118.23,-16.82,809,768,832,876,884,33.333333333333336,-0.875,-0.435,-0.219
30316,1755586754394,60.59,-118.2,-16.83,812,767,833,876,883,33.333333333333336,-0.878,-0.437,-0.22
30345,1755586754423,60.62,-118.2,-16.81,809,773,831,874,888,34.48275862068966,-0.876,-0.437,-0.221
30375,1755586754453,60.62,-118.19,-16.82,808,769,836,873,887,33.333333333333336,-0.875,-0.437,-0.22
30405,1755586754483,60.58,-118.17,-16.82,817,767,839,875,882,33.333333333333336,-0.877,-0.435,-0.219
30435,1755586754513,60.6,-118.17,-16.81,811,773,836,867,884,33.333333333333336,-0.877,-0.435,-0.221
30464,1755586754542,60.69,-118.16,-16.8,808,774,830,880,873,34.48275862068966,-0.876,-0.435,-0.214
30494,1755586754572,60.63,-118.14,-16.82,810,768,835,869,876,33.333333333333336,-0.877,-0.437,-0.217
30523,1755586754601,60.58,-118.08,-16.81,823,777,838,876,882,34.48275862068966,-0.876,-0.438,-0.216
30553,1755586754631,60.65,-118.06,-16.8,819,770,837,871,878,33.333333333333336,-0.875,-0.441,-0.216
30583,1755586754661,60.68,-118.03,-16.77,818,776,843,877,886,33.333333333333336,-0.876,-0.439,-0.217
30612,1755586754690,60.65,-118.01,-16.77,807,773,840,874,871,34.48275862068966,-0.875,-0.438,-0.218
30642,1755586754720,60.61,-117.98,-16.76,815,770,832,872,885,33.333333333333336,-0.877,-0.436,-0.217
30671,1755586754749,60.65,-117.95,-16.75,814,762,839,876,878,34.48275862068966,-0.875,-0.433,-0.215
30701,1755586754779,60.72,-117.91,-16.74,816,777,838,878,882,33.333333333333336,-0.878,-0.432,-0.218
30730,1755586754808,60.74,-117.87,-16.73,811,778,833,874,895,34.48275862068966,-0.877,-0.434,-0.221
30760,1755586754838,60.7,-117.87,-16.74,806,773,828,871,881,33.333333333333336,-0.874,-0.437,-0.223
30790,1755586754868,60.7,-117.88,-16.74,810,764,829,879,889,33.333333333333336,-0.877,-0.438,-0.22
30819,1755586754897,60.73,-117.83,-16.71,814,774,826,881,885,34.48275862068966,-0.876,-0.437,-0.218
30849,1755586754927,60.68,-117.74,-16.7,806,770,827,870,890,33.333333333333336,-0.877,-0.436,-0.218
30879,1755586754956,60.58,-117.69,-16.69,813,772,830,874,877,33.333333333333336,-0.878,-0.436,-0.223
30908,1755586754986,60.53,-117.7,-16.67,810,761,825,876,877,34.48275862068966,-0.874,-0.435,-0.221
30938,1755586755016,60.65,-117.74,-16.68,813,765,840,867,879,33.333333333333336,-0.878,-0.433,-0.215
30967,1755586755046,60.59,-117.6,-16.68,810,767,840,873,881,34.48275862068966,-0.879,-0.433,-0.215
30997,1755586755075,60.54,-117.55,-16.66,808,774,823,872,877,33.333333333333336,-0.878,-0.435,-0.222
31026,1755586755104,60.55,-117.6,-16.68,808,765,832,875,881,34.48275862068966,-0.877,-0.435,-0.219
31056,1755586755134,60.47,-117.58,-16.71,823,774,821,867,873,33.333333333333336,-0.878,-0.434,-0.213
31086,1755586755164,60.43,-117.5,-16.71,813,769,835,872,888,33.333333333333336,-0.879,-0.434,-0.215
31115,1755586755193,60.52,-117.49,-16.68,812,769,827,874,887,34.48275862068966,-0.879,-0.436,-0.214
31145,1755586755223,60.5,-117.45,-16.69,814,767,839,877,878,33.333333333333336,-0.877,-0.435,-0.215
31175,1755586755253,60.36,-117.37,-16.7,814,770,845,876,881,33.333333333333336,-0.878,-0.437,-0.215
31205,1755586755283,60.15,-117.22,-16.68,814,764,827,873,875,33.333333333333336,-0.879,-0.435,-0.214
31235,1755586755313,60.14,-117.18,-16.62,809,766,837,879,885,33.333333333333336,-0.883,-0.436,-0.212
31265,1755586755342,60.22,-117.21,-16.54,811,769,843,881,879,33.333333333333336,-0.877,-0.435,-0.213
31294,1755586755372,60.18,-117.26,-16.56,814,766,828,877,881,34.48275862068966,-0.877,-0.435,-0.212
31324,1755586755401,60.08,-117.25,-16.58,811,778,835,870,880,33.333333333333336,-0.88,-0.435,-0.207
31353,1755586755431,60.18,-117.25,-16.56,807,766,837,871,882,34.48275862068966,-0.879,-0.436,-0.209
31383,1755586755461,60.26,-117.27,-16.55,812,764,835,873,881,33.333333333333336,-0.878,-0.436,-0.208
31412,1755586755491,60.22,-117.2,-16.56,808,772,834,867,873,34.48275862068966,-0.88,-0.435,-0.203
31442,1755586755520,60.24,-117.15,-16.57,815,768,837,871,888,33.333333333333336,-0.881,-0.433,-0.205
31472,1755586755550,60.29,-117.17,-16.56,807,768,833,873,878,33.333333333333336,-0.88,-0.432,-0.208
31501,1755586755579,60.31,-117.21,-16.59,812,774,828,870,886,34.48275862068966,-0.882,-0.432,-0.206
31531,1755586755609,60.28,-117.17,-16.61,813,774,830,878,879,33.333333333333336,-0.882,-0.434,-0.203
31561,1755586755639,60.26,-117.08,-16.6,811,767,835,874,885,33.333333333333336,-0.879,-0.435,-0.205
31590,1755586755669,60.29,-117.08,-16.61,819,767,827,870,879,34.48275862068966,-0.877,-0.435,-0.207
31611,1755586755688,60.32,-117.11,-16.64,806,772,835,871,880,47.61904761904762,-0.877,-0.434,-0.208
31640,1755586755718,60.3,-117.07,-16.65,809,771,839,873,883,34.48275862068966,-0.88,-0.435,-0.204
31670,1755586755748,60.37,-116.96,-16.61,805,766,839,859,886,33.333333333333336,-0.879,-0.436,-0.204
31699,1755586755777,60.43,-116.93,-17.06,816,768,831,871,892,34.48275862068966,-0.879,-0.435,-0.203
31729,1755586755807,60.46,-116.9,-17.08,808,772,844,876,892,33.333333333333336,-0.878,-0.437,-0.206
31759,1755586755837,60.48,-116.9,-17.1,814,769,818,872,889,33.333333333333336,-0.877,-0.435,-0.21
31788,1755586755866,60.48,-116.94,-17.13,812,766,832,872,879,34.48275862068966,-0.88,-0.434,-0.208
31818,1755586755896,60.48,-116.92,-17.12,815,776,834,880,881,33.333333333333336,-0.881,-0.436,-0.203
31847,1755586755925,60.5,-116.84,-17.13,815,771,840,869,885,34.48275862068966,-0.879,-0.437,-0.202
31877,1755586755955,60.51,-116.8,-17.13,810,771,842,873,882,33.333333333333336,-0.879,-0.439,-0.205
31906,1755586755984,60.57,-116.79,-17.12,818,777,835,878,875,34.48275862068966,-0.879,-0.439,-0.205
31936,1755586756014,60.56,-116.74,-17.12,801,769,851,875,884,33.333333333333336,-0.877,-0.437,-0.204
31966,1755586756043,60.51,-116.69,-17.15,817,772,833,875,894,33.333333333333336,-0.878,-0.437,-0.205
31995,1755586756073,60.57,-116.69,-17.14,812,765,831,866,884,34.48275862068966,-0.88,-0.439,-0.206
32025,1755586756103,60.62,-116.65,-17.12,814,773,832,878,879,33.333333333333336,-0.879,-0.439,-0.203
32055,1755586756132,60.59,-116.6,-17.13,812,767,844,871,880,33.333333333333336,-0.878,-0.438,-0.204
32084,1755586756162,60.59,-116.59,-17.11,813,780,832,890,884,34.48275862068966,-0.877,-0.438,-0.208
32114,1755586756192,60.62,-116.63,-17.13,810,773,833,876,893,33.333333333333336,-0.877,-0.437,-0.204
32143,1755586756221,60.61,-116.6,-17.14,819,765,833,877,881,34.48275862068966,-0.878,-0.438,-0.204
32173,1755586756251,60.63,-116.6,-17.12,813,775,822,876,877,33.333333333333336,-0.877,-0.438,-0.206
32203,1755586756281,60.68,-116.6,-17.12,816,763,825,876,872,33.333333333333336,-0.878,-0.437,-0.205
32232,1755586756310,60.62,-116.58,-17.13,817,771,838,864,881,34.48275862068966,-0.879,-0.435,-0.205
32262,1755586756340,60.54,-116.57,-17.12,812,773,831,872,891,33.333333333333336,-0.879,-0.436,-0.206
32292,1755586756369,60.57,-116.56,-17.1,811,762,835,865,874,33.333333333333336,-0.879,-0.437,-0.203
32321,1755586756399,60.62,-116.56,-17.11,810,772,832,873,902,34.48275862068966,-0.877,-0.437,-0.203
32351,1755586756429,60.62,-116.56,-17.1,806,764,832,869,908,33.333333333333336,-0.879,-0.439,-0.206
32380,1755586756458,60.64,-116.54,-17.09,818,772,828,874,887,34.48275862068966,-0.878,-0.439,-0.205
32410,1755586756488,60.65,-116.53,-17.1,813,771,839,871,887,33.333333333333336,-0.876,-0.439,-0.205
32439,1755586756517,60.62,-116.49,-17.11,810,761,841,866,882,34.48275862068966,-0.878,-0.439,-0.203
32469,1755586756547,60.62,-116.45,-17.08,809,766,833,881,882,33.333333333333336,-0.879,-0.439,-0.203
32498,1755586756576,60.69,-116.41,-17.07,812,769,846,871,881,34.48275862068966,-0.879,-0.437,-0.202
