timestamp_ms,recv_timestamp_ms,pitch,roll,yaw,flex1,flex2,flex3,flex4,flex5,sampling_hz,accel_x,accel_y,accel_z
42201,1755584532118,15.55,-44.59,8.82,765,772,834,852,861,34.48275862068966,-0.273,-0.686,0.677
42231,1755584532147,15.59,-44.61,8.84,766,778,829,882,860,33.333333333333336,-0.272,-0.687,0.678
42261,1755584532177,15.59,-44.61,8.85,764,778,834,867,850,33.333333333333336,-0.273,-0.687,0.677
42290,1755584532207,15.56,-44.56,8.84,767,773,820,881,856,34.48275862068966,-0.274,-0.685,0.675
42320,1755584532236,15.56,-44.54,8.85,768,770,834,866,861,33.333333333333336,-0.275,-0.684,0.673
42349,1755584532265,15.59,-44.59,8.4,764,776,821,874,853,34.48275862068966,-0.277,-0.682,0.673
42379,1755584532295,15.59,-44.63,8.39,762,765,842,880,860,33.333333333333336,-0.276,-0.684,0.674
42408,1755584532324,15.68,-44.7,8.44,767,770,822,884,852,34.48275862068966,-0.275,-0.686,0.677
42438,1755584532354,15.86,-44.75,8.54,766,765,832,877,863,33.333333333333336,-0.277,-0.69,0.678
42467,1755584532383,15.91,-44.74,8.59,758,774,847,888,849,34.48275862068966,-0.282,-0.69,0.676
42497,1755584532413,15.83,-44.69,8.58,756,766,833,884,896,33.333333333333336,-0.282,-0.686,0.671
42526,1755584532442,15.85,-44.73,8.61,764,769,853,862,853,34.48275862068966,-0.281,-0.684,0.67
42556,1755584532472,15.84,-44.74,8.6,769,772,815,871,847,33.333333333333336,-0.28,-0.686,0.673
42585,1755584532501,15.73,-44.69,8.58,765,769,829,880,861,34.48275862068966,-0.282,-0.69,0.675
42615,1755584532531,15.77,-44.67,8.63,763,766,832,885,856,33.333333333333336,-0.281,-0.688,0.673
42644,1755584532560,15.87,-44.72,8.68,760,769,831,874,854,34.48275862068966,-0.281,-0.686,0.672
42674,1755584532590,15.82,-44.7,8.66,764,768,832,876,859,33.333333333333336,-0.283,-0.686,0.673
42703,1755584532619,15.85,-44.7,8.69,758,778,820,877,857,34.48275862068966,-0.282,-0.686,0.671
42733,1755584532649,15.9,-44.71,8.75,764,774,833,873,862,33.333333333333336,-0.283,-0.687,0.672
42762,1755584532678,15.89,-44.69,8.77,759,777,831,878,844,34.48275862068966,-0.281,-0.686,0.675
42792,1755584532708,15.9,-44.69,8.75,766,774,838,879,861,33.333333333333336,-0.281,-0.685,0.674
42821,1755584532737,15.94,-44.7,8.76,753,765,826,873,860,34.48275862068966,-0.285,-0.687,0.671
42850,1755584532766,15.92,-44.69,8.78,760,780,843,876,858,34.48275862068966,-0.286,-0.687,0.67
42880,1755584532796,15.94,-44.7,8.81,763,778,830,877,863,33.333333333333336,-0.282,-0.685,0.673
42909,1755584532826,15.96,-44.69,8.8,760,772,826,896,846,34.48275862068966,-0.282,-0.686,0.674
42939,1755584532855,15.95,-44.69,8.8,759,771,835,874,854,33.333333333333336,-0.284,-0.685,0.671
42968,1755584532884,16.0,-44.69,8.84,762,776,832,877,856,34.48275862068966,-0.285,-0.686,0.672
42998,1755584532914,15.99,-44.7,8.83,758,776,820,879,847,33.333333333333336,-0.284,-0.686,0.672
43027,1755584532943,15.98,-44.7,8.83,762,779,822,878,856,34.48275862068966,-0.285,-0.686,0.672
43057,1755584532973,16.02,-44.72,8.87,768,778,833,870,847,33.333333333333336,-0.286,-0.686,0.672
43086,1755584533002,16.0,-44.72,8.86,761,777,824,876,855,34.48275862068966,-0.284,-0.684,0.671
43116,1755584533032,16.0,-44.72,8.87,764,774,825,894,861,33.333333333333336,-0.284,-0.686,0.673
43145,1755584533061,16.03,-44.72,8.88,763,781,819,873,860,34.48275862068966,-0.287,-0.688,0.672
43175,1755584533091,16.03,-44.73,8.91,759,772,853,877,862,33.333333333333336,-0.287,-0.687,0.67
43204,1755584533120,16.03,-44.73,8.93,755,773,833,871,852,34.48275862068966,-0.285,-0.686,0.671
43234,1755584533150,16.01,-44.76,8.92,758,776,821,883,855,33.333333333333336,-0.283,-0.685,0.671
43263,1755584533179,15.99,-44.75,8.92,768,766,825,877,851,34.48275862068966,-0.285,-0.686,0.672
43293,1755584533209,16.0,-44.73,8.93,757,773,823,878,863,33.333333333333336,-0.284,-0.686,0.673
43322,1755584533238,16.01,-44.74,8.93,759,776,834,874,858,34.48275862068966,-0.282,-0.685,0.671
43352,1755584533268,16.0,-44.79,8.92,762,771,835,882,856,33.333333333333336,-0.284,-0.686,0.669
43381,1755584533297,15.99,-44.81,8.93,763,779,830,878,859,34.48275862068966,-0.285,-0.686,0.669
43411,1755584533327,15.99,-44.82,8.97,765,771,831,895,863,33.333333333333336,-0.285,-0.687,0.671
43440,1755584533356,16.0,-44.81,9.0,766,770,834,881,856,34.48275862068966,-0.285,-0.687,0.672
43470,1755584533386,15.97,-44.8,8.99,758,767,827,877,862,33.333333333333336,-0.284,-0.686,0.67
43499,1755584533416,15.98,-44.81,9.02,766,766,829,876,855,34.48275862068966,-0.284,-0.687,0.669
43529,1755584533445,16.01,-44.83,9.05,768,775,836,859,858,33.333333333333336,-0.283,-0.686,0.669
43558,1755584533474,15.97,-44.83,9.02,768,775,831,875,872,34.48275862068966,-0.282,-0.686,0.671
43588,1755584533504,15.98,-44.85,9.01,758,776,834,876,859,33.333333333333336,-0.285,-0.689,0.67
43617,1755584533533,16.03,-44.85,9.05,761,776,835,875,857,34.48275862068966,-0.286,-0.688,0.67
43647,1755584533563,16.04,-44.85,9.07,759,773,835,878,859,33.333333333333336,-0.283,-0.687,0.671
43676,1755584533593,16.02,-44.8,9.07,763,765,821,895,855,34.48275862068966,-0.283,-0.688,0.672
43706,1755584533622,16.03,-44.79,9.08,759,769,842,875,856,33.333333333333336,-0.285,-0.687,0.667
43735,1755584533652,16.07,-44.83,9.12,758,776,827,870,847,34.48275862068966,-0.286,-0.686,0.667
43765,1755584533681,16.06,-44.85,9.12,767,770,826,878,859,33.333333333333336,-0.284,-0.692,0.67
43795,1755584533711,16.03,-44.84,9.11,765,784,824,873,862,33.333333333333336,-0.283,-0.692,0.669
43815,1755584533731,16.05,-44.85,9.12,757,774,831,873,860,50.0,-0.283,-0.692,0.669
43844,1755584533761,16.04,-44.83,9.13,760,767,813,867,859,34.48275862068966,-0.283,-0.691,0.669
43874,1755584533790,16.01,-44.81,9.13,758,775,819,878,857,33.333333333333336,-0.285,-0.689,0.666
43903,1755584533820,16.04,-44.84,9.16,764,773,837,877,854,34.48275862068966,-0.287,-0.689,0.665
43933,1755584533849,16.06,-44.87,9.18,762,762,824,877,859,33.333333333333336,-0.283,-0.688,0.669
43962,1755584533879,16.03,-44.85,9.15,766,771,835,880,859,34.48275862068966,-0.282,-0.689,0.67
43992,1755584533908,16.04,-44.84,9.16,764,771,828,868,863,33.333333333333336,-0.284,-0.688,0.668
44021,1755584533938,16.07,-44.87,9.18,764,777,830,869,857,34.48275862068966,-0.286,-0.687,0.666
44051,1755584533967,16.03,-44.88,9.19,765,770,833,875,851,33.333333333333336,-0.285,-0.688,0.668
44081,1755584533997,16.03,-44.86,9.19,759,770,821,871,857,33.333333333333336,-0.283,-0.687,0.67
44110,1755584534027,16.03,-44.85,9.21,764,780,814,884,863,34.48275862068966,-0.284,-0.689,0.669
44140,1755584534056,16.07,-44.85,9.24,764,778,826,879,852,33.333333333333336,-0.284,-0.689,0.669
44169,1755584534085,16.09,-44.85,9.26,770,780,815,877,876,34.48275862068966,-0.282,-0.686,0.669
44199,1755584534115,16.09,-44.84,9.26,767,780,826,877,860,33.333333333333336,-0.284,-0.686,0.668
44228,1755584534145,16.06,-44.83,9.26,764,777,821,865,858,34.48275862068966,-0.283,-0.685,0.668
44258,1755584534174,16.09,-44.82,9.26,754,776,830,881,849,33.333333333333336,-0.285,-0.688,0.669
44287,1755584534204,16.11,-44.82,9.28,761,783,840,886,859,34.48275862068966,-0.286,-0.688,0.668
44317,1755584534233,16.14,-44.85,9.28,763,778,823,877,851,33.333333333333336,-0.284,-0.686,0.669
44347,1755584534263,16.11,-44.81,9.27,765,777,841,869,856,33.333333333333336,-0.285,-0.689,0.669
44376,1755584534293,16.12,-44.79,9.31,763,778,819,880,848,34.48275862068966,-0.286,-0.689,0.668
44406,1755584534322,16.13,-44.8,9.35,755,768,814,877,860,33.333333333333336,-0.283,-0.686,0.668
44435,1755584534351,16.12,-44.79,9.34,760,775,820,875,850,34.48275862068966,-0.283,-0.685,0.67
44465,1755584534381,16.08,-44.8,9.33,757,776,830,873,856,33.333333333333336,-0.285,-0.684,0.667
44494,1755584534410,16.11,-44.82,9.39,762,789,836,877,857,34.48275862068966,-0.285,-0.685,0.67
44524,1755584534440,16.11,-44.83,9.38,767,774,830,876,854,33.333333333333336,-0.282,-0.683,0.673
44553,1755584534469,16.09,-44.81,9.35,762,768,842,870,857,34.48275862068966,-0.283,-0.684,0.673
44583,1755584534499,16.14,-44.82,9.37,762,772,827,879,854,33.333333333333336,-0.284,-0.684,0.669
44612,1755584534529,16.15,-44.85,9.37,758,765,832,882,848,34.48275862068966,-0.285,-0.685,0.669
44642,1755584534558,16.12,-44.83,9.36,761,775,831,890,854,33.333333333333336,-0.288,-0.688,0.67
44671,1755584534588,16.17,-44.8,9.42,768,778,824,863,867,34.48275862068966,-0.286,-0.69,0.671
44701,1755584534617,16.21,-44.75,9.45,765,777,833,883,862,33.333333333333336,-0.284,-0.687,0.669
44730,1755584534647,16.19,-44.74,9.43,763,772,832,878,857,34.48275862068966,-0.283,-0.683,0.665
44760,1755584534677,16.2,-44.79,9.41,759,766,831,879,857,33.333333333333336,-0.284,-0.681,0.666
44790,1755584534706,16.19,-44.82,9.4,762,772,825,879,863,33.333333333333336,-0.287,-0.681,0.669
44819,1755584534735,16.19,-44.82,9.41,765,767,820,886,859,34.48275862068966,-0.288,-0.683,0.672
44849,1755584534765,16.2,-44.83,9.41,764,769,832,875,860,33.333333333333336,-0.288,-0.684,0.673
44878,1755584534795,16.21,-44.82,9.41,758,779,816,878,856,34.48275862068966,-0.288,-0.686,0.671
44908,1755584534824,16.21,-44.86,9.42,757,769,828,879,856,33.333333333333336,-0.286,-0.687,0.668
44938,1755584534854,16.2,-44.86,9.43,763,766,821,886,851,33.333333333333336,-0.284,-0.688,0.671
44967,1755584534883,16.19,-44.82,9.43,761,764,828,877,849,34.48275862068966,-0.284,-0.687,0.671
44997,1755584534913,16.17,-44.85,9.41,757,768,835,875,855,33.333333333333336,-0.281,-0.684,0.67
45026,1755584534942,16.17,-44.91,9.37,764,767,829,883,863,34.48275862068966,-0.28,-0.683,0.672
45056,1755584534972,16.12,-44.91,9.33,762,772,830,879,856,33.333333333333336,-0.284,-0.686,0.673
45085,1755584535002,16.13,-44.9,9.35,763,777,834,885,857,34.48275862068966,-0.285,-0.687,0.674
45115,1755584535031,16.14,-44.88,9.37,764,767,819,875,859,33.333333333333336,-0.284,-0.687,0.672
45144,1755584535061,16.12,-44.87,9.38,768,771,822,861,862,34.48275862068966,-0.282,-0.687,0.671
45174,1755584535090,16.14,-44.86,9.38,760,769,848,874,851,33.333333333333336,-0.284,-0.687,0.669
45204,1755584535120,16.17,-44.89,9.41,766,770,819,868,865,33.333333333333336,-0.283,-0.688,0.67
45233,1755584535149,16.18,-44.91,9.39,762,780,828,879,861,34.48275862068966,-0.284,-0.69,0.671
45262,1755584535179,16.14,-44.87,9.38,767,767,831,882,856,34.48275862068966,-0.286,-0.692,0.67
45292,1755584535208,16.17,-44.86,9.44,762,777,833,875,853,33.333333333333336,-0.283,-0.688,0.669
45322,1755584535238,16.15,-44.86,9.43,757,777,818,873,861,33.333333333333336,-0.283,-0.685,0.669
45351,1755584535267,16.09,-44.84,9.43,766,778,834,875,851,34.48275862068966,-0.285,-0.686,0.667
45381,1755584535297,16.11,-44.86,9.47,760,780,824,878,868,33.333333333333336,-0.286,-0.687,0.668
45410,1755584535326,16.11,-44.89,9.5,759,773,833,867,856,34.48275862068966,-0.285,-0.688,0.67
45440,1755584535356,16.09,-44.88,9.52,761,777,824,875,853,33.333333333333336,-0.283,-0.686,0.672
45469,1755584535385,16.06,-44.86,9.52,761,767,831,872,857,34.48275862068966,-0.283,-0.686,0.671
45499,1755584535415,16.06,-44.91,9.54,761,777,835,878,853,33.333333333333336,-0.283,-0.686,0.671
45528,1755584535444,16.04,-44.9,9.57,762,770,811,873,846,34.48275862068966,-0.278,-0.688,0.678
45557,1755584535474,16.05,-44.81,9.56,764,781,828,877,862,34.48275862068966,-0.276,-0.69,0.678
45587,1755584535503,16.08,-44.76,9.53,764,770,831,882,859,33.333333333333336,-0.282,-0.685,0.667
45616,1755584535533,16.14,-44.82,9.55,759,768,831,870,864,34.48275862068966,-0.288,-0.681,0.661
45646,1755584535562,16.11,-44.9,9.55,765,770,837,874,846,33.333333333333336,-0.289,-0.68,0.662
45676,1755584535592,16.13,-44.94,9.57,762,770,837,893,861,33.333333333333336,-0.286,-0.684,0.668
45705,1755584535621,16.19,-45.01,9.58,763,771,838,878,859,34.48275862068966,-0.281,-0.688,0.67
45735,1755584535651,16.17,-45.02,9.57,765,765,820,879,854,33.333333333333336,-0.279,-0.692,0.672
45764,1755584535681,16.18,-44.99,9.57,767,778,831,878,847,34.48275862068966,-0.28,-0.692,0.672
45784,1755584535700,16.2,-44.98,9.57,760,772,828,855,853,50.0,-0.283,-0.691,0.67
45814,1755584535730,16.16,-45.0,9.56,762,779,832,891,856,33.333333333333336,-0.288,-0.69,0.667
45843,1755584535759,16.14,-45.03,9.58,763,769,829,866,858,34.48275862068966,-0.286,-0.686,0.668
45872,1755584535789,16.14,-45.04,9.57,764,784,834,872,857,34.48275862068966,-0.282,-0.685,0.67
45902,1755584535818,16.12,-45.06,9.53,767,775,822,865,856,33.333333333333336,-0.282,-0.687,0.668
45932,1755584535848,16.12,-45.08,9.53,767,770,822,872,847,33.333333333333336,-0.282,-0.69,0.669
45961,1755584535877,16.12,-45.07,9.55,764,774,841,872,864,34.48275862068966,-0.283,-0.692,0.671
45991,1755584535907,16.12,-45.08,9.55,761,775,833,875,847,33.333333333333336,-0.282,-0.691,0.668
46020,1755584535936,16.13,-45.1,9.54,762,773,827,878,857,34.48275862068966,-0.282,-0.691,0.668
46050,1755584535966,16.13,-45.09,9.55,768,769,838,873,857,33.333333333333336,-0.283,-0.693,0.67
46079,1755584535995,16.12,-45.04,9.56,760,774,819,873,851,34.48275862068966,-0.281,-0.692,0.669
46109,1755584536025,16.15,-45.02,9.58,763,784,824,879,860,33.333333333333336,-0.282,-0.693,0.67
46138,1755584536054,16.15,-44.98,9.58,764,786,835,869,852,34.48275862068966,-0.28,-0.69,0.67
46168,1755584536084,16.17,-44.98,9.59,765,759,827,879,836,33.333333333333336,-0.282,-0.688,0.667
46197,1755584536113,16.16,-44.96,9.61,760,780,840,877,858,34.48275862068966,-0.285,-0.689,0.666
46227,1755584536143,16.16,-44.97,9.64,760,773,850,883,858,33.333333333333336,-0.286,-0.689,0.666
46256,1755584536172,16.17,-44.97,9.66,764,767,825,876,861,34.48275862068966,-0.282,-0.689,0.668
46285,1755584536202,16.15,-44.96,9.65,774,776,826,863,854,34.48275862068966,-0.282,-0.689,0.668
46315,1755584536231,16.15,-44.97,9.68,762,771,832,872,859,33.333333333333336,-0.284,-0.69,0.667
46344,1755584536260,16.16,-44.97,9.7,769,779,844,877,853,34.48275862068966,-0.283,-0.689,0.669
46374,1755584536290,16.13,-44.94,9.69,755,768,825,876,857,33.333333333333336,-0.284,-0.688,0.67
46403,1755584536319,16.12,-44.93,9.72,757,780,840,869,855,34.48275862068966,-0.284,-0.689,0.667
46433,1755584536349,16.14,-44.96,9.75,763,772,843,869,845,33.333333333333336,-0.282,-0.689,0.669
46462,1755584536379,16.12,-44.93,9.76,770,776,826,871,853,34.48275862068966,-0.281,-0.688,0.671
46492,1755584536409,16.07,-44.89,9.75,759,778,817,865,858,33.333333333333336,-0.282,-0.686,0.669
46521,1755584536438,16.08,-44.91,9.76,768,771,818,885,869,34.48275862068966,-0.282,-0.686,0.669
46551,1755584536467,16.11,-44.9,9.79,763,773,834,873,850,33.333333333333336,-0.28,-0.688,0.668
46581,1755584536497,16.09,-44.91,9.79,778,781,833,874,857,33.333333333333336,-0.281,-0.689,0.667
46610,1755584536526,16.07,-44.93,9.79,762,773,823,876,853,34.48275862068966,-0.283,-0.687,0.669
46639,1755584536556,16.08,-44.95,9.81,768,773,830,874,859,34.48275862068966,-0.283,-0.687,0.67
46669,1755584536585,16.05,-44.94,9.81,766,773,827,879,852,33.333333333333336,-0.285,-0.688,0.669
46698,1755584536615,16.03,-44.95,9.82,768,762,831,876,865,34.48275862068966,-0.284,-0.688,0.668
46719,1755584536635,16.06,-44.98,9.85,761,779,832,873,849,47.61904761904762,-0.283,-0.688,0.667
46748,1755584536665,16.07,-44.99,9.86,768,780,824,877,858,34.48275862068966,-0.282,-0.688,0.67
46778,1755584536694,16.03,-44.96,9.86,760,789,838,880,859,33.333333333333336,-0.281,-0.688,0.671
46807,1755584536724,16.05,-44.96,9.88,766,767,833,884,849,34.48275862068966,-0.282,-0.689,0.671
46837,1755584536754,16.07,-44.97,9.91,767,775,826,879,856,33.333333333333336,-0.281,-0.688,0.671
46857,1755584536773,16.06,-44.96,9.9,766,778,824,876,851,50.0,-0.28,-0.686,0.671
46886,1755584536803,16.03,-44.94,9.88,765,767,824,876,859,34.48275862068966,-0.282,-0.686,0.669
46916,1755584536832,16.06,-44.96,9.92,753,771,833,878,867,33.333333333333336,-0.284,-0.688,0.668
46945,1755584536861,16.09,-45.0,9.95,764,779,835,870,864,34.48275862068966,-0.282,-0.689,0.672
46975,1755584536891,16.1,-44.97,9.96,763,777,825,878,861,33.333333333333336,-0.281,-0.688,0.674
47004,1755584536920,16.08,-44.91,9.93,762,777,819,878,858,34.48275862068966,-0.283,-0.689,0.67
47034,1755584536950,16.12,-44.92,9.97,764,781,819,876,851,33.333333333333336,-0.287,-0.688,0.667
47063,1755584536980,16.1,-44.91,9.98,766,770,822,878,855,34.48275862068966,-0.287,-0.686,0.667
47093,1755584537009,16.07,-44.9,10.0,758,774,833,872,853,33.333333333333336,-0.288,-0.687,0.668
47123,1755584537039,16.13,-44.91,10.05,757,776,839,865,856,33.333333333333336,-0.282,-0.687,0.671
47152,1755584537068,16.09,-44.88,10.04,761,773,829,885,855,34.48275862068966,-0.28,-0.687,0.671
47182,1755584537098,16.06,-44.87,10.04,763,773,829,873,857,33.333333333333336,-0.28,-0.686,0.67
47211,1755584537127,16.13,-44.91,10.05,768,780,840,887,857,34.48275862068966,-0.282,-0.686,0.671
47240,1755584537157,16.1,-44.89,10.05,762,779,831,875,856,34.48275862068966,-0.285,-0.685,0.669
47270,1755584537186,16.09,-44.91,10.07,760,780,822,870,850,33.333333333333336,-0.284,-0.686,0.67
47299,1755584537216,16.13,-44.92,10.09,758,776,823,875,848,34.48275862068966,-0.279,-0.687,0.673
47329,1755584537245,16.09,-44.88,10.06,761,773,831,870,851,33.333333333333336,-0.28,-0.688,0.672
47358,1755584537275,16.11,-44.88,10.07,768,770,808,881,862,34.48275862068966,-0.285,-0.688,0.668
47388,1755584537304,16.15,-44.88,10.1,761,772,835,877,850,33.333333333333336,-0.285,-0.686,0.669
47417,1755584537333,16.14,-44.85,10.11,762,767,833,872,855,34.48275862068966,-0.282,-0.685,0.673
47447,1755584537363,16.16,-44.83,10.1,766,764,833,878,857,33.333333333333336,-0.282,-0.688,0.672
47476,1755584537393,16.18,-44.85,10.1,767,777,831,874,864,34.48275862068966,-0.284,-0.688,0.668
47506,1755584537422,16.2,-44.85,10.1,768,773,833,879,859,33.333333333333336,-0.285,-0.685,0.669
47535,1755584537452,16.17,-44.86,10.08,764,773,834,876,853,34.48275862068966,-0.288,-0.684,0.668
47565,1755584537481,16.17,-44.91,10.1,768,765,837,869,857,33.333333333333336,-0.289,-0.685,0.665
47595,1755584537511,16.16,-44.95,10.14,762,768,812,876,858,33.333333333333336,-0.284,-0.687,0.668
47624,1755584537540,16.16,-44.95,10.14,764,768,826,875,853,34.48275862068966,-0.279,-0.687,0.673
47654,1755584537570,16.12,-44.89,10.09,760,773,826,873,849,33.333333333333336,-0.281,-0.687,0.674
47683,1755584537599,16.14,-44.89,10.1,762,777,826,867,852,34.48275862068966,-0.287,-0.689,0.67
47713,1755584537629,16.18,-44.9,10.15,761,766,832,875,866,33.333333333333336,-0.285,-0.686,0.666
47742,1755584537658,16.18,-44.92,10.14,759,771,824,868,855,34.48275862068966,-0.282,-0.688,0.669
47772,1755584537688,16.15,-44.93,10.12,767,774,827,885,854,33.333333333333336,-0.28,-0.687,0.67
47801,1755584537717,16.18,-44.97,10.1,768,771,817,876,852,34.48275862068966,-0.283,-0.686,0.67
47831,1755584537747,16.21,-44.98,10.13,765,769,828,873,859,33.333333333333336,-0.287,-0.69,0.672
47860,1755584537776,16.25,-44.95,10.17,756,772,829,874,844,34.48275862068966,-0.288,-0.691,0.672
47889,1755584537806,16.24,-44.94,10.18,751,771,826,873,854,34.48275862068966,-0.287,-0.69,0.667
47919,1755584537835,16.22,-44.96,10.2,762,773,831,877,861,33.333333333333336,-0.286,-0.688,0.666
47948,1755584537865,16.22,-44.98,10.2,762,762,840,873,866,34.48275862068966,-0.284,-0.688,0.671
47978,1755584537894,16.19,-44.97,10.2,760,778,830,880,852,33.333333333333336,-0.287,-0.688,0.672
48008,1755584537924,16.18,-44.95,10.23,761,771,825,876,871,33.333333333333336,-0.286,-0.687,0.669
48037,1755584537953,16.25,-44.97,10.28,766,769,828,862,858,34.48275862068966,-0.282,-0.688,0.671
48067,1755584537983,16.2,-44.93,10.27,764,778,826,868,864,33.333333333333336,-0.279,-0.687,0.669
48096,1755584538013,16.21,-44.95,10.26,766,761,856,881,854,34.48275862068966,-0.28,-0.688,0.668
48126,1755584538042,16.24,-44.96,10.28,761,782,832,875,849,33.333333333333336,-0.282,-0.69,0.671
48155,1755584538071,16.23,-44.92,10.3,762,778,819,871,860,34.48275862068966,-0.287,-0.689,0.67
48185,1755584538101,16.24,-44.92,10.32,767,796,837,874,851,33.333333333333336,-0.286,-0.685,0.668
48214,1755584538130,16.27,-44.96,10.32,758,774,827,870,865,34.48275862068966,-0.284,-0.686,0.666
48244,1755584538160,16.29,-45.0,10.35,767,765,816,867,858,33.333333333333336,-0.285,-0.69,0.667
48273,1755584538190,16.31,-44.98,10.37,764,784,825,878,853,34.48275862068966,-0.283,-0.69,0.67
48303,1755584538219,16.3,-44.94,10.39,762,772,829,878,859,33.333333333333336,-0.283,-0.69,0.669
48332,1755584538249,16.33,-44.94,10.41,755,772,831,878,859,34.48275862068966,-0.285,-0.688,0.668
48362,1755584538279,16.33,-44.93,10.42,766,777,831,878,864,33.333333333333336,-0.285,-0.688,0.668
48392,1755584538308,16.28,-44.93,10.88,763,779,833,869,855,33.333333333333336,-0.285,-0.688,0.668
48422,1755584538338,16.31,-44.95,10.91,762,774,831,874,874,33.333333333333336,-0.285,-0.688,0.669
48451,1755584538369,16.31,-44.96,10.91,766,770,826,870,868,34.48275862068966,-0.286,-0.688,0.669
48481,1755584538397,16.31,-44.95,10.93,766,764,832,882,862,33.333333333333336,-0.287,-0.688,0.67
48510,1755584538427,16.32,-44.94,10.94,760,775,823,879,848,34.48275862068966,-0.285,-0.688,0.669
48540,1755584538456,16.32,-44.95,10.94,767,767,830,876,853,33.333333333333336,-0.285,-0.689,0.669
48569,1755584538486,16.32,-44.93,10.92,757,770,813,870,851,34.48275862068966,-0.286,-0.688,0.67
48599,1755584538515,16.31,-44.91,10.9,759,768,840,872,864,33.333333333333336,-0.289,-0.689,0.667
48628,1755584538545,16.29,-44.93,10.93,761,776,820,874,853,34.48275862068966,-0.289,-0.688,0.666
48658,1755584538574,16.32,-44.92,10.97,767,770,838,878,855,33.333333333333336,-0.285,-0.687,0.671
48687,1755584538603,16.32,-44.9,10.95,758,777,818,876,849,34.48275862068966,-0.282,-0.687,0.672
48717,1755584538633,16.29,-44.88,10.91,758,777,829,885,855,33.333333333333336,-0.284,-0.687,0.67
48746,1755584538663,16.27,-44.88,10.9,754,768,836,870,852,34.48275862068966,-0.288,-0.687,0.668
48776,1755584538692,16.32,-44.91,10.95,770,769,833,874,845,33.333333333333336,-0.288,-0.686,0.668
48805,1755584538722,16.31,-44.95,10.94,764,777,831,875,852,34.48275862068966,-0.286,-0.692,0.671
48835,1755584538751,16.28,-44.91,10.95,758,772,823,873,857,33.333333333333336,-0.286,-0.693,0.671
48865,1755584538781,16.32,-44.89,11.01,765,779,836,882,891,33.333333333333336,-0.289,-0.694,0.67
48894,1755584538810,16.3,-44.86,11.06,765,781,842,874,854,34.48275862068966,-0.288,-0.691,0.668
48924,1755584538840,16.29,-44.87,11.08,765,777,830,875,854,33.333333333333336,-0.287,-0.69,0.67
48953,1755584538869,16.28,-44.86,11.09,772,768,822,894,852,34.48275862068966,-0.286,-0.689,0.672
48983,1755584538899,16.28,-44.82,11.12,754,781,825,867,871,33.333333333333336,-0.286,-0.688,0.673
49012,1755584538928,16.27,-44.78,11.14,757,782,833,869,872,34.48275862068966,-0.287,-0.686,0.671
49041,1755584538958,16.27,-44.79,11.16,763,771,830,885,843,34.48275862068966,-0.288,-0.685,0.671
49071,1755584538987,16.28,-44.77,11.18,764,760,831,872,856,33.333333333333336,-0.288,-0.685,0.674
49101,1755584539017,16.3,-44.74,11.2,762,767,810,876,854,33.333333333333336,-0.289,-0.685,0.674
49130,1755584539047,16.3,-44.71,11.23,765,781,839,858,860,34.48275862068966,-0.289,-0.685,0.672
49160,1755584539077,16.28,-44.69,11.25,767,775,823,875,861,33.333333333333336,-0.286,-0.682,0.675
49190,1755584539106,16.29,-44.67,11.24,764,774,831,879,862,33.333333333333336,-0.283,-0.681,0.676
49219,1755584539136,16.27,-44.66,11.22,759,777,829,877,850,34.48275862068966,-0.284,-0.681,0.674
49249,1755584539165,16.28,-44.67,11.22,766,769,834,865,865,33.333333333333336,-0.286,-0.681,0.673
49278,1755584539195,16.31,-44.67,11.25,768,772,819,865,859,34.48275862068966,-0.288,-0.683,0.674
49308,1755584539224,16.3,-44.64,11.27,765,776,827,871,856,33.333333333333336,-0.287,-0.682,0.673
49337,1755584539253,16.33,-44.64,11.28,760,768,838,879,848,34.48275862068966,-0.286,-0.682,0.677
49367,1755584539284,16.31,-44.58,11.27,761,775,822,877,859,33.333333333333336,-0.288,-0.683,0.677
49387,1755584539303,16.3,-44.56,11.27,767,767,836,880,856,50.0,-0.29,-0.684,0.673
49416,1755584539333,16.32,-44.57,11.31,757,774,833,867,857,34.48275862068966,-0.29,-0.681,0.673
49446,1755584539362,16.37,-44.55,11.33,762,767,832,874,862,33.333333333333336,-0.288,-0.682,0.674
49475,1755584539392,16.38,-44.56,11.33,761,765,830,871,865,34.48275862068966,-0.287,-0.684,0.671
49505,1755584539421,16.36,-44.59,11.33,767,776,830,865,860,33.333333333333336,-0.288,-0.683,0.668
49534,1755584539451,16.39,-44.6,11.37,758,768,837,884,858,34.48275862068966,-0.289,-0.684,0.673
49564,1755584539480,16.4,-44.55,11.39,774,772,836,870,856,33.333333333333336,-0.289,-0.684,0.677
49593,1755584539510,16.39,-44.54,11.4,762,756,836,869,859,34.48275862068966,-0.29,-0.681,0.675
49623,1755584539539,16.39,-44.55,11.41,763,766,831,876,871,33.333333333333336,-0.29,-0.682,0.673
49652,1755584539569,16.42,-44.56,11.42,760,765,806,867,846,34.48275862068966,-0.288,-0.68,0.671
49682,1755584539598,16.39,-44.55,11.42,761,772,830,878,852,33.333333333333336,-0.287,-0.682,0.674
49711,1755584539628,16.4,-44.53,11.43,765,781,819,883,854,34.48275862068966,-0.287,-0.683,0.676
49741,1755584539657,16.43,-44.5,11.45,759,776,825,872,856,33.333333333333336,-0.287,-0.681,0.674
49770,1755584539687,16.46,-44.49,11.47,767,767,819,866,860,34.48275862068966,-0.289,-0.68,0.672
49800,1755584539717,16.46,-44.47,11.48,765,778,838,871,861,33.333333333333336,-0.289,-0.68,0.672
49820,1755584539737,16.46,-44.49,11.49,763,774,830,876,846,50.0,-0.29,-0.68,0.673
49850,1755584539766,16.46,-44.51,11.5,759,774,831,863,850,33.333333333333336,-0.29,-0.681,0.674
49879,1755584539796,16.46,-44.49,11.52,760,776,824,872,893,34.48275862068966,-0.289,-0.68,0.675
49909,1755584539825,16.45,-44.48,11.51,761,769,827,877,868,33.333333333333336,-0.289,-0.681,0.675
49938,1755584539855,16.44,-44.47,11.52,767,779,830,872,858,34.48275862068966,-0.289,-0.681,0.674
49968,1755584539884,16.46,-44.5,11.53,757,780,820,867,857,33.333333333333336,-0.29,-0.68,0.674
49997,1755584539914,16.45,-44.51,11.54,758,769,818,874,849,34.48275862068966,-0.289,-0.679,0.673
50027,1755584539943,16.45,-44.5,11.54,764,771,825,873,855,33.333333333333336,-0.288,-0.678,0.675
50057,1755584539973,16.44,-44.49,11.51,760,767,829,868,854,33.333333333333336,-0.289,-0.681,0.676
50086,1755584540002,16.44,-44.47,11.52,765,773,836,859,864,34.48275862068966,-0.291,-0.682,0.674
50116,1755584540032,16.43,-44.45,11.54,759,771,821,866,860,33.333333333333336,-0.289,-0.682,0.677
50145,1755584540061,16.43,-44.42,11.55,761,767,827,873,867,34.48275862068966,-0.286,-0.681,0.676
50174,1755584540091,16.4,-44.39,11.53,758,776,830,868,857,34.48275862068966,-0.287,-0.679,0.676
50204,1755584540120,16.43,-44.38,11.55,761,766,844,866,863,33.333333333333336,-0.29,-0.682,0.676
50234,1755584540150,16.43,-44.36,11.59,764,777,829,878,850,33.333333333333336,-0.292,-0.682,0.674
50263,1755584540179,16.44,-44.38,11.62,762,770,818,878,855,34.48275862068966,-0.289,-0.681,0.676
50292,1755584540209,16.41,-44.37,11.61,759,776,834,864,850,34.48275862068966,-0.288,-0.677,0.678
50322,1755584540238,16.42,-44.37,11.62,758,790,829,876,856,33.333333333333336,-0.287,-0.675,0.674
50351,1755584540268,16.46,-44.4,11.63,762,795,830,871,855,34.48275862068966,-0.286,-0.675,0.672
50381,1755584540297,16.5,-44.46,11.63,763,775,833,876,856,33.333333333333336,-0.286,-0.676,0.674
50410,1755584540327,16.46,-44.41,11.6,762,760,830,878,854,34.48275862068966,-0.289,-0.68,0.68
50440,1755584540356,16.48,-44.37,11.61,767,777,828,889,857,33.333333333333336,-0.292,-0.682,0.678
50469,1755584540386,16.51,-44.36,11.65,761,781,833,878,853,34.48275862068966,-0.293,-0.68,0.674
50499,1755584540415,16.5,-44.37,11.66,760,773,826,879,849,33.333333333333336,-0.293,-0.679,0.673
50528,1755584540445,16.46,-44.36,11.65,763,763,809,860,849,34.48275862068966,-0.292,-0.68,0.673
50558,1755584540474,16.46,-44.38,11.67,765,776,830,880,858,33.333333333333336,-0.29,-0.678,0.673
50587,1755584540504,16.51,-44.41,11.68,766,775,830,874,856,34.48275862068966,-0.288,-0.678,0.678
50617,1755584540533,16.51,-44.37,11.68,755,769,816,877,854,33.333333333333336,-0.29,-0.679,0.679
50646,1755584540562,16.5,-44.36,11.7,765,768,846,876,848,34.48275862068966,-0.29,-0.678,0.677
50676,1755584540592,16.54,-44.38,11.72,766,789,830,877,852,33.333333333333336,-0.292,-0.68,0.677
50705,1755584540621,16.51,-44.36,11.73,766,777,820,872,859,34.48275862068966,-0.293,-0.68,0.675
50735,1755584540651,16.52,-44.35,11.77,764,770,827,876,848,33.333333333333336,-0.291,-0.68,0.674
50764,1755584540681,16.52,-44.35,11.8,764,771,830,876,854,34.48275862068966,-0.291,-0.683,0.675
50794,1755584540711,16.53,-44.33,11.84,759,771,820,873,857,33.333333333333336,-0.288,-0.681,0.677
50824,1755584540741,16.52,-44.28,11.85,765,779,824,869,859,33.333333333333336,-0.291,-0.681,0.677
50854,1755584540770,16.51,-44.28,11.88,754,766,836,875,855,33.333333333333336,-0.291,-0.679,0.673
50883,1755584540799,16.54,-44.3,11.89,766,765,834,867,857,34.48275862068966,-0.291,-0.677,0.674
50913,1755584540829,16.48,-44.27,11.89,773,770,832,877,851,33.333333333333336,-0.292,-0.678,0.673
50942,1755584540859,16.5,-44.3,11.94,763,773,822,873,858,34.48275862068966,-0.292,-0.679,0.674
50972,1755584540888,16.52,-44.29,11.98,761,782,828,875,857,33.333333333333336,-0.29,-0.677,0.678
