timestamp_ms,recv_timestamp_ms,pitch,roll,yaw,flex1,flex2,flex3,flex4,flex5,sampling_hz,accel_x,accel_y,accel_z
80714,1755587092232,60.47,-98.29,-33.64,774,768,770,750,881,50.0,-0.869,-0.488,-0.078
80743,1755587092262,60.53,-98.36,-33.65,772,774,777,748,881,34.48275862068966,-0.876,-0.488,-0.072
80773,1755587092292,60.5,-98.24,-33.65,773,774,782,753,878,33.333333333333336,-0.875,-0.487,-0.067
80793,1755587092313,60.46,-98.14,-33.63,762,772,770,755,878,50.0,-0.874,-0.49,-0.071
80814,1755587092333,60.44,-98.13,-33.62,773,767,775,753,872,47.61904761904762,-0.873,-0.495,-0.076
80844,1755587092363,60.5,-98.19,-33.62,776,782,776,752,872,33.333333333333336,-0.872,-0.495,-0.076
80865,1755587092383,60.52,-98.19,-33.61,772,765,767,752,871,47.61904761904762,-0.869,-0.491,-0.072
80895,1755587092413,60.52,-98.12,-33.62,776,775,773,751,882,33.333333333333336,-0.869,-0.488,-0.067
80924,1755587092443,60.5,-98.06,-33.61,768,773,767,749,878,34.48275862068966,-0.872,-0.49,-0.071
80954,1755587092474,60.54,-98.09,-33.6,769,775,774,746,873,33.333333333333336,-0.872,-0.491,-0.074
80975,1755587092494,60.59,-98.08,-33.6,771,774,777,748,872,47.61904761904762,-0.872,-0.49,-0.07
80995,1755587092514,60.63,-98.0,-33.58,764,772,772,750,874,50.0,-0.87,-0.489,-0.068
81025,1755587092544,60.63,-97.97,-33.58,772,776,778,753,887,33.333333333333336,-0.871,-0.488,-0.071
81045,1755587092563,60.63,-98.02,-33.6,770,772,771,755,870,50.0,-0.87,-0.489,-0.076
81075,1755587092594,60.66,-98.11,-33.62,770,775,778,752,886,33.333333333333336,-0.873,-0.492,-0.076
81095,1755587092614,60.65,-98.12,-33.6,769,775,775,752,884,50.0,-0.872,-0.493,-0.073
81125,1755587092644,60.63,-98.11,-33.58,762,767,774,734,880,33.333333333333336,-0.871,-0.492,-0.071
81145,1755587092664,60.61,-98.15,-33.59,778,770,771,746,877,50.0,-0.87,-0.491,-0.071
81175,1755587092694,60.6,-98.15,-33.59,768,776,772,756,889,33.333333333333336,-0.87,-0.489,-0.066
81205,1755587092724,60.55,-98.08,-33.6,769,770,767,746,885,33.333333333333336,-0.871,-0.487,-0.065
81235,1755587092753,60.53,-98.06,-33.62,771,766,772,749,883,33.333333333333336,-0.874,-0.489,-0.07
81265,1755587092783,60.58,-98.15,-33.68,769,778,775,752,879,33.333333333333336,-0.874,-0.489,-0.067
81294,1755587092813,60.58,-98.0,-33.81,771,784,781,752,870,34.48275862068966,-0.871,-0.489,-0.063
81324,1755587092843,60.55,-97.78,-33.85,770,776,775,747,869,33.333333333333336,-0.869,-0.491,-0.063
81354,1755587092873,60.55,-97.87,-33.85,767,775,773,749,875,33.333333333333336,-0.871,-0.493,-0.071
81375,1755587092894,60.58,-98.03,-33.88,775,765,772,752,862,47.61904761904762,-0.872,-0.498,-0.076
81395,1755587092914,60.62,-98.14,-33.87,772,769,774,748,874,50.0,-0.874,-0.496,-0.075
81425,1755587092943,60.61,-98.12,-33.84,771,774,772,746,892,33.333333333333336,-0.87,-0.494,-0.071
81455,1755587092973,60.6,-98.16,-33.85,758,771,772,751,879,33.333333333333336,-0.868,-0.495,-0.074
81484,1755587093003,60.6,-98.26,-33.85,772,778,782,750,888,34.48275862068966,-0.867,-0.494,-0.074
81514,1755587093033,60.56,-98.29,-33.85,769,769,774,751,877,33.333333333333336,-0.868,-0.495,-0.072
81544,1755587093063,60.54,-98.33,-33.85,766,773,780,749,877,33.333333333333336,-0.869,-0.496,-0.073
81574,1755587093093,60.54,-98.47,-33.87,764,775,771,749,884,33.333333333333336,-0.868,-0.496,-0.075
81594,1755587093113,60.52,-98.52,-33.88,773,769,774,752,859,50.0,-0.867,-0.495,-0.075
81624,1755587093143,60.52,-98.63,-33.92,765,771,777,747,882,33.333333333333336,-0.864,-0.492,-0.074
81654,1755587093173,60.54,-98.68,-33.99,768,766,770,743,885,33.333333333333336,-0.864,-0.492,-0.073
81674,1755587093193,60.53,-98.7,-34.03,769,771,773,748,890,50.0,-0.865,-0.495,-0.074
81704,1755587093223,60.48,-98.72,-34.05,774,781,775,751,876,33.333333333333336,-0.865,-0.499,-0.078
81734,1755587093253,60.44,-98.79,-34.04,767,773,768,744,883,33.333333333333336,-0.866,-0.5,-0.079
81764,1755587093283,60.41,-98.8,-34.04,781,771,776,746,879,33.333333333333336,-0.866,-0.498,-0.073
81794,1755587093312,60.38,-98.72,-34.04,774,777,773,752,894,33.333333333333336,-0.865,-0.497,-0.072
81824,1755587093342,60.34,-98.69,-34.04,764,774,779,749,886,33.333333333333336,-0.869,-0.499,-0.074
81854,1755587093372,60.38,-98.72,-34.05,770,770,776,754,873,33.333333333333336,-0.868,-0.499,-0.075
81883,1755587093402,60.37,-98.71,-34.06,768,770,771,747,880,34.48275862068966,-0.865,-0.497,-0.075
81903,1755587093422,60.35,-98.65,-34.07,768,761,786,747,878,50.0,-0.866,-0.496,-0.074
81933,1755587093452,60.34,-98.65,-34.08,771,774,773,747,885,33.333333333333336,-0.867,-0.498,-0.077
81963,1755587093482,60.29,-98.7,-34.08,768,773,773,744,883,33.333333333333336,-0.869,-0.501,-0.076
81993,1755587093512,60.34,-98.65,-34.04,765,776,767,748,877,33.333333333333336,-0.868,-0.501,-0.074
82023,1755587093542,60.34,-98.6,-34.03,773,771,769,751,884,33.333333333333336,-0.866,-0.498,-0.074
82043,1755587093562,60.3,-98.6,-34.02,769,775,771,748,873,50.0,-0.864,-0.498,-0.077
82073,1755587093592,60.28,-98.59,-34.03,763,765,771,745,874,33.333333333333336,-0.863,-0.498,-0.079
82103,1755587093621,60.31,-98.59,-34.03,768,768,763,751,876,33.333333333333336,-0.865,-0.498,-0.078
82133,1755587093652,60.25,-98.58,-34.02,768,776,772,746,879,33.333333333333336,-0.863,-0.499,-0.08
82163,1755587093681,60.25,-98.62,-34.02,766,770,774,751,887,33.333333333333336,-0.863,-0.5,-0.081
82192,1755587093711,60.18,-98.64,-34.01,766,768,776,748,897,34.48275862068966,-0.864,-0.499,-0.08
82222,1755587093741,60.13,-98.64,-34.05,763,779,769,747,880,33.333333333333336,-0.863,-0.497,-0.073
82252,1755587093771,60.15,-98.6,-34.07,769,765,775,750,872,33.333333333333336,-0.864,-0.498,-0.073
82282,1755587093801,60.16,-98.54,-34.05,766,772,775,752,890,33.333333333333336,-0.867,-0.499,-0.074
82312,1755587093831,60.17,-98.57,-34.06,769,771,768,750,880,33.333333333333336,-0.863,-0.499,-0.075
82332,1755587093851,60.18,-98.58,-34.06,768,764,779,749,879,50.0,-0.863,-0.501,-0.077
82362,1755587093881,60.16,-98.58,-34.07,777,784,779,747,890,33.333333333333336,-0.862,-0.5,-0.078
82392,1755587093911,60.14,-98.56,-34.09,768,778,770,751,883,33.333333333333336,-0.865,-0.499,-0.077
82422,1755587093941,60.1,-98.59,-34.1,773,778,769,747,873,33.333333333333336,-0.865,-0.5,-0.078
82452,1755587093970,60.08,-98.61,-34.09,769,772,775,743,883,33.333333333333336,-0.865,-0.501,-0.078
82482,1755587094001,60.08,-98.69,-34.12,770,770,769,745,884,33.333333333333336,-0.864,-0.5,-0.078
82502,1755587094021,60.07,-98.69,-34.13,773,765,771,755,875,50.0,-0.865,-0.497,-0.074
82522,1755587094041,60.06,-98.72,-34.15,772,771,778,745,881,50.0,-0.863,-0.497,-0.075
82542,1755587094061,60.04,-98.75,-34.18,768,781,774,742,890,50.0,-0.863,-0.497,-0.077
82562,1755587094081,60.02,-98.75,-34.21,767,773,778,745,880,50.0,-0.862,-0.496,-0.075
82592,1755587094111,59.98,-98.73,-34.25,773,774,767,749,880,33.333333333333336,-0.864,-0.5,-0.071
82622,1755587094141,59.89,-98.7,-34.27,769,775,777,748,873,33.333333333333336,-0.864,-0.503,-0.073
82642,1755587094161,59.89,-98.75,-34.29,773,779,775,737,870,50.0,-0.864,-0.505,-0.074
82672,1755587094191,59.9,-98.85,-34.32,772,766,775,750,886,33.333333333333336,-0.862,-0.503,-0.071
82702,1755587094221,59.83,-98.73,-34.32,776,764,767,743,882,33.333333333333336,-0.863,-0.503,-0.071
82732,1755587094251,59.89,-98.75,-34.32,765,764,776,751,886,33.333333333333336,-0.867,-0.504,-0.073
82752,1755587094270,59.9,-98.74,-34.3,771,774,777,746,875,50.0,-0.868,-0.505,-0.073
82782,1755587094301,59.92,-98.69,-34.27,774,775,779,748,879,33.333333333333336,-0.867,-0.505,-0.072
82802,1755587094321,59.94,-98.66,-34.26,774,776,771,756,875,50.0,-0.863,-0.503,-0.07
82832,1755587094350,59.94,-98.57,-34.27,776,772,768,748,874,33.333333333333336,-0.862,-0.503,-0.069
82862,1755587094380,59.92,-98.53,-34.25,774,765,771,741,884,33.333333333333336,-0.862,-0.505,-0.077
82891,1755587094410,60.01,-98.58,-34.24,769,768,767,750,879,34.48275862068966,-0.865,-0.504,-0.078
82921,1755587094440,59.99,-98.54,-34.23,765,768,771,746,887,33.333333333333336,-0.86,-0.5,-0.074
82951,1755587094470,59.97,-98.44,-34.24,769,773,769,744,885,33.333333333333336,-0.86,-0.504,-0.078
82981,1755587094500,59.93,-98.51,-34.26,775,766,774,755,877,33.333333333333336,-0.863,-0.505,-0.083
83011,1755587094530,59.94,-98.63,-34.3,769,771,768,750,883,33.333333333333336,-0.862,-0.504,-0.082
83031,1755587094550,59.91,-98.66,-34.32,768,771,770,750,879,50.0,-0.861,-0.503,-0.079
83061,1755587094580,59.83,-98.62,-34.35,773,767,765,740,880,33.333333333333336,-0.857,-0.503,-0.079
83091,1755587094609,59.84,-98.68,-34.43,766,767,773,747,876,33.333333333333336,-0.861,-0.505,-0.079
83121,1755587094640,59.8,-98.76,-34.46,763,794,775,742,879,33.333333333333336,-0.867,-0.508,-0.073
83141,1755587094659,59.78,-98.73,-34.44,773,785,766,748,883,50.0,-0.869,-0.509,-0.067
83171,1755587094689,59.85,-98.6,-34.4,770,767,758,752,874,33.333333333333336,-0.865,-0.507,-0.063
83200,1755587094719,59.86,-98.5,-34.39,770,776,772,743,867,34.48275862068966,-0.862,-0.507,-0.065
83230,1755587094749,59.82,-98.44,-34.37,770,776,774,752,882,33.333333333333336,-0.86,-0.507,-0.074
83260,1755587094779,59.86,-98.42,-34.37,768,761,768,749,867,33.333333333333336,-0.863,-0.506,-0.077
83290,1755587094809,59.87,-98.44,-34.36,772,772,773,750,876,33.333333333333336,-0.863,-0.505,-0.076
83310,1755587094829,59.89,-98.44,-34.36,772,773,765,743,876,50.0,-0.863,-0.505,-0.075
83340,1755587094859,59.89,-98.4,-34.36,766,775,771,753,900,33.333333333333336,-0.861,-0.504,-0.072
83360,1755587094879,59.84,-98.36,-34.35,767,766,775,746,880,50.0,-0.86,-0.505,-0.071
83390,1755587094909,59.85,-98.33,-34.33,778,766,762,744,877,33.333333333333336,-0.863,-0.505,-0.072
83420,1755587094939,59.86,-98.33,-34.33,775,773,767,745,865,33.333333333333336,-0.862,-0.505,-0.075
83450,1755587094969,59.85,-98.33,-34.33,769,771,771,746,878,33.333333333333336,-0.861,-0.505,-0.075
83480,1755587094999,59.83,-98.3,-34.32,770,776,770,747,873,33.333333333333336,-0.862,-0.505,-0.074
83510,1755587095028,59.79,-98.31,-34.33,770,773,771,746,882,33.333333333333336,-0.861,-0.505,-0.073
83540,1755587095058,59.82,-98.31,-34.33,768,770,778,749,884,33.333333333333336,-0.861,-0.504,-0.073
83569,1755587095088,59.8,-98.3,-34.33,774,772,772,751,887,34.48275862068966,-0.861,-0.503,-0.07
83599,1755587095118,59.73,-98.19,-34.33,767,769,766,746,884,33.333333333333336,-0.86,-0.504,-0.071
83629,1755587095148,59.77,-98.2,-34.34,772,775,769,743,874,33.333333333333336,-0.862,-0.506,-0.076
83659,1755587095178,59.8,-98.28,-34.37,766,762,777,748,875,33.333333333333336,-0.863,-0.506,-0.074
83689,1755587095208,59.79,-98.27,-34.39,776,769,778,749,884,33.333333333333336,-0.859,-0.505,-0.073
83719,1755587095238,59.83,-98.21,-34.4,770,770,768,743,865,33.333333333333336,-0.863,-0.505,-0.071
83739,1755587095258,59.79,-98.19,-34.41,769,771,768,750,867,50.0,-0.861,-0.504,-0.072
83769,1755587095288,59.79,-98.26,-34.45,770,770,784,754,875,33.333333333333336,-0.862,-0.504,-0.074
83799,1755587095318,59.82,-98.24,-34.47,768,769,771,750,882,33.333333333333336,-0.861,-0.504,-0.071
83829,1755587095348,59.82,-98.15,-34.5,772,775,771,749,877,33.333333333333336,-0.861,-0.503,-0.069
83859,1755587095378,59.79,-98.07,-34.52,762,759,765,751,895,33.333333333333336,-0.862,-0.506,-0.07
83879,1755587095398,59.76,-98.04,-34.51,758,770,771,754,874,50.0,-0.863,-0.509,-0.074
83909,1755587095429,59.76,-98.13,-34.54,769,769,772,750,876,33.333333333333336,-0.861,-0.509,-0.076
83930,1755587095448,59.75,-98.16,-34.57,765,769,770,749,879,47.61904761904762,-0.859,-0.508,-0.076
83960,1755587095478,59.7,-98.1,-34.6,770,773,766,743,868,33.333333333333336,-0.858,-0.507,-0.076
83989,1755587095509,59.64,-98.05,-34.62,779,766,768,752,875,34.48275862068966,-0.86,-0.512,-0.078
84010,1755587095529,59.64,-98.05,-34.62,775,773,771,750,876,47.61904761904762,-0.863,-0.514,-0.079
84031,1755587095549,59.67,-98.07,-34.62,777,773,777,750,866,47.61904761904762,-0.863,-0.514,-0.075
84060,1755587095579,59.71,-98.03,-34.6,768,781,777,753,879,34.48275862068966,-0.86,-0.514,-0.074
84090,1755587095609,59.69,-98.0,-34.57,757,774,771,752,884,33.333333333333336,-0.861,-0.512,-0.077
84110,1755587095629,59.66,-98.02,-34.56,774,770,771,738,883,50.0,-0.862,-0.511,-0.078
84140,1755587095659,59.6,-98.01,-34.53,770,774,764,747,871,33.333333333333336,-0.863,-0.511,-0.077
84161,1755587095679,59.56,-98.01,-34.5,767,767,773,746,880,47.61904761904762,-0.863,-0.512,-0.079
84190,1755587095710,59.49,-98.08,-34.47,768,775,772,755,880,34.48275862068966,-0.862,-0.508,-0.074
84211,1755587095729,59.41,-98.08,-34.42,771,769,770,744,878,47.61904761904762,-0.862,-0.505,-0.068
84241,1755587095760,59.21,-98.04,-34.4,775,769,770,743,885,33.333333333333336,-0.86,-0.504,-0.067
84261,1755587095780,59.13,-98.05,-34.4,770,769,776,751,880,50.0,-0.854,-0.499,-0.066
84281,1755587095800,59.14,-98.12,-34.44,775,774,771,751,876,50.0,-0.855,-0.498,-0.062
84311,1755587095830,59.11,-98.03,-34.48,767,767,776,753,881,33.333333333333336,-0.86,-0.503,-0.068
84341,1755587095860,59.14,-98.04,-34.5,773,768,767,747,877,33.333333333333336,-0.862,-0.51,-0.074
84371,1755587095890,59.19,-98.15,-34.5,770,776,773,748,874,33.333333333333336,-0.864,-0.513,-0.075
84401,1755587095919,59.29,-98.26,-34.44,767,780,777,752,875,33.333333333333336,-0.863,-0.521,-0.071
84430,1755587095950,59.42,-98.31,-34.35,773,770,777,750,884,34.48275862068966,-0.858,-0.52,-0.067
84451,1755587095969,59.53,-98.34,-34.3,771,767,777,752,883,47.61904761904762,-0.859,-0.513,-0.069
84481,1755587095999,59.6,-98.42,-34.28,772,772,772,752,880,33.333333333333336,-0.86,-0.502,-0.07
84510,1755587096029,59.58,-98.41,-34.3,771,763,773,745,884,34.48275862068966,-0.857,-0.499,-0.073
84540,1755587096059,59.69,-98.53,-34.33,768,766,769,749,882,33.333333333333336,-0.859,-0.503,-0.075
84570,1755587096089,59.8,-98.62,-34.37,765,764,774,746,878,33.333333333333336,-0.86,-0.506,-0.068
84600,1755587096119,59.79,-98.54,-34.37,768,775,772,748,871,33.333333333333336,-0.858,-0.508,-0.069
84630,1755587096149,59.85,-98.51,-34.39,767,770,766,751,869,33.333333333333336,-0.859,-0.505,-0.072
84650,1755587096170,59.88,-98.51,-34.41,769,774,773,751,878,50.0,-0.858,-0.504,-0.074
84671,1755587096190,59.88,-98.53,-34.43,770,777,767,740,876,47.61904761904762,-0.861,-0.503,-0.076
84701,1755587096220,59.88,-98.54,-34.48,768,770,778,749,888,33.333333333333336,-0.861,-0.504,-0.077
84721,1755587096239,59.86,-98.52,-34.49,780,773,776,748,891,50.0,-0.859,-0.504,-0.08
84751,1755587096269,59.86,-98.56,-34.53,770,774,770,741,881,33.333333333333336,-0.86,-0.505,-0.083
84781,1755587096299,59.75,-98.53,-34.57,771,778,772,752,876,33.333333333333336,-0.858,-0.507,-0.081
84810,1755587096329,59.76,-98.54,-34.61,775,779,771,746,867,34.48275862068966,-0.868,-0.509,-0.081
84840,1755587096359,59.75,-98.52,-34.17,770,772,770,753,876,33.333333333333336,-0.867,-0.508,-0.086
84861,1755587096379,59.73,-98.52,-34.17,765,779,770,750,860,47.61904761904762,-0.865,-0.509,-0.093
84890,1755587096409,59.7,-98.6,-34.19,768,764,763,750,886,34.48275862068966,-0.864,-0.507,-0.096
84920,1755587096439,59.55,-98.62,-34.22,767,764,775,750,877,33.333333333333336,-0.859,-0.51,-0.092
84950,1755587096469,59.46,-98.62,-34.24,775,770,768,752,878,33.333333333333336,-0.858,-0.511,-0.082
84980,1755587096499,59.39,-98.54,-34.26,783,779,773,749,870,33.333333333333336,-0.861,-0.509,-0.074
85000,1755587096519,59.34,-98.47,-34.27,768,772,773,751,870,50.0,-0.864,-0.512,-0.071
85030,1755587096549,59.4,-98.39,-34.23,770,775,771,751,877,33.333333333333336,-0.865,-0.513,-0.076
85060,1755587096579,59.39,-98.35,-34.18,770,777,771,749,877,33.333333333333336,-0.864,-0.512,-0.079
85090,1755587096609,59.39,-98.37,-34.18,772,770,772,753,869,33.333333333333336,-0.858,-0.513,-0.079
85120,1755587096639,59.41,-98.39,-34.2,772,780,777,751,885,33.333333333333336,-0.859,-0.512,-0.08
85150,1755587096668,59.35,-98.42,-34.19,766,782,771,751,866,33.333333333333336,-0.861,-0.514,-0.081
85179,1755587096698,59.35,-98.48,-34.19,781,768,774,742,876,34.48275862068966,-0.859,-0.513,-0.077
85209,1755587096728,59.42,-98.47,-34.2,772,776,768,750,876,33.333333333333336,-0.857,-0.51,-0.074
85239,1755587096758,59.39,-98.38,-34.2,769,775,769,751,875,33.333333333333336,-0.859,-0.512,-0.079
85259,1755587096778,59.34,-98.39,-34.2,764,774,775,755,874,50.0,-0.857,-0.512,-0.087
85289,1755587096808,59.38,-98.58,-34.28,764,766,771,747,878,33.333333333333336,-0.855,-0.51,-0.083
85319,1755587096838,59.3,-98.49,-34.3,766,763,762,751,874,33.333333333333336,-0.857,-0.511,-0.074
85349,1755587096868,59.25,-98.42,-34.31,767,770,768,744,882,33.333333333333336,-0.855,-0.512,-0.074
85379,1755587096899,59.34,-98.49,-34.34,771,774,774,754,874,33.333333333333336,-0.858,-0.514,-0.075
85400,1755587096918,59.33,-98.49,-34.33,771,773,781,752,888,47.61904761904762,-0.859,-0.514,-0.075
85430,1755587096949,59.26,-98.38,-34.31,765,770,766,752,868,33.333333333333336,-0.857,-0.513,-0.073
85450,1755587096969,59.23,-98.31,-34.3,769,774,776,753,862,50.0,-0.857,-0.513,-0.075
85480,1755587096999,59.36,-98.36,-34.29,769,766,775,746,871,33.333333333333336,-0.861,-0.513,-0.078
85500,1755587097018,59.48,-98.42,-34.27,774,775,774,751,873,50.0,-0.861,-0.513,-0.079
85530,1755587097049,59.62,-98.56,-34.27,771,766,774,765,876,33.333333333333336,-0.857,-0.512,-0.076
85550,1755587097068,59.73,-98.61,-34.28,767,771,768,747,877,50.0,-0.853,-0.51,-0.072
85579,1755587097098,59.88,-98.52,-34.28,766,767,764,742,879,34.48275862068966,-0.858,-0.514,-0.071
85609,1755587097129,59.77,-98.33,-34.21,769,768,765,740,886,33.333333333333336,-0.857,-0.516,-0.081
85630,1755587097149,59.72,-98.34,-34.18,773,776,776,754,875,47.61904761904762,-0.854,-0.516,-0.09
85660,1755587097179,59.75,-98.46,-34.19,769,774,767,752,887,33.333333333333336,-0.852,-0.511,-0.089
85690,1755587097209,59.67,-98.44,-34.2,757,779,771,748,898,33.333333333333336,-0.852,-0.508,-0.087
85720,1755587097239,59.66,-98.45,-34.24,765,777,767,749,874,33.333333333333336,-0.855,-0.508,-0.087
85750,1755587097269,59.66,-98.5,-34.25,765,772,778,747,869,33.333333333333336,-0.859,-0.51,-0.089
85770,1755587097289,59.66,-98.55,-34.26,771,772,774,750,872,50.0,-0.859,-0.51,-0.09
85790,1755587097309,59.65,-98.63,-34.28,772,767,771,751,859,50.0,-0.856,-0.509,-0.086
85820,1755587097339,59.58,-98.49,-34.29,761,774,791,755,877,33.333333333333336,-0.853,-0.51,-0.083
85850,1755587097369,59.57,-98.47,-34.3,777,768,776,753,874,33.333333333333336,-0.856,-0.514,-0.088
85870,1755587097389,59.54,-98.51,-34.3,770,784,760,745,874,50.0,-0.858,-0.514,-0.089
85900,1755587097419,59.52,-98.52,-34.3,770,774,776,755,904,33.333333333333336,-0.856,-0.512,-0.087
85930,1755587097449,59.57,-98.52,-34.3,766,774,774,750,885,33.333333333333336,-0.857,-0.514,-0.091
85960,1755587097479,59.59,-98.54,-34.3,766,767,772,750,864,33.333333333333336,-0.857,-0.514,-0.09
85990,1755587097508,59.53,-98.53,-34.3,756,767,773,751,868,33.333333333333336,-0.855,-0.513,-0.086
86019,1755587097538,59.52,-98.52,-34.31,772,776,772,746,895,34.48275862068966,-0.855,-0.514,-0.087
86049,1755587097568,59.51,-98.48,-34.32,771,775,766,751,871,33.333333333333336,-0.856,-0.514,-0.086
86069,1755587097588,59.46,-98.47,-34.32,772,776,771,740,876,50.0,-0.855,-0.513,-0.088
86099,1755587097618,59.44,-98.5,-34.33,768,771,776,749,876,33.333333333333336,-0.854,-0.515,-0.087
86119,1755587097638,59.44,-98.5,-34.34,772,771,781,752,883,50.0,-0.855,-0.515,-0.085
86139,1755587097658,59.43,-98.51,-34.34,763,763,772,750,871,50.0,-0.855,-0.514,-0.085
86169,1755587097688,59.4,-98.55,-34.36,771,772,769,753,869,33.333333333333336,-0.854,-0.516,-0.087
86199,1755587097718,59.41,-98.55,-34.83,765,776,773,746,893,33.333333333333336,-0.854,-0.514,-0.087
86219,1755587097738,59.37,-98.56,-34.84,764,770,771,749,877,50.0,-0.853,-0.514,-0.087
86239,1755587097758,59.35,-98.56,-34.86,766,771,772,752,872,50.0,-0.854,-0.516,-0.088
86269,1755587097788,59.37,-98.57,-34.85,769,770,766,744,880,33.333333333333336,-0.857,-0.518,-0.089
86299,1755587097819,59.31,-98.59,-34.83,769,773,769,749,875,33.333333333333336,-0.855,-0.519,-0.087
86320,1755587097839,59.29,-98.59,-34.81,772,768,780,755,883,47.61904761904762,-0.853,-0.519,-0.086
86350,1755587097868,59.37,-98.63,-34.81,771,770,772,749,877,33.333333333333336,-0.852,-0.516,-0.084
86380,1755587097899,59.49,-98.62,-34.83,772,774,763,751,871,33.333333333333336,-0.855,-0.515,-0.084
86400,1755587097919,59.5,-98.61,-34.83,767,767,772,755,881,50.0,-0.855,-0.515,-0.085
86420,1755587097939,59.49,-98.6,-34.85,766,768,773,752,875,50.0,-0.854,-0.514,-0.083
86450,1755587097969,59.53,-98.58,-34.87,771,776,776,753,876,33.333333333333336,-0.854,-0.515,-0.081
86480,1755587097999,59.55,-98.5,-34.88,766,779,773,746,890,33.333333333333336,-0.854,-0.518,-0.082
86500,1755587098019,59.58,-98.44,-34.86,762,775,774,753,885,50.0,-0.86,-0.519,-0.083
86520,1755587098039,59.6,-98.43,-34.83,756,768,771,749,880,50.0,-0.857,-0.517,-0.084
86550,1755587098069,59.59,-98.41,-34.8,769,774,773,756,874,33.333333333333336,-0.855,-0.517,-0.086
86570,1755587098089,59.58,-98.43,-34.81,769,770,767,753,876,50.0,-0.852,-0.517,-0.091
86600,1755587098120,59.63,-98.34,-34.8,771,776,763,752,891,33.333333333333336,-0.854,-0.516,-0.089
86621,1755587098140,59.61,-98.3,-34.79,769,768,764,744,871,47.61904761904762,-0.852,-0.514,-0.088
86651,1755587098170,59.52,-98.4,-34.81,772,771,774,760,860,33.333333333333336,-0.849,-0.517,-0.095
86681,1755587098199,59.53,-98.48,-34.81,768,771,771,751,869,33.333333333333336,-0.852,-0.516,-0.091
86711,1755587098229,59.45,-98.03,-34.82,770,767,786,748,879,33.333333333333336,-0.851,-0.512,-0.082
86740,1755587098259,59.43,-97.98,-34.84,772,768,780,747,882,34.48275862068966,-0.852,-0.516,-0.084
86770,1755587098289,59.43,-98.02,-34.82,768,757,770,747,868,33.333333333333336,-0.853,-0.518,-0.09
86800,1755587098319,59.39,-98.16,-34.82,776,764,773,751,877,33.333333333333336,-0.852,-0.516,-0.089
86820,1755587098339,59.34,-98.22,-34.83,767,773,768,746,867,50.0,-0.85,-0.514,-0.086
86850,1755587098369,59.3,-98.15,-34.82,770,772,771,743,873,33.333333333333336,-0.852,-0.516,-0.086
86871,1755587098389,59.28,-98.15,-34.81,767,766,776,748,887,47.61904761904762,-0.852,-0.516,-0.088
86900,1755587098419,59.25,-98.26,-34.81,769,782,769,748,882,34.48275862068966,-0.853,-0.517,-0.089
86930,1755587098449,59.24,-98.28,-34.79,773,774,773,752,871,33.333333333333336,-0.855,-0.516,-0.089
86960,1755587098479,59.19,-98.33,-34.81,774,772,782,749,880,33.333333333333336,-0.855,-0.516,-0.084
86980,1755587098499,59.17,-98.32,-34.81,770,768,774,748,870,50.0,-0.853,-0.516,-0.079
87000,1755587098520,59.17,-98.29,-34.81,774,765,774,741,886,50.0,-0.855,-0.517,-0.08
87021,1755587098539,59.15,-98.29,-34.81,768,772,776,745,889,47.61904761904762,-0.856,-0.518,-0.084
87050,1755587098569,59.19,-98.33,-34.79,770,773,773,745,873,34.48275862068966,-0.856,-0.519,-0.086
87080,1755587098599,59.18,-98.33,-34.8,767,765,785,744,877,33.333333333333336,-0.853,-0.515,-0.082
87110,1755587098629,59.12,-98.3,-34.82,765,770,776,749,869,33.333333333333336,-0.853,-0.514,-0.083
87140,1755587098659,59.1,-98.36,-34.84,770,769,775,754,883,33.333333333333336,-0.856,-0.516,-0.087
87170,1755587098689,59.12,-98.47,-34.87,768,776,763,746,879,33.333333333333336,-0.854,-0.518,-0.087
87200,1755587098719,59.13,-98.48,-34.86,773,774,773,749,883,33.333333333333336,-0.852,-0.517,-0.086
87230,1755587098748,59.08,-98.44,-34.87,764,768,775,747,879,33.333333333333336,-0.853,-0.516,-0.084
87260,1755587098778,59.07,-98.4,-34.87,769,783,769,743,877,33.333333333333336,-0.854,-0.518,-0.083
87289,1755587098809,59.1,-98.37,-34.86,762,776,777,746,878,34.48275862068966,-0.852,-0.518,-0.083
87310,1755587098829,59.12,-98.38,-34.86,770,775,770,749,886,47.61904761904762,-0.852,-0.518,-0.084
87340,1755587098858,59.09,-98.37,-34.86,773,776,781,751,874,33.333333333333336,-0.852,-0.517,-0.084
87369,1755587098889,59.11,-98.39,-34.86,768,765,781,750,877,34.48275862068966,-0.853,-0.517,-0.085
87390,1755587098908,59.11,-98.41,-34.87,775,771,776,749,883,47.61904761904762,-0.853,-0.516,-0.084
87419,1755587098938,59.13,-98.43,-34.89,770,772,767,751,879,34.48275862068966,-0.853,-0.517,-0.084
87440,1755587098959,59.11,-98.42,-34.89,768,769,776,769,878,47.61904761904762,-0.855,-0.518,-0.083
87460,1755587098978,59.07,-98.42,-34.88,767,772,766,744,877,50.0,-0.855,-0.519,-0.085
87489,1755587099008,59.08,-98.51,-34.89,762,775,774,740,871,34.48275862068966,-0.854,-0.519,-0.085
87519,1755587099038,59.12,-98.57,-34.9,770,771,772,750,863,33.333333333333336,-0.855,-0.519,-0.083
87549,1755587099068,59.1,-98.54,-34.89,763,773,774,755,874,33.333333333333336,-0.853,-0.519,-0.084
87579,1755587099098,59.12,-98.55,-34.87,770,772,769,762,874,33.333333333333336,-0.856,-0.518,-0.084
87609,1755587099128,59.12,-98.55,-34.87,768,782,774,744,880,33.333333333333336,-0.855,-0.517,-0.082
87629,1755587099148,59.11,-98.54,-34.86,776,773,771,749,870,50.0,-0.855,-0.517,-0.083
87659,1755587099178,59.11,-98.57,-34.87,767,773,775,751,873,33.333333333333336,-0.854,-0.519,-0.087
87689,1755587099208,59.1,-98.61,-34.85,769,774,767,750,881,33.333333333333336,-0.854,-0.518,-0.088
87709,1755587099228,59.08,-98.62,-34.84,766,772,770,746,873,50.0,-0.851,-0.517,-0.086
87739,1755587099258,59.05,-98.54,-34.82,770,771,772,746,871,33.333333333333336,-0.852,-0.516,-0.084
87769,1755587099287,59.04,-98.54,-34.82,771,771,772,748,875,33.333333333333336,-0.854,-0.518,-0.084
87798,1755587099317,59.07,-98.57,-34.82,767,772,776,754,865,34.48275862068966,-0.854,-0.518,-0.085
87828,1755587099347,59.04,-98.53,-34.8,769,773,769,744,902,33.333333333333336,-0.853,-0.519,-0.085
87858,1755587099377,58.98,-98.5,-34.78,767,770,769,749,875,33.333333333333336,-0.851,-0.519,-0.085
87888,1755587099407,58.95,-98.54,-34.78,768,775,764,746,881,33.333333333333336,-0.85,-0.517,-0.086
87918,1755587099437,58.95,-98.6,-34.8,765,765,774,756,873,33.333333333333336,-0.852,-0.517,-0.084
87938,1755587099458,58.91,-98.58,-34.8,771,773,778,752,873,50.0,-0.854,-0.516,-0.081
87968,1755587099487,58.91,-98.49,-34.8,770,770,774,747,876,33.333333333333336,-0.856,-0.514,-0.081
87998,1755587099517,58.95,-98.54,-34.82,768,771,766,750,881,33.333333333333336,-0.856,-0.515,-0.088
88018,1755587099537,58.97,-98.58,-34.83,773,771,770,753,872,50.0,-0.856,-0.517,-0.089
88048,1755587099568,58.98,-98.6,-34.84,772,770,772,747,877,33.333333333333336,-0.853,-0.517,-0.087
88069,1755587099588,58.94,-98.61,-34.86,765,773,769,745,886,47.61904761904762,-0.851,-0.518,-0.083
88089,1755587099608,58.9,-98.6,-34.87,771,774,774,745,879,50.0,-0.85,-0.52,-0.083
88119,1755587099638,58.96,-98.61,-34.86,769,768,775,746,866,33.333333333333336,-0.853,-0.521,-0.085
88139,1755587099658,58.98,-98.64,-34.85,771,775,773,747,874,50.0,-0.854,-0.519,-0.085
88169,1755587099688,58.96,-98.69,-34.87,761,770,773,743,872,33.333333333333336,-0.852,-0.516,-0.084
88189,1755587099708,58.93,-98.7,-34.89,771,765,774,757,875,50.0,-0.85,-0.516,-0.084
88219,1755587099738,58.91,-98.72,-34.91,771,774,775,743,885,33.333333333333336,-0.852,-0.517,-0.086
88239,1755587099758,58.94,-98.75,-34.92,769,763,774,758,878,50.0,-0.853,-0.519,-0.087
88269,1755587099788,58.93,-98.75,-34.91,771,778,771,754,871,33.333333333333336,-0.854,-0.52,-0.087
88299,1755587099818,58.88,-98.79,-34.91,769,777,765,747,914,33.333333333333336,-0.853,-0.521,-0.088
88329,1755587099848,58.86,-98.84,-34.92,766,765,769,761,880,33.333333333333336,-0.852,-0.518,-0.086
88359,1755587099877,58.86,-98.82,-34.92,774,774,772,753,875,33.333333333333336,-0.854,-0.518,-0.08
88388,1755587099908,58.81,-98.74,-34.92,766,774,773,750,875,34.48275862068966,-0.853,-0.519,-0.081
88409,1755587099928,58.81,-98.72,-34.92,765,775,770,744,880,47.61904761904762,-0.854,-0.521,-0.084
88429,1755587099948,58.84,-98.73,-34.91,768,778,771,746,888,50.0,-0.853,-0.521,-0.087
88459,1755587099978,58.88,-98.78,-34.92,771,768,782,750,884,33.333333333333336,-0.851,-0.52,-0.087
88479,1755587099998,58.87,-98.82,-34.93,774,781,769,752,874,50.0,-0.85,-0.52,-0.087
88509,1755587100028,58.81,-98.77,-34.92,773,767,771,748,874,33.333333333333336,-0.851,-0.521,-0.087
88529,1755587100048,58.77,-98.77,-34.91,773,775,775,746,868,50.0,-0.852,-0.52,-0.087
88559,1755587100078,58.75,-98.76,-34.91,766,767,774,746,881,33.333333333333336,-0.854,-0.519,-0.084
88579,1755587100098,58.71,-98.76,-34.9,764,771,772,757,885,50.0,-0.852,-0.519,-0.084
88609,1755587100129,58.63,-98.7,-34.9,768,764,769,750,879,33.333333333333336,-0.851,-0.519,-0.087
88630,1755587100149,58.53,-98.7,-34.89,770,778,771,747,880,47.61904761904762,-0.85,-0.519,-0.092
88660,1755587100179,58.5,-98.86,-34.94,768,764,773,751,888,33.333333333333336,-0.851,-0.519,-0.093
88680,1755587100199,58.49,-98.92,-34.96,766,780,776,751,880,50.0,-0.853,-0.518,-0.086
88710,1755587100228,58.31,-98.85,-34.96,765,773,779,752,873,33.333333333333336,-0.853,-0.519,-0.08
88739,1755587100258,58.31,-98.85,-34.98,775,781,769,755,862,34.48275862068966,-0.852,-0.523,-0.08
88769,1755587100288,58.33,-98.84,-34.95,772,779,772,749,872,33.333333333333336,-0.852,-0.524,-0.08
88790,1755587100308,58.37,-98.84,-34.94,771,775,772,748,883,47.61904761904762,-0.852,-0.523,-0.076
