timestamp_ms,recv_timestamp_ms,pitch,roll,yaw,flex1,flex2,flex3,flex4,flex5,sampling_hz,accel_x,accel_y,accel_z
26291,1755587135196,7.94,66.71,44.59,825,891,856,897,890,33.333333333333336,-0.183,0.896,0.417
26320,1755587135226,7.99,66.73,44.67,824,900,862,897,893,34.48275862068966,-0.184,0.9,0.417
26350,1755587135255,7.98,66.71,44.71,833,895,873,891,895,33.333333333333336,-0.18,0.899,0.415
26379,1755587135285,8.0,66.76,44.73,826,894,862,879,901,34.48275862068966,-0.178,0.899,0.415
26409,1755587135314,8.01,66.76,44.77,824,898,862,893,894,33.333333333333336,-0.18,0.898,0.414
26438,1755587135344,8.02,66.71,44.83,824,877,865,898,895,34.48275862068966,-0.181,0.898,0.411
26468,1755587135373,8.01,66.67,44.89,827,898,870,884,889,33.333333333333336,-0.179,0.9,0.413
26497,1755587135403,8.03,66.71,44.89,822,892,866,891,897,34.48275862068966,-0.176,0.899,0.416
26527,1755587135432,8.07,66.77,44.93,831,887,862,891,886,33.333333333333336,-0.179,0.899,0.413
26556,1755587135462,8.05,66.74,44.99,828,904,856,889,891,34.48275862068966,-0.177,0.898,0.407
26585,1755587135491,8.05,66.59,44.99,821,888,850,887,889,34.48275862068966,-0.179,0.898,0.411
26615,1755587135521,8.05,66.55,45.02,826,879,853,893,888,33.333333333333336,-0.179,0.898,0.416
26644,1755587135550,8.06,66.55,45.07,826,892,870,881,886,34.48275862068966,-0.18,0.899,0.414
26674,1755587135579,8.03,66.49,45.14,825,898,859,892,882,33.333333333333336,-0.179,0.896,0.413
26703,1755587135609,8.01,66.38,45.18,827,887,860,894,889,34.48275862068966,-0.176,0.896,0.414
26732,1755587135638,8.04,66.38,45.16,830,891,858,891,883,34.48275862068966,-0.176,0.898,0.418
26762,1755587135668,8.05,66.41,45.16,824,895,861,884,885,33.333333333333336,-0.177,0.896,0.417
26791,1755587135697,8.05,66.37,45.16,819,898,861,884,888,34.48275862068966,-0.176,0.894,0.416
26821,1755587135726,8.1,66.38,45.15,825,897,862,890,877,33.333333333333336,-0.176,0.893,0.416
26850,1755587135756,8.12,66.41,45.15,823,889,861,890,889,34.48275862068966,-0.181,0.896,0.414
26879,1755587135785,8.09,66.3,45.21,820,894,852,884,895,34.48275862068966,-0.182,0.896,0.412
26909,1755587135815,8.06,66.23,45.21,829,897,865,898,896,33.333333333333336,-0.177,0.894,0.414
26929,1755587135835,8.09,66.22,45.17,824,892,863,881,884,50.0,-0.175,0.895,0.418
26958,1755587135864,8.07,66.23,45.2,824,886,866,886,888,34.48275862068966,-0.178,0.895,0.416
26988,1755587135894,8.05,66.24,45.21,822,889,869,888,887,33.333333333333336,-0.181,0.895,0.417
27018,1755587135923,8.04,66.3,45.25,827,896,854,891,884,33.333333333333336,-0.182,0.898,0.42
27047,1755587135953,8.07,66.37,45.27,827,884,860,888,883,34.48275862068966,-0.181,0.896,0.42
27077,1755587135983,8.15,66.5,45.29,827,899,857,881,889,33.333333333333336,-0.184,0.895,0.42
27106,1755587136012,7.72,66.62,45.4,825,895,863,895,888,34.48275862068966,-0.187,0.898,0.416
27136,1755587136042,7.68,66.61,45.49,826,893,861,893,898,33.333333333333336,-0.182,0.898,0.411
27165,1755587136071,7.67,66.63,45.53,827,890,856,890,891,34.48275862068966,-0.178,0.897,0.414
27195,1755587136101,7.72,66.65,45.53,828,892,863,892,893,33.333333333333336,-0.18,0.898,0.415
27224,1755587136131,7.7,66.66,45.57,826,902,858,890,892,34.48275862068966,-0.181,0.9,0.408
27244,1755587136150,7.69,66.58,45.58,824,886,863,898,888,50.0,-0.177,0.897,0.405
27274,1755587136179,7.67,66.5,45.59,824,894,866,882,913,33.333333333333336,-0.176,0.896,0.408
27303,1755587136209,7.68,66.49,45.59,830,894,864,892,915,34.48275862068966,-0.18,0.898,0.41
27333,1755587136239,7.65,66.42,45.63,823,889,873,888,888,33.333333333333336,-0.182,0.897,0.41
27362,1755587136268,7.63,66.32,45.66,823,892,854,886,896,34.48275862068966,-0.18,0.896,0.413
27392,1755587136297,7.67,66.29,45.66,827,885,859,885,887,33.333333333333336,-0.179,0.897,0.415
27421,1755587136327,7.67,66.22,45.66,828,890,863,890,889,34.48275862068966,-0.18,0.895,0.415
27451,1755587136357,7.65,66.14,45.7,826,886,866,892,884,33.333333333333336,-0.18,0.894,0.417
27480,1755587136386,7.64,66.13,45.75,823,880,859,881,891,34.48275862068966,-0.18,0.894,0.422
27510,1755587136416,7.66,66.15,45.79,826,888,852,886,883,33.333333333333336,-0.18,0.894,0.419
27539,1755587136445,7.67,66.07,45.83,820,897,863,888,898,34.48275862068966,-0.18,0.895,0.42
27569,1755587136475,7.65,65.93,45.4,813,891,873,890,888,33.333333333333336,-0.176,0.894,0.421
27598,1755587136504,7.64,65.98,45.46,822,879,859,897,893,34.48275862068966,-0.177,0.891,0.425
27628,1755587136534,7.65,65.91,45.47,830,896,862,892,894,33.333333333333336,-0.178,0.89,0.426
27658,1755587136563,7.67,65.85,45.49,827,884,856,889,894,33.333333333333336,-0.182,0.891,0.425
27687,1755587136593,7.65,65.85,45.6,826,890,866,889,888,34.48275862068966,-0.184,0.893,0.426
27717,1755587136623,7.66,65.83,45.64,825,890,869,885,892,33.333333333333336,-0.18,0.889,0.428
27737,1755587136642,7.71,65.81,45.65,826,886,845,887,889,50.0,-0.181,0.892,0.428
27766,1755587136672,7.71,65.91,45.71,821,893,876,892,893,34.48275862068966,-0.18,0.892,0.431
27795,1755587136701,7.71,65.84,45.7,824,885,870,899,896,34.48275862068966,-0.177,0.891,0.426
27825,1755587136731,7.67,65.76,45.75,832,887,858,884,893,33.333333333333336,-0.178,0.891,0.423
27855,1755587136760,7.65,65.77,45.81,822,893,857,905,884,33.333333333333336,-0.18,0.893,0.428
27884,1755587136790,7.66,65.67,45.82,823,907,863,884,894,34.48275862068966,-0.178,0.89,0.431
27914,1755587136820,7.72,65.74,45.85,828,890,846,896,903,33.333333333333336,-0.181,0.896,0.431
27943,1755587136849,7.71,65.76,45.92,824,893,867,878,885,34.48275862068966,-0.178,0.888,0.43
27973,1755587136879,7.71,65.68,45.96,825,884,864,893,890,33.333333333333336,-0.173,0.889,0.426
28002,1755587136908,7.69,65.59,45.92,826,891,866,898,890,34.48275862068966,-0.176,0.891,0.428
28032,1755587136937,7.68,65.57,45.95,822,897,862,891,896,33.333333333333336,-0.179,0.892,0.433
28061,1755587136967,7.71,65.64,46.01,825,886,864,889,882,34.48275862068966,-0.18,0.889,0.434
28090,1755587136996,7.77,65.68,46.09,825,883,866,887,889,34.48275862068966,-0.18,0.89,0.432
28120,1755587137026,7.74,65.61,46.14,817,891,860,885,888,33.333333333333336,-0.175,0.891,0.428
28149,1755587137055,7.76,65.57,46.12,813,896,866,881,884,34.48275862068966,-0.174,0.888,0.431
28179,1755587137085,7.79,65.61,46.15,827,890,863,886,891,33.333333333333336,-0.176,0.892,0.433
28209,1755587137114,7.79,65.54,46.18,821,889,860,886,894,33.333333333333336,-0.176,0.89,0.429
28238,1755587137144,7.82,65.39,46.18,831,887,858,888,898,34.48275862068966,-0.176,0.89,0.43
28267,1755587137173,7.84,65.39,46.22,822,889,862,895,884,34.48275862068966,-0.177,0.892,0.437
28297,1755587137202,7.87,65.45,46.25,827,889,890,872,887,33.333333333333336,-0.177,0.892,0.436
28326,1755587137232,7.88,65.44,46.26,824,896,867,884,890,34.48275862068966,-0.174,0.89,0.43
28355,1755587137261,7.89,65.4,46.26,823,889,853,891,892,34.48275862068966,-0.175,0.891,0.428
28385,1755587137291,7.85,65.3,46.26,828,888,865,883,890,33.333333333333336,-0.176,0.891,0.426
28414,1755587137320,7.81,65.22,46.28,828,889,862,888,880,34.48275862068966,-0.177,0.89,0.429
28444,1755587137350,7.82,65.15,46.26,824,899,860,897,898,33.333333333333336,-0.177,0.887,0.434
28473,1755587137379,7.83,65.15,46.29,826,899,864,893,895,34.48275862068966,-0.18,0.887,0.437
28503,1755587137409,7.81,65.02,46.34,825,883,867,890,896,33.333333333333336,-0.178,0.884,0.437
28532,1755587137438,7.82,65.04,46.36,822,880,867,885,894,34.48275862068966,-0.177,0.889,0.438
28562,1755587137468,7.81,65.46,46.4,831,902,858,883,894,33.333333333333336,-0.18,0.885,0.44
28592,1755587137498,7.8,65.44,46.47,828,889,865,890,881,33.333333333333336,-0.182,0.885,0.437
28621,1755587137527,7.79,65.42,46.52,828,892,867,893,886,34.48275862068966,-0.182,0.882,0.438
28651,1755587137557,7.81,65.47,46.59,824,893,864,886,900,33.333333333333336,-0.181,0.884,0.441
28681,1755587137586,7.82,65.57,46.64,822,884,861,888,885,33.333333333333336,-0.178,0.885,0.441
28710,1755587137616,7.86,65.54,46.65,828,881,853,894,894,34.48275862068966,-0.18,0.888,0.441
28739,1755587137645,7.81,65.54,46.73,828,889,880,885,883,34.48275862068966,-0.177,0.882,0.439
28769,1755587137675,7.9,65.64,46.78,820,892,866,882,886,33.333333333333336,-0.177,0.886,0.44
28798,1755587137704,7.92,65.71,46.81,827,885,855,890,890,34.48275862068966,-0.179,0.891,0.434
28828,1755587137733,7.84,65.66,46.86,820,888,858,884,902,33.333333333333336,-0.176,0.884,0.435
28857,1755587137763,7.91,65.61,46.86,824,887,841,885,891,34.48275862068966,-0.177,0.886,0.44
28886,1755587137792,7.95,65.66,46.93,820,895,866,890,887,34.48275862068966,-0.178,0.889,0.438
28916,1755587137822,7.89,65.57,46.99,825,891,871,886,899,33.333333333333336,-0.175,0.886,0.433
28946,1755587137851,7.85,65.46,47.03,818,888,874,882,896,33.333333333333336,-0.173,0.887,0.434
28975,1755587137881,7.81,65.52,47.06,823,902,860,887,893,34.48275862068966,-0.177,0.89,0.437
29005,1755587137910,7.83,65.54,47.1,824,901,865,897,883,33.333333333333336,-0.178,0.891,0.435
29034,1755587137940,7.82,65.47,47.14,824,878,855,888,889,34.48275862068966,-0.175,0.887,0.434
29064,1755587137969,7.84,65.52,47.18,828,887,865,888,883,33.333333333333336,-0.175,0.887,0.435
29093,1755587137999,7.85,65.52,47.24,826,896,861,890,894,34.48275862068966,-0.176,0.886,0.432
29122,1755587138028,7.84,65.42,47.34,823,885,859,891,889,34.48275862068966,-0.177,0.888,0.433
29152,1755587138058,7.8,65.46,47.44,829,889,863,892,896,33.333333333333336,-0.175,0.891,0.44
29182,1755587138087,7.86,65.54,47.47,825,896,858,893,889,33.333333333333336,-0.173,0.89,0.438
29211,1755587138117,7.83,65.49,47.55,826,892,858,888,885,34.48275862068966,-0.173,0.886,0.432
29240,1755587138146,7.78,65.33,47.62,824,890,873,876,890,34.48275862068966,-0.171,0.887,0.43
29270,1755587138176,7.74,65.36,47.65,827,888,863,892,893,33.333333333333336,-0.17,0.891,0.435
29299,1755587138206,7.76,65.36,47.67,834,886,857,887,888,34.48275862068966,-0.172,0.892,0.438
29320,1755587138226,7.79,65.36,47.69,823,897,861,883,887,47.61904761904762,-0.171,0.891,0.436
29349,1755587138255,7.78,65.28,47.74,822,885,862,887,880,34.48275862068966,-0.168,0.885,0.437
29379,1755587138285,7.76,65.2,47.75,820,891,865,889,899,33.333333333333336,-0.169,0.888,0.437
29408,1755587138314,7.75,65.2,47.77,830,892,870,886,888,34.48275862068966,-0.172,0.89,0.439
29438,1755587138344,7.76,65.16,47.8,824,892,857,895,890,33.333333333333336,-0.172,0.888,0.439
29468,1755587138374,7.74,65.13,47.79,820,887,880,891,893,33.333333333333336,-0.17,0.885,0.437
29497,1755587138403,7.73,65.07,47.84,822,875,869,890,892,34.48275862068966,-0.172,0.886,0.438
29527,1755587138432,7.7,65.0,47.9,820,885,858,894,881,33.333333333333336,-0.171,0.886,0.443
29556,1755587138462,7.75,64.99,47.89,821,894,850,892,892,34.48275862068966,-0.17,0.888,0.446
29585,1755587138491,7.75,64.99,47.92,823,890,867,879,886,34.48275862068966,-0.17,0.885,0.439
29615,1755587138521,7.7,64.86,47.96,831,886,863,885,892,33.333333333333336,-0.17,0.884,0.436
29644,1755587138550,7.63,64.66,48.02,824,880,862,891,886,34.48275862068966,-0.17,0.887,0.441
29674,1755587138580,7.56,64.54,48.07,822,892,868,897,886,33.333333333333336,-0.169,0.889,0.448
29704,1755587138610,7.64,64.52,48.11,822,881,860,888,895,33.333333333333336,-0.171,0.887,0.451
29733,1755587138639,7.66,64.46,48.16,824,894,863,889,887,34.48275862068966,-0.166,0.88,0.445
29763,1755587138669,7.67,64.33,48.23,826,889,864,883,898,33.333333333333336,-0.169,0.881,0.444
29792,1755587138698,7.59,64.26,48.31,827,898,869,885,892,34.48275862068966,-0.17,0.885,0.451
29822,1755587138727,7.66,64.38,48.27,825,894,872,884,880,33.333333333333336,-0.167,0.889,0.462
29851,1755587138757,7.74,64.52,48.29,825,884,858,882,890,34.48275862068966,-0.166,0.882,0.459
29881,1755587138787,7.72,64.51,48.37,826,891,857,884,890,33.333333333333336,-0.166,0.88,0.453
29911,1755587138816,7.65,64.46,48.4,822,888,867,885,883,33.333333333333336,-0.166,0.882,0.459
29940,1755587138845,7.72,64.6,48.44,825,883,854,897,893,34.48275862068966,-0.173,0.887,0.464
29969,1755587138875,7.75,64.66,48.56,822,896,859,886,909,34.48275862068966,-0.174,0.883,0.454
29999,1755587138904,7.69,64.66,48.62,821,885,864,890,884,33.333333333333336,-0.166,0.884,0.446
30028,1755587138934,7.62,64.7,48.65,826,887,862,881,888,34.48275862068966,-0.165,0.883,0.45
30058,1755587138963,7.65,64.63,48.7,824,892,871,881,894,33.333333333333336,-0.168,0.881,0.45
30087,1755587138992,7.68,64.77,48.75,826,895,865,894,885,34.48275862068966,-0.17,0.885,0.451
30116,1755587139022,7.68,64.84,48.83,828,880,858,881,885,34.48275862068966,-0.167,0.888,0.445
30145,1755587139052,7.67,64.77,48.83,827,886,863,895,907,34.48275862068966,-0.165,0.885,0.438
30175,1755587139081,7.62,64.64,48.83,826,890,865,895,887,33.333333333333336,-0.164,0.882,0.443
30205,1755587139110,7.6,64.61,48.85,826,893,857,880,888,33.333333333333336,-0.168,0.886,0.444
30234,1755587139140,7.57,64.56,48.86,828,890,863,878,892,34.48275862068966,-0.17,0.884,0.445
30264,1755587139170,7.55,64.53,48.98,827,888,870,888,885,33.333333333333336,-0.17,0.886,0.446
30293,1755587139199,7.53,64.41,48.94,820,895,868,891,881,34.48275862068966,-0.165,0.888,0.442
30323,1755587139229,7.49,64.34,48.96,822,900,870,892,880,33.333333333333336,-0.163,0.882,0.445
30352,1755587139258,7.44,64.27,49.0,821,884,861,898,886,34.48275862068966,-0.162,0.887,0.449
30382,1755587139287,7.43,64.17,48.92,827,882,856,886,914,33.333333333333336,-0.166,0.886,0.451
30411,1755587139317,7.38,64.13,49.0,820,891,859,897,887,34.48275862068966,-0.165,0.885,0.449
30440,1755587139347,7.33,64.03,49.03,827,898,861,897,887,34.48275862068966,-0.163,0.885,0.449
30470,1755587139376,7.33,63.94,49.02,820,890,867,881,887,33.333333333333336,-0.165,0.886,0.454
30500,1755587139406,7.28,63.94,49.06,823,889,848,888,895,33.333333333333336,-0.163,0.884,0.46
30529,1755587139435,7.35,63.94,49.0,825,887,862,884,880,34.48275862068966,-0.161,0.881,0.46
30559,1755587139464,7.33,63.84,49.0,823,890,863,874,894,33.333333333333336,-0.163,0.88,0.454
30588,1755587139494,7.26,63.7,49.02,821,892,860,897,886,34.48275862068966,-0.165,0.879,0.456
30617,1755587139523,7.24,63.63,49.02,833,891,856,896,893,34.48275862068966,-0.166,0.882,0.459
30647,1755587139553,7.2,63.49,49.05,835,889,864,892,887,33.333333333333336,-0.167,0.879,0.456
30676,1755587139582,7.21,63.38,49.06,830,886,868,886,890,34.48275862068966,-0.165,0.873,0.459
30706,1755587139611,7.21,63.37,49.1,825,891,864,884,886,33.333333333333336,-0.167,0.878,0.463
30735,1755587139641,7.2,63.29,49.13,824,890,850,890,894,34.48275862068966,-0.164,0.879,0.467
30765,1755587139671,7.26,63.37,48.99,828,882,864,887,879,33.333333333333336,-0.16,0.876,0.47
30794,1755587139700,7.39,63.37,48.8,823,879,861,888,882,34.48275862068966,-0.165,0.874,0.468
30824,1755587139730,7.33,63.27,48.88,831,885,859,889,891,33.333333333333336,-0.172,0.866,0.469
30853,1755587139759,7.27,63.24,48.95,826,893,866,887,883,34.48275862068966,-0.174,0.869,0.477
30883,1755587139789,7.4,63.35,48.95,822,891,862,890,892,33.333333333333336,-0.18,0.874,0.475
30912,1755587139818,7.44,63.45,49.11,831,891,859,882,889,34.48275862068966,-0.176,0.871,0.461
30942,1755587139847,7.46,63.36,49.17,823,887,870,889,889,33.333333333333336,-0.169,0.871,0.46
30971,1755587139877,7.39,63.32,49.16,827,895,866,882,884,34.48275862068966,-0.169,0.874,0.469
31000,1755587139906,7.43,63.41,49.23,828,892,866,894,893,34.48275862068966,-0.173,0.875,0.472
31030,1755587139935,7.42,63.3,49.28,825,883,852,888,871,33.333333333333336,-0.173,0.87,0.462
31059,1755587139965,7.35,63.14,49.41,824,879,867,885,893,34.48275862068966,-0.174,0.869,0.464
31088,1755587139994,7.36,63.13,49.49,827,883,856,888,887,34.48275862068966,-0.173,0.875,0.476
31118,1755587140024,7.51,63.26,49.48,824,882,866,891,890,33.333333333333336,-0.174,0.877,0.478
31147,1755587140054,7.56,63.24,49.62,823,898,868,897,888,34.48275862068966,-0.171,0.868,0.465
31177,1755587140083,7.45,63.16,49.69,822,891,863,885,882,33.333333333333336,-0.163,0.867,0.467
31207,1755587140112,7.51,63.2,49.64,825,899,862,876,893,33.333333333333336,-0.165,0.879,0.479
31236,1755587140142,7.56,63.3,49.64,825,885,861,897,890,34.48275862068966,-0.168,0.875,0.474
31266,1755587140172,7.58,63.3,49.7,832,884,850,884,901,33.333333333333336,-0.169,0.871,0.463
31296,1755587140201,7.5,63.22,49.8,817,895,853,889,879,33.333333333333336,-0.167,0.871,0.466
31325,1755587140231,7.52,63.16,49.8,823,886,866,886,892,34.48275862068966,-0.167,0.876,0.472
31354,1755587140260,7.55,63.32,49.83,823,892,861,889,894,34.48275862068966,-0.171,0.876,0.474
31384,1755587140290,7.58,63.23,49.8,828,891,853,895,884,33.333333333333336,-0.167,0.865,0.462
31413,1755587140319,7.57,63.06,49.83,829,887,870,899,891,34.48275862068966,-0.17,0.867,0.463
31443,1755587140349,7.51,63.06,49.94,826,888,853,880,885,33.333333333333336,-0.172,0.876,0.475
31463,1755587140368,7.56,63.09,49.95,821,894,852,885,876,50.0,-0.174,0.88,0.48
31492,1755587140398,7.62,63.12,49.93,822,895,858,893,897,34.48275862068966,-0.171,0.871,0.477
31521,1755587140427,7.61,63.15,50.05,824,879,858,870,890,34.48275862068966,-0.166,0.873,0.47
31551,1755587140457,7.51,62.97,50.02,823,885,860,880,891,33.333333333333336,-0.161,0.871,0.468
31581,1755587140486,7.56,62.93,49.94,824,886,860,890,879,33.333333333333336,-0.166,0.871,0.472
31610,1755587140516,7.53,62.99,50.0,824,884,865,895,881,34.48275862068966,-0.171,0.876,0.472
31639,1755587140545,7.45,63.0,50.08,823,883,854,892,889,34.48275862068966,-0.166,0.876,0.468
31669,1755587140575,7.5,62.93,49.99,832,882,860,886,895,33.333333333333336,-0.168,0.87,0.469
31698,1755587140605,7.43,62.9,50.12,823,889,856,884,888,34.48275862068966,-0.175,0.87,0.474
31728,1755587140635,7.36,62.88,50.3,827,889,866,887,883,33.333333333333336,-0.175,0.873,0.474
31748,1755587140654,7.37,62.87,50.34,817,884,856,884,891,50.0,-0.173,0.874,0.483
31778,1755587140684,7.44,63.05,50.37,827,886,861,887,895,33.333333333333336,-0.174,0.877,0.49
31808,1755587140714,7.49,63.19,50.62,826,892,872,888,887,33.333333333333336,-0.174,0.866,0.477
31837,1755587140743,7.49,63.11,50.78,823,888,868,893,892,34.48275862068966,-0.163,0.872,0.466
31867,1755587140772,7.47,63.04,50.79,823,881,867,891,886,33.333333333333336,-0.163,0.88,0.477
31896,1755587140802,7.49,63.15,50.85,821,896,867,882,887,34.48275862068966,-0.169,0.875,0.477
31925,1755587140831,7.53,63.33,51.02,821,895,860,885,886,34.48275862068966,-0.169,0.879,0.463
31955,1755587140860,7.45,63.33,51.1,822,889,866,890,886,33.333333333333336,-0.16,0.876,0.467
31984,1755587140890,7.5,63.43,51.12,823,896,859,885,893,34.48275862068966,-0.157,0.878,0.48
32013,1755587140919,7.58,63.67,51.22,821,890,856,893,878,34.48275862068966,-0.156,0.882,0.474
32043,1755587140949,7.49,63.65,51.23,830,884,855,885,889,33.333333333333336,-0.148,0.878,0.462
32072,1755587140978,7.44,63.7,51.21,822,886,865,892,889,34.48275862068966,-0.146,0.881,0.459
32102,1755587141007,7.47,63.73,51.16,816,892,858,881,890,33.333333333333336,-0.154,0.88,0.454
32131,1755587141037,7.43,63.68,51.21,829,884,858,883,879,34.48275862068966,-0.159,0.88,0.446
32160,1755587141066,7.28,63.53,51.27,827,900,863,884,886,34.48275862068966,-0.16,0.879,0.454
32190,1755587141095,7.31,63.5,51.3,822,895,864,880,887,33.333333333333336,-0.159,0.876,0.465
32219,1755587141125,7.35,63.52,51.38,823,893,853,878,887,34.48275862068966,-0.16,0.876,0.466
32249,1755587141154,7.3,63.44,51.42,827,902,859,889,889,33.333333333333336,-0.157,0.876,0.462
32278,1755587141184,7.26,63.42,51.43,825,889,864,885,893,34.48275862068966,-0.154,0.876,0.466
32308,1755587141214,7.29,63.41,51.38,827,889,857,886,882,33.333333333333336,-0.153,0.876,0.469
32337,1755587141243,7.32,63.39,51.38,831,894,860,888,892,34.48275862068966,-0.16,0.879,0.463
32367,1755587141273,7.24,63.36,51.44,823,883,860,885,887,33.333333333333336,-0.159,0.872,0.464
32396,1755587141302,7.29,63.31,51.46,827,887,860,900,883,34.48275862068966,-0.161,0.876,0.465
32426,1755587141332,7.28,63.27,51.5,828,891,861,890,893,33.333333333333336,-0.158,0.874,0.46
32456,1755587141362,7.22,63.17,51.59,827,890,864,885,886,33.333333333333336,-0.159,0.876,0.462
32486,1755587141391,7.16,63.18,51.62,822,890,864,893,892,33.333333333333336,-0.156,0.882,0.47
32515,1755587141421,7.25,63.24,51.53,828,883,859,889,887,34.48275862068966,-0.158,0.88,0.474
32544,1755587141450,7.19,63.2,51.65,823,890,852,895,892,34.48275862068966,-0.16,0.871,0.462
32574,1755587141480,7.1,63.08,51.71,817,891,865,879,893,33.333333333333336,-0.157,0.868,0.455
32604,1755587141509,7.14,62.97,51.66,820,896,869,893,878,33.333333333333336,-0.159,0.876,0.469
32633,1755587141539,7.13,62.98,51.72,824,889,861,893,878,34.48275862068966,-0.161,0.878,0.473
32663,1755587141568,7.13,62.99,51.8,821,889,858,880,874,33.333333333333336,-0.158,0.877,0.466
32692,1755587141598,7.07,62.85,51.83,825,896,861,896,892,34.48275862068966,-0.153,0.875,0.462
32722,1755587141627,6.99,62.82,51.92,824,887,863,880,883,33.333333333333336,-0.151,0.877,0.466
32751,1755587141656,6.93,62.82,51.95,828,885,864,881,893,34.48275862068966,-0.153,0.88,0.473
32780,1755587141686,6.93,62.81,51.96,820,891,855,889,882,34.48275862068966,-0.156,0.878,0.477
32810,1755587141716,6.92,62.82,52.0,826,892,869,890,889,33.333333333333336,-0.154,0.876,0.475
32839,1755587141745,6.94,62.81,51.99,826,882,863,886,883,34.48275862068966,-0.156,0.871,0.478
32869,1755587141774,6.9,62.84,52.14,819,889,866,884,895,33.333333333333336,-0.151,0.877,0.479
32898,1755587141804,6.89,62.83,52.08,821,891,863,885,875,34.48275862068966,-0.148,0.878,0.483
32928,1755587141834,6.9,62.92,52.06,823,888,863,893,888,33.333333333333336,-0.149,0.871,0.48
32957,1755587141863,6.86,62.87,52.11,831,886,858,890,887,34.48275862068966,-0.148,0.869,0.475
32987,1755587141892,6.9,62.83,52.06,824,876,867,884,915,33.333333333333336,-0.15,0.871,0.473
33016,1755587141922,6.89,62.88,52.09,828,905,857,885,886,34.48275862068966,-0.156,0.875,0.476
33046,1755587141951,6.86,62.92,52.13,827,893,864,884,892,33.333333333333336,-0.154,0.875,0.475
33075,1755587141981,6.9,62.9,52.12,825,897,869,895,889,34.48275862068966,-0.151,0.87,0.467
33105,1755587142011,6.9,62.82,52.15,822,883,871,889,892,33.333333333333336,-0.154,0.871,0.464
33135,1755587142041,6.79,62.78,52.22,827,893,852,885,887,33.333333333333336,-0.157,0.872,0.471
33164,1755587142070,6.8,62.77,52.25,822,891,857,883,900,34.48275862068966,-0.159,0.874,0.479
33194,1755587142100,6.86,62.78,52.28,824,890,850,894,892,33.333333333333336,-0.159,0.87,0.48
33223,1755587142129,6.81,62.7,52.39,826,889,860,889,879,34.48275862068966,-0.153,0.871,0.475
33253,1755587142158,6.74,62.58,52.36,817,883,864,887,898,33.333333333333336,-0.149,0.874,0.476
33282,1755587142188,6.75,62.55,52.31,819,891,855,889,902,34.48275862068966,-0.145,0.874,0.482
33312,1755587142217,6.83,62.55,52.19,824,888,857,891,900,33.333333333333336,-0.15,0.873,0.478
33341,1755587142247,6.77,62.51,52.2,832,880,855,885,892,34.48275862068966,-0.155,0.869,0.473
33370,1755587142276,6.69,62.44,52.26,826,893,860,875,894,34.48275862068966,-0.159,0.875,0.477
33400,1755587142305,7.15,62.48,52.23,823,895,848,879,881,33.333333333333336,-0.16,0.876,0.485
33429,1755587142335,7.2,62.55,52.25,824,887,862,889,886,34.48275862068966,-0.162,0.871,0.482
33459,1755587142365,7.24,62.45,52.3,824,904,845,888,889,33.333333333333336,-0.161,0.87,0.475
33488,1755587142394,7.21,62.42,52.31,822,886,868,894,889,34.48275862068966,-0.156,0.869,0.474
33518,1755587142423,7.22,62.4,52.28,833,894,863,884,887,33.333333333333336,-0.156,0.869,0.477
33547,1755587142453,7.22,62.39,52.28,821,885,858,886,895,34.48275862068966,-0.16,0.871,0.484
33576,1755587142482,7.25,62.4,52.25,818,890,858,884,883,34.48275862068966,-0.163,0.868,0.49
33606,1755587142512,7.26,62.47,52.35,821,892,860,879,903,33.333333333333336,-0.165,0.864,0.488
33635,1755587142541,7.26,62.41,52.37,825,884,860,886,884,34.48275862068966,-0.159,0.866,0.485
33665,1755587142571,7.3,62.33,52.37,821,886,858,892,889,33.333333333333336,-0.159,0.867,0.488
33694,1755587142600,7.29,62.36,52.4,820,889,859,881,887,34.48275862068966,-0.158,0.87,0.486
33724,1755587142630,7.3,62.4,52.36,822,881,864,869,888,33.333333333333336,-0.157,0.87,0.479
33753,1755587142659,7.34,62.35,52.34,818,884,859,888,895,34.48275862068966,-0.161,0.866,0.471
33783,1755587142689,7.33,62.28,52.37,826,886,856,887,891,33.333333333333336,-0.164,0.867,0.468
33812,1755587142718,7.3,62.2,52.39,825,889,861,884,891,34.48275862068966,-0.166,0.87,0.472
33842,1755587142748,7.23,62.08,52.44,826,865,855,887,887,33.333333333333336,-0.164,0.868,0.476
33872,1755587142777,7.18,61.97,52.41,824,891,858,887,872,33.333333333333336,-0.16,0.863,0.486
33901,1755587142806,7.22,61.96,52.33,818,887,854,888,897,34.48275862068966,-0.163,0.862,0.487
33930,1755587142836,7.22,61.77,52.36,827,895,861,891,890,34.48275862068966,-0.169,0.858,0.485
33960,1755587142865,7.23,61.71,52.45,829,886,860,882,886,33.333333333333336,-0.167,0.863,0.494
33989,1755587142895,7.26,61.82,52.47,829,895,857,885,891,34.48275862068966,-0.163,0.869,0.498
34018,1755587142924,7.3,61.92,52.47,833,887,880,884,897,34.48275862068966,-0.163,0.865,0.493
34048,1755587142953,7.29,61.95,52.56,823,889,863,890,892,33.333333333333336,-0.165,0.863,0.487
34077,1755587142983,7.22,61.97,52.67,821,894,850,882,896,34.48275862068966,-0.164,0.86,0.484
34106,1755587143013,7.15,62.07,52.86,825,884,858,883,890,34.48275862068966,-0.169,0.867,0.49
34136,1755587143042,7.05,62.16,53.05,821,889,851,887,881,33.333333333333336,-0.169,0.868,0.49
34166,1755587143072,6.97,62.28,53.23,820,890,855,892,889,33.333333333333336,-0.164,0.86,0.488
34196,1755587143101,7.02,62.34,53.29,828,890,858,885,882,33.333333333333336,-0.158,0.859,0.485
34225,1755587143131,7.02,62.35,53.37,821,884,863,889,887,34.48275862068966,-0.157,0.865,0.481
34254,1755587143160,6.97,62.28,53.42,826,889,855,886,889,34.48275862068966,-0.152,0.864,0.485
34284,1755587143190,7.0,62.37,53.4,819,873,858,881,886,33.333333333333336,-0.153,0.87,0.491
34313,1755587143219,6.98,62.59,53.45,826,890,868,892,887,34.48275862068966,-0.151,0.864,0.491
34343,1755587143249,7.03,62.52,53.45,824,893,859,888,882,33.333333333333336,-0.153,0.869,0.481
34372,1755587143278,7.01,62.38,53.47,828,892,855,884,880,34.48275862068966,-0.155,0.865,0.483
34402,1755587143308,6.97,62.39,53.56,829,888,846,882,894,33.333333333333336,-0.154,0.872,0.487
34431,1755587143337,6.99,62.47,53.54,824,897,858,880,885,34.48275862068966,-0.152,0.871,0.484
34461,1755587143367,7.01,62.44,53.55,821,884,860,892,884,33.333333333333336,-0.154,0.865,0.48
34490,1755587143396,6.99,62.3,53.61,827,886,854,883,891,34.48275862068966,-0.155,0.866,0.478
34520,1755587143425,6.94,62.19,53.64,828,881,860,885,885,33.333333333333336,-0.154,0.869,0.481
34549,1755587143455,6.92,62.15,53.63,821,876,857,891,891,34.48275862068966,-0.155,0.871,0.489
34579,1755587143484,6.95,62.22,53.65,828,881,858,893,888,33.333333333333336,-0.152,0.867,0.487
34608,1755587143514,6.96,62.14,53.62,820,897,876,885,881,34.48275862068966,-0.152,0.865,0.48
34637,1755587143543,6.92,62.04,53.67,828,890,861,885,889,34.48275862068966,-0.152,0.867,0.481
34667,1755587143573,6.87,61.94,53.68,823,888,856,889,892,33.333333333333336,-0.153,0.865,0.486
34696,1755587143602,6.89,61.96,53.69,830,881,860,885,885,34.48275862068966,-0.153,0.871,0.487
34726,1755587143632,6.91,62.07,53.66,828,889,863,888,888,33.333333333333336,-0.152,0.867,0.49
34755,1755587143661,6.93,62.04,53.65,826,881,862,889,900,34.48275862068966,-0.154,0.863,0.484
34785,1755587143691,6.95,61.97,53.65,826,878,846,885,878,33.333333333333336,-0.156,0.862,0.483
34814,1755587143720,7.0,61.99,53.63,823,890,869,890,886,34.48275862068966,-0.16,0.867,0.485
34844,1755587143750,7.0,61.95,53.68,821,891,858,892,885,33.333333333333336,-0.164,0.866,0.488
34873,1755587143779,7.02,61.94,53.71,825,880,858,889,898,34.48275862068966,-0.159,0.865,0.489
34903,1755587143808,7.06,61.95,53.72,822,892,851,888,892,33.333333333333336,-0.155,0.865,0.482
34932,1755587143838,6.97,61.87,53.81,828,895,865,893,887,34.48275862068966,-0.154,0.868,0.481
34961,1755587143867,6.9,61.85,53.81,825,890,863,890,892,34.48275862068966,-0.157,0.871,0.492
34991,1755587143897,6.9,61.92,53.78,820,884,853,884,884,33.333333333333336,-0.161,0.867,0.5
35021,1755587143926,6.85,62.18,54.02,825,893,864,889,892,33.333333333333336,-0.164,0.865,0.494
35050,1755587143956,6.78,62.25,54.15,827,896,856,891,896,34.48275862068966,-0.157,0.86,0.485
