timestamp_ms,recv_timestamp_ms,pitch,roll,yaw,flex1,flex2,flex3,flex4,flex5,sampling_hz,accel_x,accel_y,accel_z
51643,1755585439792,17.06,-64.01,-33.91,790,770,772,800,824,34.48275862068966,-0.29,-0.857,0.415
51673,1755585439822,17.07,-64.01,-33.91,787,775,774,790,824,33.333333333333336,-0.289,-0.857,0.416
51702,1755585439851,17.07,-64.01,-33.9,794,776,772,798,825,34.48275862068966,-0.29,-0.859,0.416
51732,1755585439881,17.11,-64.01,-33.86,797,769,762,805,825,33.333333333333336,-0.289,-0.856,0.417
51762,1755585439911,17.11,-63.95,-33.89,799,760,770,807,830,33.333333333333336,-0.292,-0.857,0.418
51791,1755585439940,17.05,-63.91,-33.9,797,776,774,801,827,34.48275862068966,-0.294,-0.858,0.414
51821,1755585439970,17.1,-63.97,-33.88,800,774,768,800,830,33.333333333333336,-0.292,-0.856,0.415
51851,1755585440000,17.12,-63.97,-33.86,793,772,773,788,831,33.333333333333336,-0.29,-0.857,0.418
51880,1755585440029,17.12,-63.94,-33.85,797,776,776,799,819,34.48275862068966,-0.291,-0.858,0.419
51910,1755585440059,17.14,-63.93,-33.84,794,770,770,799,825,33.333333333333336,-0.294,-0.857,0.417
51939,1755585440089,17.17,-63.96,-33.82,798,781,773,801,821,34.48275862068966,-0.293,-0.855,0.415
51969,1755585440119,17.17,-63.99,-33.83,794,779,775,796,817,33.333333333333336,-0.292,-0.855,0.418
51999,1755585440148,17.18,-63.97,-33.85,791,771,772,803,827,33.333333333333336,-0.293,-0.856,0.419
52028,1755585440177,17.18,-63.98,-33.85,795,774,769,797,836,34.48275862068966,-0.292,-0.856,0.418
52058,1755585440207,17.22,-63.99,-33.83,790,779,773,803,824,33.333333333333336,-0.291,-0.855,0.419
52087,1755585440236,17.2,-63.92,-33.86,792,776,771,798,830,34.48275862068966,-0.293,-0.855,0.42
52117,1755585440267,17.18,-63.89,-33.87,789,777,774,789,831,33.333333333333336,-0.295,-0.854,0.416
52137,1755585440286,17.21,-63.94,-33.85,790,771,775,794,823,50.0,-0.295,-0.854,0.414
52167,1755585440316,17.18,-63.94,-33.86,801,771,781,796,817,33.333333333333336,-0.297,-0.855,0.416
52196,1755585440346,17.15,-63.91,-33.87,801,773,772,802,825,34.48275862068966,-0.295,-0.854,0.416
52217,1755585440366,17.16,-63.9,-33.86,796,770,776,793,846,47.61904761904762,-0.293,-0.856,0.418
52246,1755585440395,17.14,-63.89,-33.84,798,771,773,796,822,34.48275862068966,-0.29,-0.858,0.42
52275,1755585440425,17.13,-63.85,-33.82,793,779,775,799,823,34.48275862068966,-0.289,-0.859,0.42
52305,1755585440454,17.14,-63.8,-33.78,802,775,764,792,819,33.333333333333336,-0.291,-0.859,0.419
52334,1755585440484,17.13,-63.77,-33.74,794,774,768,794,819,34.48275862068966,-0.291,-0.857,0.418
52364,1755585440513,17.16,-63.76,-33.73,793,768,771,802,823,33.333333333333336,-0.293,-0.85,0.416
52394,1755585440543,17.12,-63.81,-33.77,798,768,775,795,808,33.333333333333336,-0.296,-0.851,0.418
52423,1755585440573,17.12,-63.82,-33.77,799,782,779,799,823,34.48275862068966,-0.295,-0.849,0.421
52443,1755585440593,17.14,-63.85,-33.79,797,774,765,788,822,50.0,-0.296,-0.85,0.424
52473,1755585440622,17.17,-63.8,-33.81,792,776,762,793,812,33.333333333333336,-0.295,-0.854,0.426
52503,1755585440652,17.25,-63.75,-33.81,795,778,766,797,826,33.333333333333336,-0.297,-0.857,0.424
52532,1755585440682,17.26,-63.66,-33.81,794,776,770,801,824,34.48275862068966,-0.304,-0.858,0.421
52562,1755585440711,17.24,-63.49,-33.77,792,772,766,793,831,33.333333333333336,-0.306,-0.861,0.418
52591,1755585440740,17.3,-63.48,-33.63,794,772,770,800,824,34.48275862068966,-0.301,-0.856,0.414
52621,1755585440771,17.38,-63.5,-33.57,797,773,769,799,825,33.333333333333336,-0.3,-0.851,0.42
52650,1755585440799,17.21,-63.4,-33.6,791,789,768,796,829,34.48275862068966,-0.298,-0.852,0.418
52680,1755585440830,17.21,-63.43,-33.52,789,777,768,799,832,33.333333333333336,-0.292,-0.85,0.421
52700,1755585440850,17.31,-63.47,-33.46,794,780,768,810,827,50.0,-0.292,-0.851,0.429
52730,1755585440879,17.15,-63.39,-33.52,796,774,772,800,826,33.333333333333336,-0.293,-0.848,0.429
52760,1755585440909,17.21,-63.37,-33.5,796,772,770,801,825,33.333333333333336,-0.299,-0.848,0.427
52789,1755585440939,17.29,-63.24,-33.37,794,770,772,793,826,34.48275862068966,-0.306,-0.853,0.428
52819,1755585440968,17.39,-63.09,-33.14,791,776,773,789,834,33.333333333333336,-0.304,-0.852,0.433
52848,1755585440998,17.47,-62.98,-33.02,796,776,773,789,825,34.48275862068966,-0.298,-0.846,0.434
52878,1755585441027,17.5,-62.95,-33.03,802,770,773,797,821,33.333333333333336,-0.296,-0.839,0.429
52908,1755585441057,17.47,-62.93,-33.12,790,778,770,794,830,33.333333333333336,-0.3,-0.837,0.426
52938,1755585441087,17.49,-62.97,-33.12,800,786,773,796,821,33.333333333333336,-0.304,-0.843,0.428
52967,1755585441117,17.59,-63.02,-33.03,795,772,775,801,827,34.48275862068966,-0.304,-0.848,0.433
52997,1755585441146,17.69,-63.02,-32.96,796,781,776,796,819,33.333333333333336,-0.303,-0.847,0.433
53027,1755585441176,17.71,-62.97,-32.96,802,768,769,805,825,33.333333333333336,-0.3,-0.845,0.428
53057,1755585441206,17.74,-63.0,-32.96,789,771,780,793,824,33.333333333333336,-0.301,-0.844,0.426
53086,1755585441235,17.83,-63.03,-32.93,797,772,774,795,823,34.48275862068966,-0.305,-0.843,0.43
53116,1755585441265,17.82,-63.02,-32.96,804,770,772,804,827,33.333333333333336,-0.308,-0.841,0.433
53145,1755585441294,17.87,-63.05,-32.98,797,772,765,801,819,34.48275862068966,-0.311,-0.841,0.434
53175,1755585441324,17.95,-63.03,-32.98,792,776,776,793,823,33.333333333333336,-0.314,-0.844,0.434
53204,1755585441353,18.0,-63.0,-32.97,796,770,769,794,820,34.48275862068966,-0.314,-0.843,0.432
53234,1755585441384,18.07,-63.03,-32.99,798,773,771,790,823,33.333333333333336,-0.313,-0.841,0.429
53254,1755585441403,18.07,-63.05,-33.01,799,773,770,805,837,50.0,-0.314,-0.841,0.429
53283,1755585441432,18.07,-63.04,-33.03,797,769,767,785,814,34.48275862068966,-0.315,-0.843,0.427
53313,1755585441462,18.12,-63.09,-33.01,795,770,772,799,834,33.333333333333336,-0.313,-0.845,0.427
53342,1755585441492,18.17,-63.11,-32.99,793,777,772,798,821,34.48275862068966,-0.315,-0.845,0.428
53372,1755585441521,18.09,-63.11,-32.98,797,774,769,801,815,33.333333333333336,-0.315,-0.841,0.425
53402,1755585441551,18.16,-63.17,-32.98,797,784,774,790,833,33.333333333333336,-0.32,-0.842,0.431
53431,1755585441581,18.16,-63.16,-33.0,794,769,769,802,823,34.48275862068966,-0.32,-0.847,0.431
53461,1755585441610,18.19,-63.6,-32.97,796,769,769,795,820,33.333333333333336,-0.32,-0.845,0.426
53490,1755585441640,18.27,-63.64,-32.92,798,774,773,810,822,34.48275862068966,-0.32,-0.844,0.425
53520,1755585441669,18.22,-63.66,-32.95,794,773,775,803,823,33.333333333333336,-0.32,-0.844,0.424
53550,1755585441699,18.14,-63.61,-32.92,795,762,772,799,838,33.333333333333336,-0.323,-0.845,0.424
53570,1755585441719,18.17,-63.56,-32.81,791,773,780,803,822,50.0,-0.321,-0.846,0.428
53599,1755585441748,18.17,-63.35,-32.69,795,771,772,802,814,34.48275862068966,-0.322,-0.85,0.436
53629,1755585441778,18.1,-63.05,-32.59,801,772,769,803,818,33.333333333333336,-0.324,-0.85,0.441
53658,1755585441808,18.27,-62.73,-32.33,796,773,773,798,828,34.48275862068966,-0.322,-0.847,0.44
53688,1755585441837,18.36,-62.56,-32.16,797,776,765,799,820,33.333333333333336,-0.318,-0.842,0.434
53718,1755585441868,18.37,-62.55,-32.13,795,771,777,799,822,33.333333333333336,-0.315,-0.835,0.429
53747,1755585441896,18.39,-62.61,-32.13,795,764,766,789,830,34.48275862068966,-0.314,-0.831,0.431
53776,1755585441926,18.39,-62.64,-32.17,797,767,765,803,820,34.48275862068966,-0.317,-0.833,0.437
53806,1755585441955,18.38,-62.58,-32.2,793,776,767,798,820,33.333333333333336,-0.323,-0.835,0.44
53835,1755585441984,18.41,-62.56,-32.2,794,776,767,790,826,34.48275862068966,-0.329,-0.834,0.436
53865,1755585442014,18.45,-62.63,-32.17,797,772,775,796,832,33.333333333333336,-0.328,-0.832,0.436
53894,1755585442044,18.43,-62.7,-32.2,796,765,772,801,820,34.48275862068966,-0.326,-0.832,0.44
53924,1755585442073,18.45,-62.68,-32.21,794,775,770,798,826,33.333333333333336,-0.324,-0.834,0.442
53954,1755585442103,18.44,-62.66,-32.23,790,777,771,796,832,33.333333333333336,-0.326,-0.834,0.442
53983,1755585442132,18.49,-62.67,-32.2,796,776,770,798,827,34.48275862068966,-0.325,-0.832,0.442
54013,1755585442162,18.57,-62.71,-32.19,791,780,769,799,819,33.333333333333336,-0.324,-0.832,0.443
54042,1755585442192,18.58,-62.68,-32.22,793,778,761,791,816,34.48275862068966,-0.325,-0.833,0.443
54072,1755585442222,18.61,-62.66,-32.24,799,765,770,799,826,33.333333333333336,-0.326,-0.831,0.442
54102,1755585442251,18.64,-62.63,-32.27,799,773,770,789,826,33.333333333333336,-0.33,-0.832,0.443
54132,1755585442281,18.61,-62.61,-32.31,794,762,775,797,824,33.333333333333336,-0.329,-0.829,0.441
54161,1755585442311,18.69,-62.67,-32.34,786,772,769,811,825,34.48275862068966,-0.33,-0.832,0.441
54191,1755585442340,18.63,-62.66,-32.35,795,775,774,800,823,33.333333333333336,-0.328,-0.834,0.442
54220,1755585442370,18.7,-62.63,-32.33,799,770,770,803,823,34.48275862068966,-0.324,-0.834,0.444
54250,1755585442399,18.69,-62.57,-32.38,795,772,777,801,815,33.333333333333336,-0.329,-0.835,0.442
54280,1755585442429,18.68,-62.55,-32.4,791,767,775,800,826,33.333333333333336,-0.331,-0.834,0.435
54309,1755585442458,18.74,-62.59,-32.36,790,778,776,795,821,34.48275862068966,-0.331,-0.835,0.437
54339,1755585442488,18.69,-62.53,-32.38,799,773,770,794,822,33.333333333333336,-0.328,-0.834,0.44
54368,1755585442518,18.65,-62.49,-32.42,799,772,771,795,856,34.48275862068966,-0.325,-0.834,0.44
54398,1755585442547,18.68,-62.5,-32.42,802,781,775,795,817,33.333333333333336,-0.325,-0.835,0.44
54428,1755585442577,18.7,-62.47,-32.41,794,779,769,800,822,33.333333333333336,-0.324,-0.836,0.44
54457,1755585442606,18.72,-62.5,-32.39,803,779,769,792,813,34.48275862068966,-0.324,-0.834,0.441
54487,1755585442636,18.76,-62.5,-32.39,796,774,774,804,821,33.333333333333336,-0.325,-0.834,0.444
54516,1755585442666,18.73,-62.44,-32.4,799,775,767,802,832,34.48275862068966,-0.326,-0.833,0.441
54546,1755585442695,18.79,-62.46,-32.39,806,770,765,800,820,33.333333333333336,-0.326,-0.833,0.44
54575,1755585442725,18.81,-62.5,-32.37,793,773,772,806,821,34.48275862068966,-0.324,-0.834,0.442
54605,1755585442754,18.84,-62.52,-32.37,801,775,774,797,822,33.333333333333336,-0.326,-0.833,0.444
54635,1755585442784,18.91,-62.46,-32.35,801,767,769,803,825,33.333333333333336,-0.326,-0.831,0.444
54664,1755585442813,18.97,-62.46,-32.34,782,770,780,793,831,34.48275862068966,-0.325,-0.833,0.44
54693,1755585442842,18.99,-62.56,-32.34,803,768,771,802,825,34.48275862068966,-0.324,-0.833,0.438
54723,1755585442872,19.1,-62.64,-32.3,800,774,765,799,828,33.333333333333336,-0.324,-0.837,0.442
54752,1755585442901,19.1,-62.61,-32.32,794,773,770,798,820,34.48275862068966,-0.328,-0.84,0.444
54782,1755585442931,19.01,-62.47,-32.34,795,776,771,797,828,33.333333333333336,-0.33,-0.834,0.437
54812,1755585442961,19.15,-62.54,-32.3,795,782,762,795,830,33.333333333333336,-0.331,-0.831,0.436
54841,1755585442990,19.11,-62.48,-32.34,792,767,763,796,823,34.48275862068966,-0.333,-0.833,0.438
54871,1755585443020,19.02,-62.43,-32.39,797,779,766,794,825,33.333333333333336,-0.333,-0.833,0.432
54900,1755585443050,19.11,-62.5,-32.33,797,777,772,805,822,34.48275862068966,-0.332,-0.836,0.431
54930,1755585443079,19.1,-62.54,-32.28,794,769,770,792,825,33.333333333333336,-0.329,-0.836,0.435
54959,1755585443109,19.1,-62.54,-32.27,795,768,766,799,810,34.48275862068966,-0.326,-0.834,0.438
54989,1755585443138,19.17,-62.51,-32.26,802,775,772,799,823,33.333333333333336,-0.324,-0.834,0.441
55018,1755585443168,19.15,-62.45,-32.26,800,767,771,801,819,34.48275862068966,-0.325,-0.831,0.44
55048,1755585443198,19.16,-62.46,-32.3,786,778,774,795,829,33.333333333333336,-0.331,-0.83,0.436
55078,1755585443227,19.13,-62.5,-32.32,796,768,777,791,824,33.333333333333336,-0.335,-0.83,0.433
55108,1755585443257,19.15,-62.54,-32.3,794,768,771,800,822,33.333333333333336,-0.333,-0.833,0.438
55137,1755585443287,19.17,-62.53,-32.3,798,783,775,795,840,34.48275862068966,-0.329,-0.835,0.442
55167,1755585443316,19.19,-62.47,-32.3,794,766,771,798,830,33.333333333333336,-0.324,-0.835,0.44
55196,1755585443346,19.24,-62.43,-32.29,796,770,779,800,818,34.48275862068966,-0.323,-0.833,0.438
55226,1755585443375,19.27,-62.41,-32.33,801,773,756,805,826,33.333333333333336,-0.328,-0.833,0.436
55255,1755585443405,19.22,-62.38,-32.35,792,768,767,800,825,34.48275862068966,-0.333,-0.834,0.433
55285,1755585443434,19.27,-62.41,-32.31,797,777,776,788,839,33.333333333333336,-0.334,-0.832,0.43
55315,1755585443465,19.26,-62.51,-32.33,793,781,771,789,820,33.333333333333336,-0.331,-0.831,0.431
55335,1755585443484,19.24,-62.53,-32.35,795,772,767,794,830,50.0,-0.331,-0.83,0.435
55365,1755585443514,19.19,-62.51,-32.4,792,771,766,800,829,33.333333333333336,-0.328,-0.831,0.437
55394,1755585443543,19.24,-62.53,-32.41,789,779,780,789,827,34.48275862068966,-0.329,-0.835,0.438
55424,1755585443573,19.24,-62.51,-32.39,798,773,776,795,824,33.333333333333336,-0.332,-0.836,0.437
55453,1755585443602,19.25,-62.49,-32.39,803,782,767,797,827,34.48275862068966,-0.33,-0.833,0.435
55483,1755585443632,19.32,-62.54,-32.37,793,764,768,793,826,33.333333333333336,-0.327,-0.834,0.436
55512,1755585443662,19.27,-62.55,-32.42,799,777,771,799,826,34.48275862068966,-0.328,-0.835,0.434
55542,1755585443691,19.23,-62.53,-32.45,789,780,773,794,822,33.333333333333336,-0.333,-0.836,0.43
55572,1755585443721,19.22,-62.54,-32.42,797,771,769,803,821,33.333333333333336,-0.332,-0.835,0.43
55601,1755585443751,19.3,-62.63,-32.4,799,765,768,807,830,34.48275862068966,-0.328,-0.835,0.437
55631,1755585443780,19.24,-62.56,-32.45,794,775,770,806,818,33.333333333333336,-0.328,-0.836,0.437
55661,1755585443810,19.25,-62.56,-32.44,800,772,769,797,816,33.333333333333336,-0.327,-0.836,0.431
55690,1755585443840,19.29,-62.69,-32.43,801,766,774,800,823,34.48275862068966,-0.328,-0.834,0.431
55720,1755585443869,19.26,-62.64,-32.47,801,776,767,800,822,33.333333333333336,-0.331,-0.835,0.437
55749,1755585443899,19.29,-62.56,-32.46,801,775,762,799,821,34.48275862068966,-0.33,-0.838,0.435
55779,1755585443928,19.35,-62.64,-32.44,796,768,771,797,823,33.333333333333336,-0.329,-0.838,0.43
55808,1755585443958,19.41,-62.69,-32.43,800,772,778,795,821,34.48275862068966,-0.328,-0.835,0.432
55838,1755585443987,19.35,-62.65,-32.5,780,770,771,796,819,33.333333333333336,-0.327,-0.836,0.434
55868,1755585444017,19.33,-62.58,-32.53,787,778,776,806,821,33.333333333333336,-0.331,-0.839,0.434
55897,1755585444047,19.39,-62.59,-32.49,797,774,773,803,824,34.48275862068966,-0.333,-0.84,0.433
55927,1755585444076,19.39,-62.62,-32.47,796,781,773,804,822,33.333333333333336,-0.33,-0.836,0.433
55956,1755585444106,19.37,-62.65,-32.49,788,776,776,799,822,34.48275862068966,-0.326,-0.833,0.435
55986,1755585444135,19.33,-62.63,-32.55,792,776,766,802,830,33.333333333333336,-0.324,-0.835,0.434
56016,1755585444165,19.32,-62.65,-32.58,799,771,774,797,823,33.333333333333336,-0.325,-0.838,0.436
56046,1755585444195,19.36,-62.62,-32.56,791,773,781,805,820,33.333333333333336,-0.325,-0.838,0.437
56075,1755585444224,19.32,-62.59,-32.61,800,786,767,805,814,34.48275862068966,-0.326,-0.838,0.436
56105,1755585444254,19.25,-62.61,-32.63,792,768,780,805,823,33.333333333333336,-0.326,-0.834,0.428
56134,1755585444283,19.29,-62.69,-32.63,797,773,770,792,820,34.48275862068966,-0.327,-0.834,0.431
56164,1755585444313,19.25,-62.7,-32.65,794,775,768,805,824,33.333333333333336,-0.327,-0.836,0.434
56184,1755585444333,19.23,-62.71,-32.67,793,776,777,801,822,50.0,-0.327,-0.837,0.434
56213,1755585444363,19.24,-62.7,-32.66,788,771,774,798,826,34.48275862068966,-0.329,-0.837,0.433
56243,1755585444392,19.22,-62.7,-32.65,797,767,761,805,825,33.333333333333336,-0.329,-0.837,0.431
56273,1755585444422,19.22,-62.71,-32.64,791,778,764,794,826,33.333333333333336,-0.326,-0.839,0.43
56302,1755585444451,19.21,-62.72,-32.62,805,778,769,792,817,34.48275862068966,-0.321,-0.839,0.432
56332,1755585444481,19.28,-62.72,-32.6,792,780,771,799,821,33.333333333333336,-0.322,-0.84,0.434
56361,1755585444511,19.3,-62.66,-32.61,790,772,767,790,829,34.48275862068966,-0.327,-0.839,0.434
56391,1755585444540,19.34,-62.66,-32.6,802,768,772,793,808,33.333333333333336,-0.33,-0.838,0.428
56421,1755585444570,19.35,-62.68,-32.56,797,766,771,795,819,33.333333333333336,-0.33,-0.835,0.426
56450,1755585444600,19.32,-62.74,-32.58,797,772,770,798,834,34.48275862068966,-0.329,-0.834,0.429
56480,1755585444629,19.28,-62.74,-32.61,791,771,769,797,820,33.333333333333336,-0.326,-0.835,0.432
56510,1755585444659,19.29,-62.7,-32.59,794,774,774,798,819,33.333333333333336,-0.328,-0.839,0.433
56539,1755585444688,19.3,-62.68,-32.55,803,777,773,799,827,34.48275862068966,-0.327,-0.84,0.43
56569,1755585444718,19.34,-62.72,-32.51,797,770,768,799,831,33.333333333333336,-0.324,-0.838,0.429
56598,1755585444747,19.33,-62.7,-32.52,796,774,774,799,824,34.48275862068966,-0.323,-0.837,0.43
56628,1755585444777,19.27,-62.65,-32.54,799,770,768,803,827,33.333333333333336,-0.325,-0.837,0.43
56657,1755585444806,19.3,-62.69,-32.51,793,775,773,789,822,34.48275862068966,-0.329,-0.839,0.427
56687,1755585444836,19.32,-62.72,-32.45,795,761,775,793,832,33.333333333333336,-0.33,-0.838,0.428
56716,1755585444866,19.31,-62.73,-32.43,801,772,771,794,825,34.48275862068966,-0.326,-0.835,0.433
56746,1755585444895,19.31,-62.71,-32.47,792,779,770,800,824,33.333333333333336,-0.324,-0.836,0.434
56775,1755585444924,19.29,-62.65,-32.5,798,773,778,792,823,34.48275862068966,-0.328,-0.837,0.431
56805,1755585444954,19.3,-62.67,-32.48,787,767,767,787,819,33.333333333333336,-0.33,-0.836,0.43
56834,1755585444984,19.29,-62.63,-32.48,795,772,765,803,829,34.48275862068966,-0.331,-0.838,0.431
56864,1755585445013,19.26,-62.63,-32.49,800,776,770,796,825,33.333333333333336,-0.327,-0.837,0.429
56894,1755585445043,19.31,-62.69,-32.5,802,769,765,803,823,33.333333333333336,-0.326,-0.835,0.429
56923,1755585445072,19.29,-62.67,-32.52,803,765,766,801,832,34.48275862068966,-0.327,-0.837,0.43
56953,1755585445102,19.28,-62.67,-32.51,797,773,768,801,827,33.333333333333336,-0.326,-0.836,0.431
56982,1755585445131,19.32,-62.67,-32.52,801,770,771,802,825,34.48275862068966,-0.327,-0.835,0.435
57012,1755585445161,19.31,-62.66,-32.55,798,776,771,792,826,33.333333333333336,-0.33,-0.835,0.433
57042,1755585445191,19.32,-62.68,-32.54,794,774,766,792,823,33.333333333333336,-0.331,-0.835,0.429
57071,1755585445221,19.32,-62.72,-32.57,798,773,775,802,821,34.48275862068966,-0.328,-0.833,0.431
57101,1755585445250,19.32,-62.73,-32.61,793,774,773,796,826,33.333333333333336,-0.326,-0.835,0.433
57131,1755585445280,19.31,-62.73,-32.63,797,774,773,797,826,33.333333333333336,-0.326,-0.838,0.433
57160,1755585445309,19.36,-62.74,-32.62,796,779,769,795,812,34.48275862068966,-0.326,-0.84,0.432
57190,1755585445339,19.34,-62.71,-32.64,788,784,772,795,818,33.333333333333336,-0.327,-0.841,0.429
57219,1755585445368,19.35,-62.74,-32.62,800,781,769,793,818,34.48275862068966,-0.325,-0.839,0.43
57249,1755585445398,19.36,-62.7,-32.62,797,769,767,795,827,33.333333333333336,-0.326,-0.839,0.434
57278,1755585445428,19.35,-62.64,-32.63,802,777,773,797,817,34.48275862068966,-0.328,-0.839,0.431
57308,1755585445457,19.36,-62.67,-32.62,798,778,769,792,827,33.333333333333336,-0.33,-0.835,0.428
57338,1755585445487,19.38,-62.72,-32.63,790,777,773,798,823,33.333333333333336,-0.33,-0.836,0.43
57367,1755585445516,19.38,-62.71,-32.62,795,770,767,798,821,34.48275862068966,-0.33,-0.839,0.43
57397,1755585445546,19.41,-62.75,-32.61,802,774,763,797,820,33.333333333333336,-0.329,-0.839,0.428
57426,1755585445575,19.37,-62.75,-32.63,804,778,783,796,832,34.48275862068966,-0.328,-0.838,0.428
57455,1755585445605,19.37,-62.71,-32.62,794,772,768,797,823,34.48275862068966,-0.327,-0.839,0.428
57485,1755585445634,19.4,-62.75,-32.59,794,764,777,789,828,33.333333333333336,-0.326,-0.839,0.429
57514,1755585445663,19.39,-62.73,-32.6,789,780,769,797,832,34.48275862068966,-0.327,-0.838,0.43
57544,1755585445693,19.38,-62.72,-32.63,798,764,769,801,824,33.333333333333336,-0.328,-0.836,0.43
57573,1755585445723,19.39,-62.74,-32.62,798,767,771,794,826,34.48275862068966,-0.33,-0.836,0.431
57603,1755585445752,19.42,-62.74,-32.62,800,776,773,807,834,33.333333333333336,-0.329,-0.838,0.431
57633,1755585445782,19.43,-62.74,-32.63,798,775,771,797,822,33.333333333333336,-0.327,-0.839,0.428
57662,1755585445812,19.42,-62.74,-32.65,792,776,775,797,816,34.48275862068966,-0.329,-0.838,0.426
57692,1755585445841,19.38,-62.71,-32.66,796,780,772,804,825,33.333333333333336,-0.331,-0.839,0.425
57722,1755585445871,19.37,-62.74,-32.65,792,772,774,797,828,33.333333333333336,-0.329,-0.839,0.426
57751,1755585445900,19.39,-62.78,-32.65,799,769,781,792,829,34.48275862068966,-0.327,-0.839,0.43
57781,1755585445930,19.38,-62.73,-32.65,801,776,770,798,826,33.333333333333336,-0.325,-0.84,0.431
57810,1755585445959,19.38,-62.72,-32.65,795,780,761,805,830,34.48275862068966,-0.323,-0.838,0.43
57840,1755585445989,19.41,-62.74,-32.66,798,776,780,805,820,33.333333333333336,-0.325,-0.835,0.429
57869,1755585446018,19.39,-62.7,-32.69,796,771,772,794,827,34.48275862068966,-0.328,-0.837,0.43
57899,1755585446048,19.38,-62.7,-32.69,793,774,778,798,816,33.333333333333336,-0.33,-0.838,0.429
57928,1755585446077,19.42,-62.72,-32.66,795,766,777,794,826,34.48275862068966,-0.331,-0.84,0.428
57958,1755585446107,19.41,-62.72,-32.64,800,779,772,801,820,33.333333333333336,-0.329,-0.84,0.426
57987,1755585446137,19.42,-62.72,-32.62,798,761,780,803,822,34.48275862068966,-0.327,-0.839,0.427
58017,1755585446166,19.42,-62.69,-32.61,794,779,773,798,819,33.333333333333336,-0.327,-0.84,0.429
58046,1755585446196,19.42,-62.68,-32.59,792,774,775,801,822,34.48275862068966,-0.326,-0.838,0.431
58076,1755585446225,19.43,-62.66,-32.59,798,778,784,797,825,33.333333333333336,-0.326,-0.837,0.431
58105,1755585446255,19.46,-62.65,-32.6,789,771,778,792,821,34.48275862068966,-0.329,-0.837,0.431
58135,1755585446284,19.45,-62.63,-32.59,798,773,769,797,822,33.333333333333336,-0.329,-0.837,0.427
58165,1755585446314,19.47,-62.7,-32.57,795,779,771,800,828,33.333333333333336,-0.331,-0.836,0.428
58195,1755585446344,19.46,-62.71,-32.58,801,766,778,797,823,33.333333333333336,-0.329,-0.835,0.431
58224,1755585446374,19.46,-62.7,-32.61,801,767,774,795,821,34.48275862068966,-0.327,-0.837,0.433
58254,1755585446403,19.41,-62.66,-32.63,789,776,769,795,824,33.333333333333336,-0.328,-0.838,0.431
58283,1755585446433,19.47,-62.69,-32.6,798,773,770,797,827,34.48275862068966,-0.329,-0.837,0.43
58313,1755585446462,19.48,-62.69,-32.6,796,767,772,800,821,33.333333333333336,-0.33,-0.836,0.43
58342,1755585446492,19.49,-62.68,-32.6,800,774,776,790,812,34.48275862068966,-0.328,-0.836,0.43
58372,1755585446521,19.52,-62.69,-32.59,791,769,770,795,834,33.333333333333336,-0.326,-0.837,0.431
58402,1755585446551,19.56,-62.69,-32.59,798,781,768,797,825,33.333333333333336,-0.326,-0.838,0.433
58431,1755585446580,19.54,-62.65,-32.61,801,779,775,797,831,34.48275862068966,-0.328,-0.836,0.431
58461,1755585446610,19.52,-62.68,-32.64,795,772,776,785,837,33.333333333333336,-0.33,-0.834,0.425
58490,1755585446640,19.57,-62.77,-32.64,799,777,769,799,818,34.48275862068966,-0.331,-0.835,0.433
58520,1755585446669,19.6,-62.79,-32.64,799,773,772,798,825,33.333333333333336,-0.33,-0.836,0.437
58549,1755585446699,19.62,-62.72,-32.7,793,767,772,800,827,34.48275862068966,-0.331,-0.838,0.435
58579,1755585446728,19.62,-62.72,-32.71,802,779,774,803,823,33.333333333333336,-0.334,-0.838,0.426
58609,1755585446758,19.68,-62.79,-32.66,799,781,765,798,823,33.333333333333336,-0.335,-0.838,0.423
58638,1755585446787,19.6,-62.8,-32.71,796,771,771,798,821,34.48275862068966,-0.332,-0.838,0.425
58668,1755585446817,19.57,-62.82,-32.73,800,781,770,808,828,33.333333333333336,-0.328,-0.838,0.427
58697,1755585446847,19.62,-62.84,-32.7,796,776,771,802,830,34.48275862068966,-0.328,-0.84,0.429
58727,1755585446876,19.59,-62.85,-32.68,800,770,768,797,828,33.333333333333336,-0.329,-0.838,0.427
58756,1755585446905,19.55,-62.88,-32.74,798,774,777,807,832,34.48275862068966,-0.328,-0.836,0.427
58786,1755585446935,19.55,-62.9,-32.75,796,773,778,810,832,33.333333333333336,-0.331,-0.841,0.429
58815,1755585446964,19.54,-62.91,-32.71,795,771,768,790,824,34.48275862068966,-0.331,-0.843,0.426
58845,1755585446994,19.54,-62.89,-32.69,802,774,772,800,828,33.333333333333336,-0.332,-0.842,0.424
58875,1755585447024,19.43,-62.87,-32.72,802,766,774,801,832,33.333333333333336,-0.334,-0.839,0.422
58904,1755585447053,19.28,-62.94,-32.75,798,773,773,802,828,34.48275862068966,-0.331,-0.837,0.417
58934,1755585447083,19.15,-63.31,-32.74,795,774,771,804,813,33.333333333333336,-0.326,-0.839,0.42
58963,1755585447113,19.13,-63.5,-32.71,797,772,778,801,821,34.48275862068966,-0.328,-0.841,0.427
58993,1755585447142,19.09,-63.49,-32.73,791,777,773,796,825,33.333333333333336,-0.325,-0.841,0.43
59022,1755585447172,19.07,-63.5,-32.76,787,773,769,805,821,34.48275862068966,-0.325,-0.843,0.43
59052,1755585447201,19.04,-63.48,-32.78,800,775,770,793,820,33.333333333333336,-0.326,-0.846,0.427
59082,1755585447231,19.02,-63.41,-32.76,797,770,777,794,830,33.333333333333336,-0.323,-0.844,0.425
59111,1755585447261,19.08,-63.36,-32.76,792,774,762,799,827,34.48275862068966,-0.321,-0.844,0.422
59141,1755585447290,19.01,-63.33,-32.79,797,768,781,801,829,33.333333333333336,-0.321,-0.844,0.423
59171,1755585447320,19.04,-63.25,-32.78,797,769,769,796,822,33.333333333333336,-0.318,-0.841,0.426
59200,1755585447350,19.13,-63.18,-32.79,793,775,774,791,822,34.48275862068966,-0.321,-0.844,0.424
59230,1755585447379,19.05,-63.1,-32.82,799,765,772,797,831,33.333333333333336,-0.327,-0.844,0.419
59260,1755585447409,19.02,-63.12,-32.83,792,776,767,795,823,33.333333333333336,-0.328,-0.839,0.418
59289,1755585447438,19.1,-63.16,-32.78,796,773,766,802,821,34.48275862068966,-0.327,-0.841,0.423
59319,1755585447468,19.04,-63.14,-32.76,795,777,773,796,823,33.333333333333336,-0.324,-0.844,0.425
59348,1755585447497,19.03,-63.15,-32.74,795,776,779,795,824,34.48275862068966,-0.321,-0.841,0.425
59378,1755585447527,19.11,-63.16,-32.7,794,774,772,795,825,33.333333333333336,-0.322,-0.842,0.427
59407,1755585447556,19.07,-63.05,-32.71,797,765,771,800,826,34.48275862068966,-0.319,-0.838,0.426
59437,1755585447586,19.11,-63.06,-32.76,797,780,774,798,825,33.333333333333336,-0.318,-0.834,0.428
59466,1755585447616,19.1,-63.07,-32.81,796,780,764,795,817,34.48275862068966,-0.321,-0.836,0.424
59496,1755585447646,19.21,-63.19,-32.75,799,774,768,794,823,33.333333333333336,-0.325,-0.836,0.416
59526,1755585447675,19.29,-63.38,-32.7,793,780,773,794,833,33.333333333333336,-0.329,-0.84,0.418
59556,1755585447705,19.27,-63.43,-32.69,795,779,777,798,822,33.333333333333336,-0.325,-0.841,0.424
59585,1755585447735,19.31,-63.42,-32.69,795,773,769,792,831,34.48275862068966,-0.323,-0.845,0.429
59615,1755585447764,19.28,-63.33,-32.68,791,776,770,803,822,33.333333333333336,-0.325,-0.846,0.426
59644,1755585447793,19.32,-63.34,-32.65,792,773,767,808,832,34.48275862068966,-0.324,-0.842,0.423
59674,1755585447823,19.36,-63.35,-32.65,798,774,767,794,827,33.333333333333336,-0.324,-0.841,0.422
59703,1755585447852,19.33,-63.34,-32.67,793,766,773,801,826,34.48275862068966,-0.325,-0.842,0.422
59733,1755585447882,19.33,-63.32,-32.69,796,775,774,799,813,33.333333333333336,-0.324,-0.842,0.422
59762,1755585447911,19.4,-63.32,-32.68,799,771,773,800,834,34.48275862068966,-0.327,-0.843,0.421
59792,1755585447942,19.47,-63.28,-32.68,796,773,771,797,811,33.333333333333336,-0.33,-0.843,0.423
59812,1755585447961,19.48,-63.23,-32.7,792,768,766,801,818,50.0,-0.331,-0.843,0.419
59841,1755585447991,19.49,-63.24,-32.69,790,772,774,796,823,34.48275862068966,-0.334,-0.842,0.412
59871,1755585448020,19.52,-63.25,-32.64,801,773,770,797,824,33.333333333333336,-0.335,-0.842,0.41
59901,1755585448050,19.48,-63.31,-32.63,801,773,776,801,855,33.333333333333336,-0.328,-0.84,0.415
59930,1755585448079,19.5,-63.34,-32.66,794,780,770,796,827,34.48275862068966,-0.322,-0.839,0.424
59960,1755585448109,19.49,-63.23,-32.7,797,774,775,794,822,33.333333333333336,-0.325,-0.845,0.425
59989,1755585448138,19.51,-63.19,-32.64,785,775,769,802,828,34.48275862068966,-0.326,-0.844,0.42
60019,1755585448168,19.63,-63.25,-32.58,797,777,772,797,831,33.333333333333336,-0.326,-0.841,0.421
60048,1755585448197,19.56,-63.14,-32.63,799,775,767,792,822,34.48275862068966,-0.331,-0.841,0.422
60078,1755585448227,19.51,-63.11,-32.65,805,772,771,803,828,33.333333333333336,-0.332,-0.839,0.414
60107,1755585448257,19.63,-63.27,-32.58,804,780,782,818,819,34.48275862068966,-0.332,-0.841,0.415
60137,1755585448286,19.58,-63.26,-32.57,797,770,771,798,825,33.333333333333336,-0.332,-0.846,0.423
60167,1755585448316,19.58,-63.12,-32.54,797,772,765,794,821,33.333333333333336,-0.327,-0.842,0.424
60196,1755585448346,19.63,-63.08,-32.53,791,771,772,795,824,34.48275862068966,-0.329,-0.842,0.42
60226,1755585448376,19.56,-63.09,-32.53,793,779,768,797,829,33.333333333333336,-0.333,-0.839,0.417
60256,1755585448405,19.58,-63.12,-32.52,792,769,773,796,822,33.333333333333336,-0.334,-0.839,0.419
60285,1755585448434,19.54,-63.12,-32.54,801,772,776,797,821,34.48275862068966,-0.332,-0.841,0.423
60315,1755585448464,19.48,-63.03,-32.58,785,775,776,794,831,33.333333333333336,-0.329,-0.84,0.427
60344,1755585448494,19.52,-63.02,-32.6,797,772,781,799,826,34.48275862068966,-0.324,-0.839,0.427
60365,1755585448514,19.56,-63.0,-32.62,797,775,770,788,827,47.61904761904762,-0.327,-0.84,0.428
60394,1755585448544,19.52,-62.95,-32.65,800,776,770,786,815,34.48275862068966,-0.331,-0.837,0.422
