timestamp_ms,recv_timestamp_ms,pitch,roll,yaw,flex1,flex2,flex3,flex4,flex5,sampling_hz,accel_x,accel_y,accel_z
15527,1755584951989,52.87,-55.41,-33.58,848,772,784,752,826,33.333333333333336,-0.757,-0.598,0.272
15556,1755584952018,52.76,-55.53,-33.54,838,771,773,747,815,34.48275862068966,-0.757,-0.598,0.268
15586,1755584952048,52.72,-55.82,-33.55,846,771,768,749,817,33.333333333333336,-0.756,-0.601,0.271
15615,1755584952077,52.8,-55.98,-33.51,839,756,772,753,818,34.48275862068966,-0.755,-0.599,0.275
15645,1755584952107,52.7,-56.17,-33.51,841,768,775,746,822,33.333333333333336,-0.755,-0.6,0.278
15674,1755584952136,52.51,-56.24,-33.47,838,761,774,748,817,34.48275862068966,-0.751,-0.593,0.276
15704,1755584952166,52.44,-56.3,-33.53,842,782,767,748,821,33.333333333333336,-0.752,-0.588,0.274
15734,1755584952196,52.37,-56.38,-33.59,838,765,770,752,818,33.333333333333336,-0.759,-0.59,0.268
15763,1755584952225,52.14,-56.46,-33.58,844,769,777,755,804,34.48275862068966,-0.761,-0.595,0.266
15793,1755584952255,52.02,-56.67,-33.63,839,773,766,748,808,33.333333333333336,-0.756,-0.595,0.268
15823,1755584952285,51.93,-56.71,-33.62,839,774,773,748,817,33.333333333333336,-0.762,-0.598,0.278
15852,1755584952314,51.58,-56.59,-33.56,840,767,773,744,812,34.48275862068966,-0.757,-0.597,0.282
15882,1755584952344,51.5,-56.7,-33.58,838,772,771,749,814,33.333333333333336,-0.747,-0.594,0.278
15911,1755584952373,51.67,-57.0,-33.61,841,789,769,751,820,34.48275862068966,-0.752,-0.597,0.28
15941,1755584952403,51.56,-57.03,-33.6,841,764,770,745,816,33.333333333333336,-0.759,-0.599,0.289
15971,1755584952432,51.34,-56.83,-33.53,834,770,783,751,817,33.333333333333336,-0.749,-0.589,0.288
16000,1755584952462,51.39,-57.05,-33.59,836,768,771,752,814,34.48275862068966,-0.755,-0.591,0.288
16029,1755584952491,51.16,-57.05,-33.56,838,767,769,746,829,34.48275862068966,-0.756,-0.597,0.285
16059,1755584952521,51.05,-57.15,-33.53,844,768,772,743,820,33.333333333333336,-0.752,-0.594,0.284
16088,1755584952550,51.21,-57.36,-33.57,845,767,777,752,820,34.48275862068966,-0.75,-0.594,0.293
16118,1755584952580,51.13,-57.29,-33.49,841,775,769,741,819,33.333333333333336,-0.75,-0.595,0.297
16147,1755584952609,51.12,-57.44,-33.5,841,772,768,745,813,34.48275862068966,-0.748,-0.593,0.294
16177,1755584952639,51.21,-57.6,-33.54,846,777,768,752,813,33.333333333333336,-0.749,-0.589,0.293
16206,1755584952668,51.1,-57.67,-33.53,842,763,768,750,808,34.48275862068966,-0.754,-0.59,0.291
16236,1755584952698,50.97,-57.69,-33.48,841,766,776,746,828,33.333333333333336,-0.753,-0.589,0.289
16266,1755584952728,51.04,-57.83,-33.48,842,773,777,752,820,33.333333333333336,-0.752,-0.589,0.292
16296,1755584952758,51.01,-58.04,-33.52,841,768,772,755,816,33.333333333333336,-0.751,-0.591,0.295
16325,1755584952787,50.92,-58.13,-33.53,841,772,773,748,824,34.48275862068966,-0.751,-0.592,0.297
16355,1755584952817,50.99,-58.19,-33.54,837,761,775,749,820,33.333333333333336,-0.751,-0.589,0.299
16384,1755584952847,50.9,-58.23,-33.53,839,772,774,746,831,34.48275862068966,-0.751,-0.587,0.296
16414,1755584952876,50.84,-58.45,-33.51,842,767,776,750,819,33.333333333333336,-0.751,-0.587,0.29
16443,1755584952906,50.92,-58.86,-33.57,842,773,776,745,813,34.48275862068966,-0.749,-0.589,0.291
16473,1755584952935,50.79,-58.95,-33.61,840,774,760,743,817,33.333333333333336,-0.753,-0.593,0.295
16503,1755584952966,50.82,-58.91,-33.6,835,773,776,741,817,33.333333333333336,-0.754,-0.593,0.297
16523,1755584952985,50.88,-58.92,-33.58,845,770,773,751,819,50.0,-0.755,-0.594,0.301
16543,1755584953005,50.9,-58.91,-33.55,841,766,773,754,813,50.0,-0.754,-0.594,0.304
16572,1755584953034,50.74,-58.85,-33.53,843,775,775,751,823,34.48275862068966,-0.753,-0.596,0.301
16602,1755584953064,50.43,-58.66,-33.5,844,774,770,749,816,33.333333333333336,-0.746,-0.59,0.293
16631,1755584953093,50.49,-58.93,-33.6,851,766,774,750,809,34.48275862068966,-0.746,-0.587,0.286
16661,1755584953123,50.71,-59.16,-33.68,843,774,763,742,822,33.333333333333336,-0.755,-0.594,0.294
16691,1755584953153,50.54,-59.06,-33.62,841,764,779,748,821,33.333333333333336,-0.754,-0.596,0.303
16720,1755584953182,50.65,-58.91,-33.59,842,771,777,748,829,34.48275862068966,-0.751,-0.593,0.307
16750,1755584953212,50.75,-58.91,-33.59,841,772,770,746,822,33.333333333333336,-0.751,-0.591,0.303
16779,1755584953241,50.51,-58.85,-33.55,840,780,770,743,821,34.48275862068966,-0.754,-0.591,0.297
16809,1755584953271,50.43,-58.75,-33.55,839,767,778,753,829,33.333333333333336,-0.76,-0.589,0.297
16839,1755584953301,50.14,-58.67,-33.52,837,773,773,747,812,33.333333333333336,-0.753,-0.587,0.296
16868,1755584953330,50.1,-58.72,-33.52,837,765,792,753,822,34.48275862068966,-0.755,-0.591,0.305
16898,1755584953360,49.83,-58.59,-33.45,839,769,776,752,820,33.333333333333336,-0.754,-0.587,0.307
16927,1755584953389,49.58,-58.57,-33.45,843,777,779,747,810,34.48275862068966,-0.748,-0.581,0.306
16957,1755584953419,49.74,-58.77,-33.47,842,764,778,748,823,33.333333333333336,-0.751,-0.584,0.312
16987,1755584953449,49.68,-58.81,-33.43,841,775,777,753,827,33.333333333333336,-0.752,-0.585,0.319
17016,1755584953478,49.61,-58.85,-33.41,839,772,771,747,821,34.48275862068966,-0.745,-0.58,0.315
17046,1755584953508,49.76,-58.94,-33.42,852,763,788,747,819,33.333333333333336,-0.749,-0.58,0.315
17075,1755584953538,49.69,-59.0,-33.4,834,774,776,751,809,34.48275862068966,-0.751,-0.579,0.316
17095,1755584953557,49.63,-59.06,-33.39,842,773,774,750,834,50.0,-0.749,-0.577,0.315
17125,1755584953587,49.68,-59.16,-33.41,839,776,773,746,811,33.333333333333336,-0.746,-0.58,0.315
17154,1755584953616,49.7,-59.21,-33.39,846,775,772,746,816,34.48275862068966,-0.751,-0.584,0.317
17184,1755584953646,49.65,-59.26,-33.37,834,775,778,752,810,33.333333333333336,-0.748,-0.582,0.317
17213,1755584953676,49.69,-59.34,-33.4,836,773,778,746,813,34.48275862068966,-0.749,-0.58,0.317
17243,1755584953705,49.63,-59.41,-33.39,831,773,777,745,824,33.333333333333336,-0.749,-0.584,0.317
17273,1755584953735,49.67,-59.43,-33.35,838,772,774,743,813,33.333333333333336,-0.747,-0.582,0.319
17302,1755584953764,49.72,-59.42,-33.39,833,766,769,744,817,34.48275862068966,-0.75,-0.581,0.319
17332,1755584953794,49.7,-59.39,-33.42,833,764,773,747,814,33.333333333333336,-0.752,-0.584,0.316
17362,1755584953823,49.68,-59.27,-33.4,843,770,764,737,814,33.333333333333336,-0.747,-0.58,0.318
17391,1755584953853,49.69,-59.16,-33.41,837,769,775,748,810,34.48275862068966,-0.747,-0.583,0.325
17421,1755584953883,49.65,-59.0,-33.41,842,769,779,752,828,33.333333333333336,-0.751,-0.583,0.327
17450,1755584953912,49.63,-59.04,-33.46,833,772,778,747,795,34.48275862068966,-0.749,-0.579,0.321
17480,1755584953942,49.63,-59.02,-33.48,836,779,777,756,822,33.333333333333336,-0.75,-0.578,0.318
17509,1755584953972,49.47,-59.04,-33.5,841,760,773,754,818,34.48275862068966,-0.748,-0.58,0.315
17529,1755584953992,49.39,-59.12,-33.54,832,770,774,746,816,50.0,-0.743,-0.58,0.312
17559,1755584954021,49.45,-59.27,-33.62,841,772,776,748,815,33.333333333333336,-0.748,-0.582,0.316
17589,1755584954051,49.3,-59.29,-33.62,838,770,767,742,813,33.333333333333336,-0.744,-0.583,0.32
17619,1755584954081,49.29,-59.34,-33.61,844,768,772,747,818,33.333333333333336,-0.746,-0.585,0.322
17648,1755584954110,49.28,-59.35,-33.57,834,779,772,753,805,34.48275862068966,-0.743,-0.585,0.32
17678,1755584954140,49.18,-59.47,-33.59,837,772,773,752,816,33.333333333333336,-0.739,-0.583,0.319
17707,1755584954169,49.25,-59.54,-33.62,836,773,772,750,819,34.48275862068966,-0.744,-0.583,0.324
17737,1755584954199,49.17,-59.47,-33.59,839,762,774,744,808,33.333333333333336,-0.747,-0.584,0.326
17766,1755584954228,49.14,-59.54,-33.57,838,781,780,750,818,34.48275862068966,-0.745,-0.583,0.322
17796,1755584954258,49.19,-59.67,-33.56,844,774,773,751,816,33.333333333333336,-0.743,-0.583,0.32
17826,1755584954288,49.06,-59.7,-33.53,833,774,781,750,804,33.333333333333336,-0.743,-0.582,0.324
17856,1755584954317,49.08,-59.72,-33.54,837,766,773,753,814,33.333333333333336,-0.741,-0.582,0.326
17885,1755584954347,49.11,-59.78,-33.53,837,776,773,746,823,34.48275862068966,-0.744,-0.585,0.325
17915,1755584954377,49.03,-59.81,-33.5,836,776,774,745,818,33.333333333333336,-0.745,-0.584,0.323
17944,1755584954407,49.06,-59.9,-33.52,835,769,776,748,819,34.48275862068966,-0.743,-0.582,0.323
17974,1755584954436,49.05,-60.02,-33.56,838,775,775,746,808,33.333333333333336,-0.744,-0.582,0.325
18004,1755584954466,49.0,-59.98,-33.54,832,771,769,745,822,33.333333333333336,-0.745,-0.583,0.326
18033,1755584954495,48.97,-60.09,-33.57,841,769,772,746,828,34.48275862068966,-0.744,-0.582,0.322
18063,1755584954525,49.01,-60.2,-33.62,840,774,776,742,815,33.333333333333336,-0.746,-0.583,0.324
18093,1755584954555,48.86,-60.13,-33.61,838,781,775,754,810,33.333333333333336,-0.743,-0.582,0.324
18113,1755584954575,48.83,-60.14,-33.64,834,768,778,758,814,50.0,-0.741,-0.583,0.325
18142,1755584954604,48.91,-60.1,-33.64,843,771,772,747,808,34.48275862068966,-0.744,-0.585,0.325
18172,1755584954634,48.84,-60.05,-33.6,838,776,776,749,814,33.333333333333336,-0.748,-0.585,0.324
18201,1755584954663,48.84,-60.03,-33.59,835,767,767,741,822,34.48275862068966,-0.743,-0.584,0.324
18231,1755584954693,48.83,-59.96,-33.58,839,768,772,752,817,33.333333333333336,-0.741,-0.583,0.323
18260,1755584954723,48.79,-59.95,-33.57,841,780,773,745,808,34.48275862068966,-0.743,-0.585,0.322
18290,1755584954752,48.79,-60.08,-33.6,843,772,776,765,812,33.333333333333336,-0.744,-0.587,0.321
18320,1755584954781,48.79,-60.17,-33.61,836,776,774,745,819,33.333333333333336,-0.745,-0.587,0.321
18349,1755584954811,48.76,-60.19,-33.59,843,769,767,748,823,34.48275862068966,-0.744,-0.585,0.323
18379,1755584954841,48.77,-60.22,-33.62,837,767,780,746,809,33.333333333333336,-0.743,-0.584,0.324
18408,1755584954871,48.8,-60.26,-33.64,839,771,778,747,817,34.48275862068966,-0.742,-0.585,0.325
18438,1755584954900,48.83,-60.28,-33.62,835,771,761,757,834,33.333333333333336,-0.745,-0.587,0.324
18468,1755584954930,48.83,-60.34,-33.63,832,772,758,748,820,33.333333333333336,-0.745,-0.586,0.32
18497,1755584954959,48.83,-60.43,-33.65,839,762,767,754,814,34.48275862068966,-0.744,-0.586,0.32
18527,1755584954989,48.84,-60.48,-33.65,831,772,774,751,819,33.333333333333336,-0.742,-0.587,0.322
18556,1755584955018,48.8,-60.4,-33.65,837,769,775,743,817,34.48275862068966,-0.746,-0.587,0.325
18586,1755584955048,48.81,-60.41,-33.65,839,775,773,752,807,33.333333333333336,-0.745,-0.586,0.322
18615,1755584955077,48.85,-60.52,-33.68,831,766,777,750,809,34.48275862068966,-0.743,-0.587,0.32
18645,1755584955107,48.9,-60.55,-33.69,852,771,777,748,813,33.333333333333336,-0.744,-0.588,0.319
18675,1755584955137,48.86,-60.53,-33.67,840,770,770,749,814,33.333333333333336,-0.744,-0.589,0.318
18704,1755584955166,48.84,-60.66,-33.68,839,772,785,748,821,34.48275862068966,-0.742,-0.589,0.314
18734,1755584955196,48.85,-60.79,-33.71,837,770,777,751,818,33.333333333333336,-0.742,-0.589,0.318
18763,1755584955225,48.9,-60.69,-33.67,838,772,785,753,818,34.48275862068966,-0.748,-0.591,0.324
18793,1755584955255,48.83,-60.64,-33.63,840,771,771,750,813,33.333333333333336,-0.743,-0.589,0.32
18822,1755584955284,48.89,-60.71,-33.62,842,769,778,747,812,34.48275862068966,-0.742,-0.589,0.316
18852,1755584955314,48.97,-60.77,-33.63,835,770,765,748,822,33.333333333333336,-0.745,-0.589,0.316
18882,1755584955344,48.78,-60.78,-33.64,835,776,775,753,816,33.333333333333336,-0.743,-0.587,0.316
18911,1755584955373,48.92,-60.8,-33.65,839,772,768,757,820,34.48275862068966,-0.745,-0.589,0.319
18941,1755584955403,48.82,-60.78,-33.6,840,764,768,745,812,33.333333333333336,-0.744,-0.59,0.317
18970,1755584955433,48.8,-60.83,-33.62,843,774,770,747,805,34.48275862068966,-0.741,-0.589,0.315
19000,1755584955462,48.87,-60.91,-33.65,836,780,775,744,820,33.333333333333336,-0.743,-0.588,0.315
19030,1755584955492,48.77,-60.91,-33.65,838,776,770,749,818,33.333333333333336,-0.746,-0.592,0.315
19059,1755584955521,48.77,-60.87,-33.63,839,771,769,754,813,34.48275862068966,-0.743,-0.589,0.315
19089,1755584955551,48.79,-60.89,-33.65,840,769,778,743,818,33.333333333333336,-0.743,-0.589,0.316
19118,1755584955580,48.75,-60.89,-33.65,839,777,779,747,853,34.48275862068966,-0.741,-0.591,0.314
19148,1755584955610,48.78,-60.94,-33.67,843,759,773,751,816,33.333333333333336,-0.742,-0.59,0.314
19177,1755584955640,48.83,-60.98,-33.7,830,770,771,750,818,34.48275862068966,-0.744,-0.591,0.316
19207,1755584955669,48.8,-60.96,-33.71,836,776,780,753,812,33.333333333333336,-0.744,-0.592,0.315
19237,1755584955699,48.79,-60.99,-33.73,842,764,773,750,815,33.333333333333336,-0.743,-0.592,0.313
19266,1755584955729,48.78,-61.03,-33.78,839,765,778,751,814,34.48275862068966,-0.743,-0.593,0.313
19296,1755584955758,48.8,-61.04,-33.76,829,768,772,752,810,33.333333333333336,-0.743,-0.593,0.316
19325,1755584955788,48.81,-61.0,-33.76,836,770,774,747,813,34.48275862068966,-0.741,-0.591,0.318
19355,1755584955817,48.79,-61.11,-33.81,838,769,777,747,826,33.333333333333336,-0.742,-0.592,0.312
19385,1755584955847,48.71,-61.29,-33.84,830,762,767,746,819,33.333333333333336,-0.742,-0.593,0.306
19414,1755584955876,48.73,-61.32,-33.83,825,776,774,755,811,34.48275862068966,-0.742,-0.593,0.311
19444,1755584955906,48.64,-61.41,-33.89,835,769,774,749,824,33.333333333333336,-0.74,-0.595,0.314
19474,1755584955936,48.58,-61.54,-33.92,838,776,769,746,811,33.333333333333336,-0.739,-0.596,0.311
19494,1755584955956,48.63,-61.59,-33.92,834,762,769,747,822,50.0,-0.739,-0.597,0.313
19524,1755584955986,48.64,-61.46,-33.89,835,768,768,745,813,33.333333333333336,-0.739,-0.596,0.317
19553,1755584956016,48.54,-61.43,-33.89,833,775,771,745,822,34.48275862068966,-0.742,-0.597,0.314
19583,1755584956045,48.62,-61.47,-33.86,838,775,771,747,813,33.333333333333336,-0.742,-0.596,0.31
19613,1755584956075,48.62,-61.51,-33.85,841,779,770,749,816,33.333333333333336,-0.738,-0.593,0.311
19642,1755584956104,48.67,-61.52,-33.88,841,767,773,741,833,34.48275862068966,-0.74,-0.594,0.312
19672,1755584956134,48.64,-61.6,-33.9,834,767,772,754,822,33.333333333333336,-0.739,-0.595,0.312
19701,1755584956164,48.75,-61.62,-33.89,840,775,772,746,811,34.48275862068966,-0.741,-0.595,0.314
19731,1755584956193,48.76,-61.6,-33.86,848,772,772,748,817,33.333333333333336,-0.741,-0.595,0.314
19761,1755584956223,48.73,-61.61,-33.86,835,774,774,751,819,33.333333333333336,-0.738,-0.593,0.308
19791,1755584956252,48.79,-61.72,-33.89,848,770,782,742,806,33.333333333333336,-0.738,-0.595,0.305
19820,1755584956282,48.7,-61.79,-33.91,834,781,776,752,820,34.48275862068966,-0.74,-0.596,0.306
19850,1755584956312,48.62,-61.8,-33.94,843,771,771,744,812,33.333333333333336,-0.739,-0.596,0.307
19879,1755584956341,48.68,-61.76,-33.95,835,767,775,748,818,34.48275862068966,-0.739,-0.598,0.312
19909,1755584956371,48.73,-61.76,-33.96,854,767,772,745,819,33.333333333333336,-0.74,-0.597,0.311
19938,1755584956400,48.72,-61.76,-33.96,833,767,776,750,819,34.48275862068966,-0.739,-0.597,0.308
19968,1755584956430,48.78,-61.75,-33.96,832,775,770,746,813,33.333333333333336,-0.741,-0.596,0.306
19997,1755584956460,48.72,-61.73,-33.96,841,781,782,751,818,34.48275862068966,-0.741,-0.597,0.308
20027,1755584956489,48.72,-61.78,-33.97,833,762,782,741,813,33.333333333333336,-0.741,-0.599,0.307
20057,1755584956519,48.82,-61.8,-33.98,837,776,775,745,812,33.333333333333336,-0.741,-0.598,0.31
20086,1755584956549,48.77,-61.75,-33.95,836,774,766,744,814,34.48275862068966,-0.74,-0.597,0.31
20116,1755584956578,48.76,-61.76,-33.97,832,767,777,761,835,33.333333333333336,-0.739,-0.597,0.306
20146,1755584956608,48.79,-61.8,-33.99,837,771,787,747,810,33.333333333333336,-0.741,-0.596,0.304
20175,1755584956637,48.72,-61.87,-34.0,838,770,772,747,823,34.48275862068966,-0.741,-0.596,0.305
20205,1755584956667,48.71,-61.85,-34.0,837,760,782,751,831,33.333333333333336,-0.742,-0.598,0.308
20234,1755584956697,48.68,-61.83,-34.0,838,777,775,749,812,34.48275862068966,-0.739,-0.596,0.308
20264,1755584956726,48.71,-61.9,-34.02,840,775,774,744,818,33.333333333333336,-0.74,-0.599,0.307
20294,1755584956756,48.68,-61.91,-34.02,833,775,767,747,815,33.333333333333336,-0.741,-0.599,0.307
20324,1755584956786,48.6,-61.93,-34.02,839,769,768,752,809,33.333333333333336,-0.74,-0.597,0.308
20353,1755584956815,48.66,-61.92,-34.04,835,770,772,752,822,34.48275862068966,-0.74,-0.597,0.31
20383,1755584956845,48.58,-61.9,-34.04,837,768,781,750,821,33.333333333333336,-0.74,-0.599,0.308
20412,1755584956874,48.6,-61.97,-34.04,832,761,771,742,816,34.48275862068966,-0.739,-0.597,0.305
20442,1755584956904,48.64,-62.01,-34.06,833,766,771,756,817,33.333333333333336,-0.739,-0.598,0.308
20471,1755584956934,48.57,-61.93,-34.05,828,767,767,744,818,34.48275862068966,-0.74,-0.599,0.306
20501,1755584956963,48.62,-62.02,-34.07,839,770,767,743,826,33.333333333333336,-0.74,-0.601,0.302
20531,1755584956993,48.64,-62.08,-34.08,833,777,771,752,815,33.333333333333336,-0.74,-0.599,0.307
20560,1755584957023,48.59,-62.1,-34.09,832,775,767,748,835,34.48275862068966,-0.739,-0.597,0.308
20590,1755584957052,48.59,-62.03,-34.09,836,771,774,746,815,33.333333333333336,-0.741,-0.598,0.308
20620,1755584957082,48.56,-62.1,-34.1,829,766,770,750,809,33.333333333333336,-0.743,-0.601,0.306
20649,1755584957112,48.5,-62.19,-33.98,834,767,768,742,817,34.48275862068966,-0.736,-0.597,0.304
20679,1755584957141,48.36,-62.14,-33.92,837,769,776,747,817,33.333333333333336,-0.731,-0.59,0.3
20709,1755584957171,48.29,-62.12,-33.93,837,766,777,744,823,33.333333333333336,-0.738,-0.592,0.306
20738,1755584957200,48.42,-62.22,-33.97,832,778,776,746,813,34.48275862068966,-0.74,-0.594,0.307
20768,1755584957230,48.39,-62.23,-33.97,837,779,774,750,818,33.333333333333336,-0.739,-0.595,0.306
20797,1755584957259,48.31,-62.23,-33.95,836,767,771,750,821,34.48275862068966,-0.74,-0.598,0.307
20827,1755584957289,48.38,-62.28,-33.97,846,770,771,746,814,33.333333333333336,-0.74,-0.598,0.308
20856,1755584957318,48.34,-62.32,-33.97,842,772,773,744,819,34.48275862068966,-0.745,-0.601,0.306
20886,1755584957348,48.28,-62.36,-33.96,833,772,769,752,818,33.333333333333336,-0.743,-0.602,0.304
20915,1755584957377,48.33,-62.37,-33.95,831,764,775,745,812,34.48275862068966,-0.74,-0.601,0.307
20945,1755584957407,48.26,-62.27,-33.93,831,769,773,752,819,33.333333333333336,-0.739,-0.603,0.31
20975,1755584957437,48.31,-62.31,-33.94,838,771,766,748,815,33.333333333333336,-0.738,-0.603,0.306
21004,1755584957466,48.35,-62.36,-33.95,840,774,779,748,815,34.48275862068966,-0.738,-0.603,0.304
21034,1755584957496,48.32,-62.32,-33.93,840,773,775,748,821,33.333333333333336,-0.74,-0.605,0.306
21063,1755584957525,48.38,-62.29,-33.91,839,770,775,749,821,34.48275862068966,-0.739,-0.603,0.304
21093,1755584957555,48.4,-62.39,-33.92,833,768,772,748,817,33.333333333333336,-0.737,-0.601,0.304
21123,1755584957585,48.43,-62.42,-33.93,834,776,777,745,813,33.333333333333336,-0.738,-0.601,0.304
21153,1755584957615,48.4,-62.39,-33.91,827,783,777,747,827,33.333333333333336,-0.741,-0.602,0.305
21182,1755584957644,48.38,-62.43,-33.91,827,771,767,745,820,34.48275862068966,-0.738,-0.601,0.303
21212,1755584957674,48.42,-62.63,-33.98,835,771,789,749,811,33.333333333333336,-0.736,-0.598,0.297
21242,1755584957704,48.36,-62.84,-34.05,840,787,770,744,809,33.333333333333336,-0.738,-0.6,0.295
21271,1755584957733,48.32,-62.91,-34.09,838,775,765,751,815,34.48275862068966,-0.741,-0.603,0.3
21301,1755584957763,48.29,-62.79,-34.03,837,777,768,755,819,33.333333333333336,-0.743,-0.608,0.307
21331,1755584957793,48.31,-62.82,-33.99,830,777,771,746,814,33.333333333333336,-0.741,-0.608,0.307
21360,1755584957822,48.38,-62.76,-33.95,832,768,772,750,819,34.48275862068966,-0.736,-0.602,0.305
21390,1755584957852,48.29,-62.56,-33.91,830,777,768,746,815,33.333333333333336,-0.737,-0.601,0.301
21419,1755584957881,48.23,-62.63,-33.93,838,772,774,749,818,34.48275862068966,-0.738,-0.601,0.294
21449,1755584957911,48.23,-62.83,-33.94,838,772,769,747,817,33.333333333333336,-0.74,-0.603,0.296
21479,1755584957941,48.18,-62.86,-33.91,831,762,780,748,815,33.333333333333336,-0.74,-0.606,0.301
21508,1755584957970,48.19,-62.75,-33.88,833,777,770,742,815,34.48275862068966,-0.739,-0.604,0.304
21538,1755584958000,48.2,-62.78,-33.9,837,781,775,752,819,33.333333333333336,-0.737,-0.603,0.303
21568,1755584958030,48.16,-62.86,-33.91,831,771,776,741,817,33.333333333333336,-0.739,-0.604,0.303
21597,1755584958059,48.12,-62.85,-33.89,833,767,772,751,816,34.48275862068966,-0.738,-0.602,0.305
21627,1755584958089,48.06,-62.92,-33.94,833,775,773,752,821,33.333333333333336,-0.737,-0.606,0.302
21656,1755584958118,47.99,-63.05,-34.06,837,771,767,745,816,34.48275862068966,-0.735,-0.608,0.298
21686,1755584958148,47.98,-63.21,-34.2,839,772,769,744,824,33.333333333333336,-0.738,-0.608,0.303
21716,1755584958178,48.08,-63.0,-34.22,834,768,779,748,817,33.333333333333336,-0.739,-0.609,0.313
21745,1755584958208,48.15,-62.72,-34.13,829,777,772,750,816,34.48275862068966,-0.743,-0.611,0.311
21775,1755584958237,48.13,-62.87,-34.15,835,766,783,742,822,33.333333333333336,-0.742,-0.611,0.299
21805,1755584958267,48.25,-62.91,-34.12,833,774,774,748,815,33.333333333333336,-0.737,-0.604,0.297
21834,1755584958296,48.2,-62.91,-34.15,834,767,771,747,812,34.48275862068966,-0.738,-0.603,0.298
21864,1755584958326,48.07,-63.01,-34.16,832,767,774,743,818,33.333333333333336,-0.739,-0.607,0.296
21894,1755584958356,48.19,-63.09,-34.12,832,756,773,749,815,33.333333333333336,-0.74,-0.61,0.299
21923,1755584958385,48.19,-63.14,-34.12,829,780,775,749,815,34.48275862068966,-0.739,-0.608,0.303
21953,1755584958415,48.12,-63.03,-34.12,836,773,761,748,821,33.333333333333336,-0.736,-0.605,0.303
21982,1755584958445,48.23,-63.02,-34.13,827,772,769,751,818,34.48275862068966,-0.738,-0.608,0.299
22012,1755584958474,48.19,-63.03,-34.11,835,777,773,743,818,33.333333333333336,-0.739,-0.609,0.298
22042,1755584958504,48.18,-63.11,-34.09,831,778,768,751,814,33.333333333333336,-0.739,-0.609,0.296
22071,1755584958533,48.23,-63.16,-34.08,835,769,767,752,818,34.48275862068966,-0.738,-0.608,0.298
22101,1755584958563,48.11,-63.08,-34.07,832,764,772,748,807,33.333333333333336,-0.737,-0.608,0.301
22130,1755584958592,48.04,-63.08,-34.1,829,779,768,747,816,34.48275862068966,-0.737,-0.609,0.3
22160,1755584958622,48.05,-63.34,-34.18,833,772,774,747,813,33.333333333333336,-0.739,-0.61,0.298
22190,1755584958652,48.02,-63.39,-34.14,839,771,776,744,819,33.333333333333336,-0.736,-0.607,0.305
22219,1755584958681,47.94,-63.19,-34.13,835,768,772,755,811,34.48275862068966,-0.731,-0.603,0.306
22249,1755584958711,47.95,-63.25,-34.18,830,777,779,746,813,33.333333333333336,-0.735,-0.606,0.298
22279,1755584958741,48.01,-63.59,-34.22,832,779,774,745,816,33.333333333333336,-0.737,-0.61,0.288
22308,1755584958771,48.01,-63.67,-34.2,836,770,775,748,824,34.48275862068966,-0.738,-0.61,0.295
22338,1755584958800,47.93,-63.43,-34.14,827,776,774,747,818,33.333333333333336,-0.735,-0.606,0.303
22368,1755584958830,47.97,-63.36,-34.15,824,782,768,751,820,33.333333333333336,-0.733,-0.606,0.302
22397,1755584958859,48.07,-63.41,-34.13,835,772,790,749,824,34.48275862068966,-0.737,-0.612,0.299
22427,1755584958889,48.14,-63.46,-34.1,840,778,763,760,810,33.333333333333336,-0.739,-0.608,0.299
22457,1755584958919,48.27,-63.42,-34.12,833,768,773,745,824,33.333333333333336,-0.742,-0.609,0.296
22486,1755584958948,48.16,-63.36,-34.11,840,770,776,736,810,34.48275862068966,-0.739,-0.609,0.291
22516,1755584958978,48.27,-63.48,-34.13,838,762,772,750,816,33.333333333333336,-0.737,-0.608,0.293
22545,1755584959007,48.32,-63.5,-34.16,827,767,776,749,811,34.48275862068966,-0.736,-0.608,0.298
22575,1755584959037,48.2,-63.41,-34.16,833,765,766,752,814,33.333333333333336,-0.736,-0.609,0.297
22604,1755584959067,48.24,-63.47,-34.17,839,770,771,749,813,34.48275862068966,-0.738,-0.611,0.289
22634,1755584959096,48.23,-63.6,-34.19,827,759,770,742,819,33.333333333333336,-0.737,-0.611,0.289
22663,1755584959125,48.13,-63.61,-34.18,833,776,768,752,818,34.48275862068966,-0.735,-0.61,0.29
22693,1755584959155,48.14,-63.67,-34.19,828,781,768,748,823,33.333333333333336,-0.736,-0.612,0.293
22723,1755584959185,48.15,-63.68,-34.17,837,759,770,753,814,33.333333333333336,-0.735,-0.611,0.297
22752,1755584959214,48.14,-63.68,-34.14,838,775,776,745,821,34.48275862068966,-0.735,-0.61,0.296
22782,1755584959244,48.15,-63.64,-34.14,830,772,774,751,817,33.333333333333336,-0.738,-0.611,0.297
22811,1755584959273,48.15,-63.61,-34.12,836,765,775,749,814,34.48275862068966,-0.738,-0.609,0.294
22841,1755584959303,48.1,-63.66,-34.11,831,765,770,745,806,33.333333333333336,-0.736,-0.608,0.292
22870,1755584959332,48.1,-63.71,-34.11,836,771,778,749,809,34.48275862068966,-0.734,-0.608,0.298
22900,1755584959362,48.07,-63.64,-34.1,841,771,762,748,816,33.333333333333336,-0.738,-0.611,0.297
22930,1755584959392,48.15,-63.63,-34.08,831,768,773,746,815,33.333333333333336,-0.738,-0.614,0.297
22960,1755584959422,48.2,-63.58,-34.05,825,774,761,750,817,33.333333333333336,-0.735,-0.611,0.297
22989,1755584959451,48.12,-63.5,-34.05,833,771,757,756,825,34.48275862068966,-0.734,-0.608,0.297
23019,1755584959481,48.12,-63.52,-34.1,832,773,776,747,810,33.333333333333336,-0.734,-0.606,0.294
23048,1755584959510,48.17,-63.54,-34.21,840,771,771,745,819,34.48275862068966,-0.735,-0.604,0.296
23078,1755584959540,48.1,-63.45,-34.3,829,776,771,751,813,33.333333333333336,-0.737,-0.608,0.296
23108,1755584959570,48.1,-63.43,-34.26,832,772,768,750,813,33.333333333333336,-0.74,-0.617,0.293
23137,1755584959599,48.19,-63.51,-34.2,831,769,769,744,811,34.48275862068966,-0.739,-0.616,0.294
23167,1755584959629,48.14,-63.47,-34.17,840,777,781,750,807,33.333333333333336,-0.736,-0.61,0.295
23196,1755584959659,48.07,-63.44,-34.18,837,775,768,753,808,34.48275862068966,-0.735,-0.608,0.293
23226,1755584959688,48.12,-63.53,-34.19,833,768,775,747,822,33.333333333333336,-0.733,-0.608,0.295
23256,1755584959718,48.15,-63.56,-34.19,826,768,772,746,818,33.333333333333336,-0.736,-0.61,0.299
23285,1755584959747,48.16,-63.48,-34.16,836,769,769,750,813,34.48275862068966,-0.735,-0.608,0.296
23315,1755584959777,48.21,-63.54,-34.16,828,766,778,749,815,33.333333333333336,-0.735,-0.607,0.295
23344,1755584959806,48.21,-63.55,-34.14,830,783,768,745,817,34.48275862068966,-0.735,-0.609,0.296
23374,1755584959836,48.18,-63.6,-34.16,838,773,765,749,815,33.333333333333336,-0.733,-0.608,0.295
23403,1755584959865,48.23,-63.72,-34.17,834,772,778,753,810,34.48275862068966,-0.735,-0.61,0.296
23433,1755584959895,48.22,-63.74,-34.14,830,778,770,747,814,33.333333333333336,-0.737,-0.61,0.296
23462,1755584959924,48.22,-63.76,-34.14,842,777,777,757,828,34.48275862068966,-0.737,-0.611,0.297
23492,1755584959954,48.22,-63.78,-34.14,840,767,770,753,814,33.333333333333336,-0.736,-0.612,0.296
23522,1755584959984,48.2,-63.83,-34.16,836,776,777,746,813,33.333333333333336,-0.736,-0.611,0.296
23551,1755584960013,48.18,-63.83,-34.16,837,764,775,748,813,34.48275862068966,-0.737,-0.613,0.295
23581,1755584960043,48.21,-63.85,-34.15,843,779,770,745,808,33.333333333333336,-0.736,-0.612,0.293
23610,1755584960072,48.15,-63.88,-34.18,833,773,766,749,815,34.48275862068966,-0.737,-0.611,0.291
23640,1755584960102,48.0,-63.92,-34.2,831,778,761,748,813,33.333333333333336,-0.738,-0.613,0.292
23669,1755584960131,47.9,-63.8,-34.19,834,766,780,744,826,34.48275862068966,-0.735,-0.609,0.292
23699,1755584960161,47.93,-63.82,-34.21,836,775,771,752,805,33.333333333333336,-0.734,-0.608,0.29
23728,1755584960190,48.03,-63.92,-34.24,836,768,780,754,822,34.48275862068966,-0.735,-0.612,0.296
23758,1755584960220,48.05,-63.83,-34.22,828,771,764,756,820,33.333333333333336,-0.735,-0.613,0.299
23788,1755584960250,48.17,-63.64,-34.19,828,777,769,751,826,33.333333333333336,-0.737,-0.609,0.299
23817,1755584960279,48.19,-63.64,-34.18,823,767,777,750,811,34.48275862068966,-0.738,-0.611,0.294
23847,1755584960309,48.13,-63.82,-34.22,837,765,774,751,813,33.333333333333336,-0.733,-0.611,0.285
23876,1755584960338,48.22,-63.98,-34.27,833,776,773,745,822,34.48275862068966,-0.736,-0.609,0.287
23906,1755584960368,48.16,-63.9,-34.26,835,776,776,746,818,33.333333333333336,-0.735,-0.608,0.295
23935,1755584960397,48.11,-63.81,-34.23,839,764,769,752,816,34.48275862068966,-0.738,-0.609,0.298
23965,1755584960427,48.16,-63.85,-34.22,832,772,773,747,819,33.333333333333336,-0.738,-0.612,0.291
23994,1755584960456,48.24,-63.87,-34.19,825,782,782,748,818,34.48275862068966,-0.737,-0.611,0.29
24024,1755584960486,48.21,-63.87,-34.21,832,776,770,748,821,33.333333333333336,-0.733,-0.607,0.289
24054,1755584960516,48.19,-63.85,-34.23,836,772,768,752,816,33.333333333333336,-0.735,-0.609,0.289
24084,1755584960546,48.2,-63.89,-34.23,827,769,772,753,816,33.333333333333336,-0.738,-0.611,0.29
24113,1755584960576,48.21,-63.92,-34.2,831,762,776,751,820,34.48275862068966,-0.74,-0.61,0.291
24143,1755584960605,48.24,-63.96,-34.2,832,769,775,747,821,33.333333333333336,-0.739,-0.61,0.291
24173,1755584960635,48.18,-63.93,-34.2,832,764,769,750,808,33.333333333333336,-0.737,-0.609,0.29
24202,1755584960665,48.13,-63.97,-34.22,836,774,772,754,818,34.48275862068966,-0.736,-0.61,0.285
24232,1755584960694,48.1,-64.26,-34.27,832,764,770,757,815,33.333333333333336,-0.737,-0.614,0.284
24262,1755584960724,48.1,-64.25,-34.22,832,777,770,749,812,33.333333333333336,-0.738,-0.612,0.289
24291,1755584960753,48.13,-64.16,-34.21,834,770,780,747,826,34.48275862068966,-0.737,-0.61,0.292
24321,1755584960783,48.14,-64.15,-34.23,825,771,764,748,810,33.333333333333336,-0.735,-0.612,0.292
