timestamp_ms,recv_timestamp_ms,pitch,roll,yaw,flex1,flex2,flex3,flex4,flex5,sampling_hz,accel_x,accel_y,accel_z
36224,1755585642908,19.58,-62.19,-55.23,756,776,762,808,827,34.48275862068966,-0.33,-0.837,0.451
36254,1755585642937,19.62,-62.17,-55.2,763,768,771,798,824,33.333333333333336,-0.321,-0.834,0.447
36283,1755585642967,19.72,-62.22,-55.23,766,774,772,813,823,34.48275862068966,-0.325,-0.83,0.448
36313,1755585642996,19.65,-62.1,-55.3,765,774,779,814,817,33.333333333333336,-0.33,-0.829,0.443
36342,1755585643026,19.69,-62.17,-55.29,768,775,771,808,827,34.48275862068966,-0.326,-0.828,0.437
36372,1755585643056,19.76,-62.38,-55.28,758,772,756,817,819,33.333333333333336,-0.325,-0.832,0.445
36392,1755585643075,19.73,-62.38,-55.29,765,765,768,810,821,50.0,-0.327,-0.833,0.449
36421,1755585643105,19.66,-62.23,-55.34,769,771,779,814,823,34.48275862068966,-0.327,-0.83,0.441
36451,1755585643134,19.68,-62.37,-55.32,764,781,769,804,820,33.333333333333336,-0.332,-0.831,0.436
36480,1755585643164,19.69,-62.36,-55.24,765,771,766,804,822,34.48275862068966,-0.329,-0.833,0.448
36510,1755585643194,19.61,-62.28,-55.3,764,779,770,798,829,33.333333333333336,-0.321,-0.828,0.453
36539,1755585643223,19.68,-62.35,-55.35,764,779,768,814,817,34.48275862068966,-0.324,-0.83,0.449
36569,1755585643253,19.69,-62.27,-55.3,759,777,765,822,812,33.333333333333336,-0.328,-0.833,0.447
36599,1755585643283,19.72,-62.21,-55.28,764,768,773,807,822,33.333333333333336,-0.326,-0.829,0.444
36629,1755585643313,19.68,-62.24,-55.35,760,779,785,807,819,33.333333333333336,-0.329,-0.828,0.443
36659,1755585643342,19.71,-62.19,-55.33,765,772,773,807,833,33.333333333333336,-0.326,-0.831,0.445
36688,1755585643372,19.79,-62.15,-55.36,759,782,768,799,827,34.48275862068966,-0.32,-0.827,0.452
36718,1755585643401,19.84,-62.18,-55.57,764,777,772,802,824,33.333333333333336,-0.32,-0.83,0.454
36747,1755585643431,19.71,-62.06,-55.77,770,769,772,807,825,34.48275862068966,-0.329,-0.832,0.449
36777,1755585643461,19.91,-61.93,-55.69,766,762,773,808,833,33.333333333333336,-0.332,-0.83,0.441
36806,1755585643490,19.98,-61.98,-55.7,762,773,772,805,825,34.48275862068966,-0.328,-0.83,0.444
36836,1755585643520,19.84,-62.02,-55.86,771,775,794,817,842,33.333333333333336,-0.324,-0.827,0.447
36865,1755585643549,19.98,-61.88,-55.84,763,777,757,809,824,34.48275862068966,-0.325,-0.83,0.448
36895,1755585643579,19.97,-61.9,-55.88,768,773,781,804,818,33.333333333333336,-0.328,-0.835,0.446
36925,1755585643609,19.89,-61.9,-55.87,765,782,776,807,825,33.333333333333336,-0.334,-0.832,0.443
36954,1755585643638,20.04,-61.88,-55.76,762,770,763,802,819,34.48275862068966,-0.334,-0.829,0.441
36984,1755585643668,19.97,-61.88,-55.76,775,777,773,811,823,33.333333333333336,-0.329,-0.829,0.444
37013,1755585643697,19.85,-61.9,-55.81,763,777,767,813,833,34.48275862068966,-0.325,-0.828,0.448
37043,1755585643727,19.9,-61.85,-55.78,763,770,771,825,823,33.333333333333336,-0.325,-0.831,0.449
37072,1755585643756,19.85,-61.83,-55.75,763,768,776,806,825,34.48275862068966,-0.329,-0.835,0.447
37102,1755585643786,19.85,-61.89,-55.67,765,780,772,811,820,33.333333333333336,-0.328,-0.828,0.446
37132,1755585643816,19.94,-61.89,-55.61,759,774,769,808,837,33.333333333333336,-0.322,-0.825,0.451
37161,1755585643845,19.82,-61.81,-55.67,765,779,769,807,825,34.48275862068966,-0.32,-0.826,0.454
37191,1755585643875,19.81,-61.84,-55.7,757,778,764,808,834,33.333333333333336,-0.325,-0.826,0.452
37221,1755585643904,19.93,-61.84,-55.63,762,770,776,812,820,33.333333333333336,-0.328,-0.83,0.452
37250,1755585643934,19.93,-61.83,-55.61,765,781,763,805,826,34.48275862068966,-0.327,-0.827,0.451
37280,1755585643964,19.96,-61.8,-55.58,762,775,768,814,829,33.333333333333336,-0.325,-0.823,0.452
37309,1755585643994,19.99,-61.81,-55.6,767,782,774,808,827,34.48275862068966,-0.323,-0.825,0.454
37339,1755585644023,19.95,-61.77,-55.64,760,776,772,808,830,33.333333333333336,-0.324,-0.829,0.45
37369,1755585644053,20.01,-61.84,-55.62,765,774,777,821,829,33.333333333333336,-0.329,-0.826,0.448
37399,1755585644082,20.18,-61.83,-55.52,759,768,773,800,831,33.333333333333336,-0.336,-0.828,0.451
37428,1755585644112,20.18,-61.73,-55.46,771,771,780,807,825,34.48275862068966,-0.337,-0.829,0.448
37458,1755585644141,20.24,-61.75,-55.39,763,783,767,810,818,33.333333333333336,-0.33,-0.823,0.45
37487,1755585644171,20.28,-61.68,-55.43,760,780,788,814,827,34.48275862068966,-0.329,-0.823,0.453
37517,1755585644200,20.25,-61.55,-55.44,765,776,771,810,833,33.333333333333336,-0.332,-0.82,0.447
37546,1755585644231,20.32,-61.67,-55.44,758,773,765,805,833,34.48275862068966,-0.336,-0.823,0.443
37566,1755585644250,20.31,-61.75,-55.43,761,771,767,803,824,50.0,-0.338,-0.825,0.445
37596,1755585644280,20.33,-61.64,-55.4,757,779,770,814,827,33.333333333333336,-0.337,-0.827,0.453
37626,1755585644309,20.28,-61.49,-55.36,759,774,772,809,855,33.333333333333336,-0.335,-0.825,0.45
37655,1755585644339,20.32,-61.55,-55.35,761,796,771,808,823,34.48275862068966,-0.337,-0.821,0.449
37685,1755585644369,20.25,-61.48,-55.38,763,778,773,813,828,33.333333333333336,-0.339,-0.821,0.451
37714,1755585644398,20.27,-61.46,-55.37,771,769,772,809,822,34.48275862068966,-0.338,-0.82,0.449
37744,1755585644428,20.33,-61.52,-55.37,762,779,773,810,826,33.333333333333336,-0.339,-0.822,0.451
37774,1755585644457,20.22,-61.46,-55.39,763,769,766,810,823,33.333333333333336,-0.338,-0.822,0.453
37803,1755585644487,20.25,-61.45,-55.39,765,779,772,798,819,34.48275862068966,-0.339,-0.821,0.451
37833,1755585644516,20.34,-61.46,-55.36,764,771,761,803,828,33.333333333333336,-0.339,-0.823,0.453
37862,1755585644546,20.32,-61.41,-55.34,767,777,769,811,835,34.48275862068966,-0.34,-0.821,0.453
37892,1755585644575,20.33,-61.4,-55.32,762,778,770,811,825,33.333333333333336,-0.342,-0.819,0.449
37921,1755585644605,20.33,-61.5,-55.36,761,773,786,811,823,34.48275862068966,-0.342,-0.82,0.446
37951,1755585644636,20.25,-61.51,-55.4,761,773,771,807,823,33.333333333333336,-0.342,-0.819,0.451
37972,1755585644656,20.24,-61.52,-55.41,766,778,771,809,835,47.61904761904762,-0.339,-0.82,0.457
38001,1755585644685,20.37,-61.52,-55.38,762,774,772,809,835,34.48275862068966,-0.341,-0.823,0.461
38031,1755585644714,20.36,-61.43,-55.38,773,760,765,814,826,33.333333333333336,-0.343,-0.82,0.455
38060,1755585644744,20.36,-61.88,-55.41,766,780,774,807,822,34.48275862068966,-0.34,-0.815,0.447
38090,1755585644774,20.38,-61.96,-55.41,766,783,762,809,826,33.333333333333336,-0.342,-0.815,0.449
38120,1755585644804,20.4,-61.9,-55.45,757,779,770,817,823,33.333333333333336,-0.346,-0.821,0.456
38149,1755585644833,20.36,-61.85,-55.47,763,776,769,812,822,34.48275862068966,-0.341,-0.823,0.453
38179,1755585644863,20.42,-61.86,-55.46,765,779,768,809,836,33.333333333333336,-0.342,-0.823,0.455
38209,1755585644893,20.37,-61.8,-55.46,765,773,771,818,832,33.333333333333336,-0.341,-0.819,0.45
38238,1755585644922,20.4,-61.66,-55.46,766,774,773,809,817,34.48275862068966,-0.341,-0.816,0.448
38268,1755585644952,20.46,-61.67,-55.49,772,777,772,809,823,33.333333333333336,-0.345,-0.817,0.449
38298,1755585644982,20.45,-61.72,-55.53,768,778,772,809,832,33.333333333333336,-0.347,-0.821,0.453
38327,1755585645011,20.44,-61.61,-55.51,766,778,771,811,822,34.48275862068966,-0.343,-0.822,0.461
38357,1755585645041,20.55,-61.44,-55.51,763,780,768,806,826,33.333333333333336,-0.344,-0.82,0.461
38387,1755585645070,20.54,-61.46,-55.53,767,775,775,802,825,33.333333333333336,-0.346,-0.82,0.454
38416,1755585645100,20.55,-61.53,-55.49,762,779,772,812,822,34.48275862068966,-0.343,-0.818,0.453
38446,1755585645130,20.54,-61.51,-55.51,767,767,768,813,825,33.333333333333336,-0.342,-0.815,0.458
38475,1755585645159,20.47,-61.56,-55.62,766,775,773,812,822,34.48275862068966,-0.345,-0.819,0.455
38505,1755585645189,20.49,-61.6,-55.55,764,785,769,816,826,33.333333333333336,-0.346,-0.822,0.453
38534,1755585645218,20.55,-61.53,-55.5,766,782,781,808,828,34.48275862068966,-0.343,-0.819,0.458
38564,1755585645248,20.48,-61.4,-55.54,761,770,758,810,832,33.333333333333336,-0.341,-0.817,0.459
38594,1755585645277,20.53,-61.45,-55.57,764,774,771,811,836,33.333333333333336,-0.342,-0.818,0.453
38623,1755585645307,20.59,-61.53,-55.55,763,784,767,812,823,34.48275862068966,-0.347,-0.821,0.454
38653,1755585645336,20.51,-61.45,-55.52,758,777,770,813,820,33.333333333333336,-0.345,-0.819,0.456
38682,1755585645366,20.54,-61.45,-55.54,771,775,766,808,828,34.48275862068966,-0.341,-0.813,0.46
38712,1755585645396,20.44,-61.47,-55.64,770,770,765,810,822,33.333333333333336,-0.343,-0.813,0.457
38741,1755585645425,20.41,-61.58,-55.69,763,782,773,804,824,34.48275862068966,-0.345,-0.816,0.45
38771,1755585645454,20.53,-61.62,-55.67,779,772,778,805,827,33.333333333333336,-0.347,-0.821,0.452
38800,1755585645484,20.43,-61.51,-55.69,763,772,769,810,814,34.48275862068966,-0.345,-0.821,0.456
38830,1755585645513,20.52,-61.51,-55.67,762,767,766,802,823,33.333333333333336,-0.342,-0.822,0.454
38859,1755585645543,20.52,-61.48,-55.62,767,776,773,808,829,34.48275862068966,-0.344,-0.821,0.451
38889,1755585645573,20.45,-61.44,-55.61,759,779,775,812,820,33.333333333333336,-0.339,-0.816,0.449
38918,1755585645603,20.48,-61.46,-55.62,763,777,764,809,825,34.48275862068966,-0.338,-0.817,0.458
38948,1755585645632,20.37,-61.44,-55.71,764,778,771,799,830,33.333333333333336,-0.339,-0.818,0.459
38977,1755585645661,20.39,-61.35,-55.73,764,772,769,813,823,34.48275862068966,-0.346,-0.818,0.456
39007,1755585645691,20.48,-61.3,-55.67,764,775,771,806,824,33.333333333333336,-0.352,-0.819,0.45
39037,1755585645721,20.52,-61.41,-55.64,763,768,771,818,831,33.333333333333336,-0.346,-0.819,0.451
39066,1755585645750,20.47,-61.39,-55.69,763,778,774,802,821,34.48275862068966,-0.336,-0.816,0.46
39096,1755585645780,20.4,-61.29,-55.77,764,778,767,802,817,33.333333333333336,-0.335,-0.818,0.462
39126,1755585645809,20.48,-61.29,-55.76,767,781,774,804,823,33.333333333333336,-0.34,-0.823,0.457
39155,1755585645839,20.55,-61.35,-55.72,754,772,771,807,819,34.48275862068966,-0.346,-0.821,0.458
39185,1755585645868,20.58,-61.18,-55.74,763,770,769,812,822,33.333333333333336,-0.352,-0.81,0.462
39214,1755585645898,20.63,-60.98,-55.8,763,771,765,812,823,34.48275862068966,-0.355,-0.808,0.455
39244,1755585645928,20.62,-61.13,-55.86,766,775,763,812,825,33.333333333333336,-0.351,-0.816,0.448
39273,1755585645957,20.71,-61.32,-55.77,778,781,773,807,824,34.48275862068966,-0.341,-0.818,0.458
39303,1755585645987,20.75,-61.35,-55.82,760,779,768,798,819,33.333333333333336,-0.341,-0.82,0.469
39332,1755585646016,20.78,-61.15,-55.81,763,776,767,806,823,34.48275862068966,-0.348,-0.821,0.459
39362,1755585646046,20.86,-61.27,-55.76,767,776,777,816,809,33.333333333333336,-0.351,-0.817,0.448
39391,1755585646075,20.84,-61.36,-55.79,762,777,770,806,831,34.48275862068966,-0.352,-0.814,0.45
39421,1755585646105,20.72,-61.29,-55.85,763,769,772,804,824,33.333333333333336,-0.351,-0.816,0.453
39450,1755585646134,20.73,-61.33,-55.82,763,776,771,812,821,34.48275862068966,-0.346,-0.816,0.454
39480,1755585646164,20.78,-61.4,-55.8,764,777,771,808,825,33.333333333333336,-0.345,-0.819,0.46
39509,1755585646193,20.73,-61.27,-55.84,764,777,772,803,824,34.48275862068966,-0.343,-0.819,0.459
39539,1755585646223,20.74,-61.23,-55.84,757,780,768,803,823,33.333333333333336,-0.341,-0.815,0.454
39569,1755585646252,20.74,-61.2,-55.87,762,778,768,808,823,33.333333333333336,-0.347,-0.814,0.455
39598,1755585646282,20.62,-61.23,-55.95,766,771,769,801,825,34.48275862068966,-0.349,-0.817,0.448
39628,1755585646312,20.64,-61.31,-55.9,765,770,769,805,834,33.333333333333336,-0.348,-0.817,0.449
39657,1755585646341,20.72,-61.34,-55.84,760,777,765,803,820,34.48275862068966,-0.347,-0.82,0.456
39687,1755585646371,20.57,-61.16,-55.83,763,771,771,803,826,33.333333333333336,-0.342,-0.819,0.459
39717,1755585646400,20.6,-61.08,-55.83,759,779,772,809,823,33.333333333333336,-0.34,-0.816,0.46
39746,1755585646430,20.66,-61.14,-55.82,761,772,771,814,819,34.48275862068966,-0.344,-0.814,0.458
39776,1755585646460,20.72,-60.69,-55.8,760,777,771,813,834,33.333333333333336,-0.349,-0.812,0.453
39805,1755585646490,20.79,-60.76,-55.76,761,779,771,813,843,34.48275862068966,-0.351,-0.812,0.451
39835,1755585646519,20.85,-60.89,-55.75,765,768,770,805,824,33.333333333333336,-0.35,-0.816,0.455
39865,1755585646549,20.83,-60.9,-55.77,763,777,773,810,826,33.333333333333336,-0.351,-0.818,0.458
39895,1755585646578,20.78,-60.8,-55.77,768,777,768,796,827,33.333333333333336,-0.349,-0.814,0.456
39924,1755585646608,20.8,-60.88,-55.76,759,775,768,803,826,34.48275862068966,-0.347,-0.816,0.452
39953,1755585646637,20.79,-60.97,-55.78,761,775,765,809,827,34.48275862068966,-0.35,-0.819,0.452
39983,1755585646667,20.71,-60.92,-55.76,768,770,770,814,823,33.333333333333336,-0.353,-0.819,0.452
40012,1755585646696,20.73,-60.89,-55.73,769,791,772,808,853,34.48275862068966,-0.35,-0.811,0.454
40042,1755585646726,20.82,-60.95,-55.72,761,782,778,802,824,33.333333333333336,-0.345,-0.814,0.461
40072,1755585646756,20.68,-60.88,-55.79,764,781,777,807,823,33.333333333333336,-0.344,-0.815,0.46
40101,1755585646785,20.67,-60.88,-55.86,765,775,774,807,825,34.48275862068966,-0.348,-0.814,0.457
40131,1755585646815,20.68,-60.91,-55.9,766,774,770,806,820,33.333333333333336,-0.35,-0.816,0.457
40160,1755585646844,20.67,-60.92,-55.91,765,782,770,802,823,34.48275862068966,-0.353,-0.814,0.453
40190,1755585646874,20.65,-60.99,-55.93,761,761,774,811,826,33.333333333333336,-0.35,-0.812,0.446
40219,1755585646903,20.57,-61.17,-56.03,764,778,774,812,824,34.48275862068966,-0.352,-0.814,0.451
40249,1755585646933,20.53,-61.12,-56.02,769,780,768,816,816,33.333333333333336,-0.353,-0.817,0.455
40279,1755585646962,20.6,-61.09,-55.95,765,770,762,816,832,33.333333333333336,-0.348,-0.819,0.457
40308,1755585646992,20.62,-61.15,-55.95,762,772,776,806,830,34.48275862068966,-0.343,-0.82,0.46
40338,1755585647022,20.53,-61.1,-55.99,761,779,763,812,829,33.333333333333336,-0.344,-0.821,0.457
40358,1755585647042,20.47,-61.05,-56.0,761,775,765,808,817,50.0,-0.345,-0.819,0.449
40387,1755585647071,20.54,-61.11,-55.98,766,769,767,811,827,34.48275862068966,-0.344,-0.817,0.445
40417,1755585647101,20.57,-61.16,-56.0,760,778,772,808,822,33.333333333333336,-0.348,-0.819,0.454
40447,1755585647130,20.5,-61.07,-56.02,764,768,763,801,819,33.333333333333336,-0.352,-0.823,0.452
40476,1755585647160,20.47,-61.05,-56.0,762,780,765,806,823,34.48275862068966,-0.35,-0.821,0.446
40506,1755585647189,20.46,-61.19,-55.95,758,773,768,810,826,33.333333333333336,-0.347,-0.816,0.448
40535,1755585647219,20.44,-61.28,-55.97,763,771,788,810,827,34.48275862068966,-0.346,-0.817,0.457
40565,1755585647249,20.37,-61.12,-56.01,767,779,770,810,819,33.333333333333336,-0.345,-0.817,0.46
40595,1755585647278,20.26,-61.04,-56.1,767,774,772,827,823,33.333333333333336,-0.344,-0.818,0.456
40624,1755585647308,20.34,-61.15,-56.06,764,783,766,810,834,34.48275862068966,-0.342,-0.822,0.454
40654,1755585647337,20.37,-61.05,-55.99,770,776,771,810,816,33.333333333333336,-0.344,-0.822,0.459
40683,1755585647367,20.36,-61.02,-56.02,764,776,763,811,826,34.48275862068966,-0.34,-0.815,0.459
40713,1755585647397,20.43,-61.11,-56.06,768,777,780,815,823,33.333333333333336,-0.341,-0.811,0.458
40742,1755585647426,20.71,-61.42,-55.92,769,772,775,811,825,34.48275862068966,-0.347,-0.814,0.449
40772,1755585647456,21.11,-61.62,-55.68,766,773,765,804,824,33.333333333333336,-0.356,-0.819,0.448
40802,1755585647486,21.1,-61.6,-55.7,766,776,765,812,841,33.333333333333336,-0.355,-0.819,0.449
40831,1755585647515,21.01,-61.61,-55.77,759,778,767,807,833,34.48275862068966,-0.349,-0.816,0.45
40861,1755585647544,21.03,-61.6,-55.79,759,771,771,813,826,33.333333333333336,-0.351,-0.82,0.452
40890,1755585647574,20.87,-61.48,-55.83,768,773,771,813,834,34.48275862068966,-0.353,-0.821,0.451
40920,1755585647604,20.95,-61.5,-55.82,761,771,772,809,833,33.333333333333336,-0.355,-0.819,0.449
40949,1755585647633,20.99,-61.52,-55.82,769,775,770,814,822,34.48275862068966,-0.353,-0.816,0.448
40979,1755585647663,21.03,-61.57,-55.84,763,770,768,810,834,33.333333333333336,-0.352,-0.817,0.445
41009,1755585647692,21.06,-61.6,-55.9,761,770,767,810,829,33.333333333333336,-0.356,-0.82,0.445
41038,1755585647722,21.02,-61.58,-55.93,766,779,764,812,828,34.48275862068966,-0.359,-0.819,0.441
41068,1755585647751,21.07,-61.58,-55.9,761,773,770,808,825,33.333333333333336,-0.356,-0.817,0.443
41097,1755585647781,21.04,-61.74,-56.01,761,773,778,804,825,34.48275862068966,-0.354,-0.82,0.444
41127,1755585647811,21.04,-61.83,-56.08,768,773,769,810,824,33.333333333333336,-0.354,-0.818,0.441
41156,1755585647840,21.16,-61.82,-56.02,762,776,769,812,837,34.48275862068966,-0.356,-0.82,0.443
41186,1755585647870,21.1,-61.71,-56.06,765,768,767,807,828,33.333333333333336,-0.358,-0.824,0.443
41216,1755585647899,21.08,-61.75,-56.08,764,775,770,810,820,33.333333333333336,-0.356,-0.823,0.439
41245,1755585647929,21.14,-61.79,-56.02,763,777,767,811,818,34.48275862068966,-0.355,-0.82,0.439
41275,1755585647959,21.17,-61.66,-56.02,777,782,767,810,827,33.333333333333336,-0.357,-0.821,0.444
41305,1755585647988,21.1,-61.63,-56.07,776,788,775,809,825,33.333333333333336,-0.355,-0.819,0.437
41334,1755585648018,21.17,-61.79,-56.04,763,763,771,805,818,34.48275862068966,-0.358,-0.821,0.437
41364,1755585648048,21.16,-61.77,-55.97,766,773,766,806,828,33.333333333333336,-0.359,-0.821,0.44
41394,1755585648077,21.12,-61.75,-56.01,766,770,769,802,830,33.333333333333336,-0.356,-0.819,0.444
41423,1755585648107,21.08,-61.72,-56.08,761,775,758,813,824,34.48275862068966,-0.356,-0.823,0.44
41453,1755585648137,21.17,-61.75,-56.01,764,773,770,807,831,33.333333333333336,-0.358,-0.826,0.442
41482,1755585648166,21.21,-61.67,-55.93,767,778,767,812,851,34.48275862068966,-0.354,-0.825,0.447
41512,1755585648196,21.17,-61.6,-55.96,768,780,775,810,835,33.333333333333336,-0.351,-0.821,0.448
41542,1755585648225,21.15,-61.59,-56.0,768,777,775,801,814,33.333333333333336,-0.355,-0.819,0.443
41571,1755585648255,21.23,-61.63,-55.97,761,772,776,811,826,34.48275862068966,-0.357,-0.82,0.44
41601,1755585648285,21.22,-61.66,-55.93,765,774,772,810,833,33.333333333333336,-0.354,-0.819,0.442
41630,1755585648314,21.23,-61.61,-55.99,762,773,764,814,831,34.48275862068966,-0.358,-0.819,0.446
41660,1755585648344,21.23,-61.54,-55.99,762,768,774,805,826,33.333333333333336,-0.359,-0.818,0.443
41689,1755585648373,21.35,-61.55,-55.91,761,778,769,805,821,34.48275862068966,-0.363,-0.819,0.443
41719,1755585648403,21.3,-61.55,-55.94,763,770,768,810,829,33.333333333333336,-0.361,-0.817,0.442
41748,1755585648432,21.3,-61.56,-55.95,761,769,760,809,831,34.48275862068966,-0.362,-0.816,0.441
41778,1755585648462,21.28,-61.58,-55.94,763,769,782,813,822,33.333333333333336,-0.359,-0.816,0.44
41808,1755585648492,21.35,-61.65,-55.93,762,779,774,816,826,33.333333333333336,-0.362,-0.817,0.446
41837,1755585648521,21.33,-61.64,-55.94,770,776,766,811,842,34.48275862068966,-0.365,-0.818,0.448
41867,1755585648551,21.4,-61.58,-55.87,762,773,767,799,841,33.333333333333336,-0.362,-0.818,0.445
41896,1755585648580,21.54,-61.65,-55.82,767,773,769,810,821,34.48275862068966,-0.361,-0.814,0.442
41926,1755585648610,21.67,-61.81,-55.83,762,781,773,813,827,33.333333333333336,-0.365,-0.816,0.439
41956,1755585648640,21.66,-61.98,-55.85,767,776,769,809,831,33.333333333333336,-0.367,-0.818,0.437
41985,1755585648669,21.73,-62.11,-55.82,766,777,769,812,829,34.48275862068966,-0.363,-0.818,0.443
42015,1755585648699,21.71,-61.97,-55.88,762,780,764,808,827,33.333333333333336,-0.363,-0.818,0.453
42044,1755585648728,21.54,-61.7,-55.98,765,777,773,805,823,34.48275862068966,-0.36,-0.816,0.451
42074,1755585648758,21.66,-61.63,-55.96,764,776,773,810,824,33.333333333333336,-0.359,-0.817,0.441
42103,1755585648787,21.73,-61.64,-55.93,764,775,781,808,815,34.48275862068966,-0.364,-0.822,0.442
42133,1755585648817,21.66,-61.55,-55.95,765,780,769,805,823,33.333333333333336,-0.364,-0.816,0.442
42163,1755585648847,21.75,-61.39,-55.96,767,783,765,811,835,33.333333333333336,-0.367,-0.814,0.443
42192,1755585648876,21.7,-61.46,-56.01,762,775,770,811,835,34.48275862068966,-0.368,-0.81,0.435
42222,1755585648906,21.75,-61.58,-56.03,766,775,776,804,830,33.333333333333336,-0.372,-0.81,0.44
42251,1755585648935,21.8,-61.54,-56.01,767,775,768,818,823,34.48275862068966,-0.367,-0.815,0.447
42281,1755585648965,21.82,-61.52,-56.04,762,773,766,802,823,33.333333333333336,-0.364,-0.817,0.45
42310,1755585648994,21.89,-61.5,-56.0,771,773,775,818,837,34.48275862068966,-0.369,-0.818,0.444
42340,1755585649024,21.98,-61.51,-55.9,758,772,772,808,826,33.333333333333336,-0.37,-0.815,0.438
42370,1755585649054,21.95,-61.59,-55.92,767,773,772,811,818,33.333333333333336,-0.364,-0.808,0.439
42399,1755585649083,21.83,-61.55,-56.03,760,777,779,815,832,34.48275862068966,-0.365,-0.808,0.443
42429,1755585649113,21.79,-61.48,-56.06,767,770,760,801,823,33.333333333333336,-0.368,-0.811,0.443
42458,1755585649142,21.87,-61.6,-56.05,759,782,768,805,824,34.48275862068966,-0.369,-0.819,0.446
42488,1755585649172,21.73,-61.48,-56.04,765,771,767,804,820,33.333333333333336,-0.367,-0.818,0.449
42518,1755585649201,21.61,-61.27,-56.09,765,781,771,803,819,33.333333333333336,-0.364,-0.812,0.445
42547,1755585649231,21.43,-61.16,-56.11,762,776,767,813,836,34.48275862068966,-0.364,-0.809,0.437
42577,1755585649261,21.42,-61.43,-56.02,764,771,775,809,830,33.333333333333336,-0.371,-0.813,0.433
42606,1755585649290,21.45,-61.64,-55.93,768,776,769,814,820,34.48275862068966,-0.369,-0.82,0.444
42636,1755585649320,21.35,-61.48,-55.92,766,774,776,805,813,33.333333333333336,-0.362,-0.811,0.454
42666,1755585649349,21.41,-61.42,-55.95,767,781,773,811,831,33.333333333333336,-0.353,-0.814,0.452
42695,1755585649379,21.38,-61.39,-56.03,762,777,776,808,823,34.48275862068966,-0.36,-0.817,0.449
42725,1755585649408,21.3,-61.36,-56.04,772,776,768,807,827,33.333333333333336,-0.361,-0.812,0.446
42754,1755585649438,21.36,-61.4,-56.07,769,776,774,811,818,34.48275862068966,-0.363,-0.812,0.446
42784,1755585649467,21.26,-61.38,-56.12,765,773,773,810,828,33.333333333333336,-0.368,-0.814,0.448
42813,1755585649497,21.29,-61.29,-56.06,767,772,769,816,828,34.48275862068966,-0.364,-0.812,0.452
42843,1755585649526,21.38,-61.31,-56.07,766,781,765,804,820,33.333333333333336,-0.359,-0.811,0.453
42872,1755585649557,21.37,-61.46,-56.14,768,769,769,814,828,34.48275862068966,-0.356,-0.812,0.453
42893,1755585649576,21.44,-61.42,-56.16,765,773,776,806,825,47.61904761904762,-0.36,-0.813,0.458
42922,1755585649606,21.45,-61.26,-56.2,754,770,771,813,820,34.48275862068966,-0.362,-0.81,0.453
42952,1755585649636,21.42,-61.24,-56.29,767,771,769,803,824,33.333333333333336,-0.367,-0.813,0.45
42981,1755585649665,21.28,-61.22,-56.37,763,767,777,811,821,34.48275862068966,-0.365,-0.812,0.448
43011,1755585649695,21.37,-61.25,-56.37,760,779,775,809,831,33.333333333333336,-0.364,-0.813,0.451
43040,1755585649724,21.36,-61.17,-56.38,757,770,771,806,825,34.48275862068966,-0.362,-0.814,0.459
43070,1755585649754,21.37,-61.07,-56.4,758,773,768,804,830,33.333333333333336,-0.361,-0.815,0.459
43099,1755585649783,21.35,-61.03,-56.4,766,777,764,811,830,34.48275862068966,-0.365,-0.815,0.453
43129,1755585649813,21.37,-60.95,-56.33,759,774,774,808,825,33.333333333333336,-0.367,-0.814,0.45
43159,1755585649843,21.07,-60.73,-56.43,767,776,775,816,823,33.333333333333336,-0.363,-0.806,0.45
43188,1755585649872,21.03,-60.73,-56.43,775,771,769,800,819,34.48275862068966,-0.36,-0.799,0.449
43218,1755585649902,21.21,-60.88,-56.34,767,777,765,802,828,33.333333333333336,-0.366,-0.812,0.459
43247,1755585649931,21.1,-60.69,-56.27,757,780,768,812,834,34.48275862068966,-0.365,-0.815,0.467
43277,1755585649961,21.06,-60.55,-56.21,765,772,771,804,852,33.333333333333336,-0.356,-0.805,0.465
43306,1755585649990,21.0,-60.57,-56.21,758,777,780,810,826,34.48275862068966,-0.348,-0.801,0.461
43336,1755585650020,20.88,-60.65,-56.32,768,775,771,825,820,33.333333333333336,-0.352,-0.802,0.46
43366,1755585650050,20.91,-60.62,-56.38,764,773,778,811,829,33.333333333333336,-0.358,-0.804,0.465
43395,1755585650079,20.96,-60.67,-56.4,767,777,761,809,825,34.48275862068966,-0.36,-0.806,0.465
43425,1755585650109,21.04,-60.79,-56.37,762,778,764,811,829,33.333333333333336,-0.359,-0.805,0.463
43455,1755585650138,21.09,-60.86,-56.41,759,769,768,812,822,33.333333333333336,-0.357,-0.805,0.466
43484,1755585650168,20.96,-60.79,-56.48,764,766,767,815,823,34.48275862068966,-0.354,-0.806,0.463
43514,1755585650197,21.03,-60.91,-56.5,768,781,772,808,837,33.333333333333336,-0.353,-0.807,0.464
43543,1755585650227,21.1,-61.0,-56.5,758,785,770,804,827,34.48275862068966,-0.354,-0.809,0.471
43573,1755585650257,21.07,-60.9,-56.56,762,781,782,820,821,33.333333333333336,-0.352,-0.807,0.468
43602,1755585650287,21.08,-60.86,-56.61,764,779,774,806,826,34.48275862068966,-0.357,-0.807,0.462
43622,1755585650306,21.06,-60.87,-56.63,754,778,790,808,822,50.0,-0.36,-0.805,0.456
43652,1755585650336,21.05,-60.92,-56.64,763,782,762,801,822,33.333333333333336,-0.36,-0.805,0.458
43682,1755585650366,21.0,-60.9,-56.7,757,777,772,810,823,33.333333333333336,-0.359,-0.805,0.462
43711,1755585650396,21.03,-60.95,-56.75,764,780,775,813,820,34.48275862068966,-0.356,-0.809,0.463
43741,1755585650425,21.06,-61.04,-56.76,764,768,771,813,820,33.333333333333336,-0.356,-0.812,0.46
43771,1755585650455,21.06,-61.06,-56.74,761,781,764,816,824,33.333333333333336,-0.356,-0.813,0.462
43800,1755585650484,21.07,-60.99,-56.72,768,775,774,814,833,34.48275862068966,-0.356,-0.814,0.464
43830,1755585650514,21.08,-60.89,-56.71,763,783,774,812,829,33.333333333333336,-0.353,-0.812,0.464
43859,1755585650543,21.11,-60.84,-56.7,766,779,765,808,822,34.48275862068966,-0.355,-0.812,0.466
43889,1755585650573,21.09,-60.79,-56.7,771,784,772,810,822,33.333333333333336,-0.356,-0.811,0.462
43919,1755585650602,21.09,-60.77,-56.69,765,777,767,815,824,33.333333333333336,-0.353,-0.809,0.457
43948,1755585650632,21.15,-60.84,-56.68,763,762,771,806,825,34.48275862068966,-0.352,-0.804,0.456
43978,1755585650661,20.73,-60.91,-56.73,767,772,775,804,829,33.333333333333336,-0.354,-0.8,0.457
44007,1755585650691,20.69,-60.87,-56.8,760,778,770,806,835,34.48275862068966,-0.356,-0.803,0.459
44037,1755585650721,20.7,-60.91,-56.84,764,777,767,817,815,33.333333333333336,-0.353,-0.805,0.461
44066,1755585650750,20.73,-60.94,-56.91,769,770,770,802,821,34.48275862068966,-0.353,-0.811,0.466
44096,1755585650780,20.65,-60.78,-57.01,765,777,766,803,816,33.333333333333336,-0.355,-0.818,0.463
44125,1755585650809,20.6,-60.74,-57.05,769,778,768,805,828,34.48275862068966,-0.356,-0.815,0.452
44155,1755585650839,20.72,-60.89,-57.01,764,788,763,810,828,33.333333333333336,-0.359,-0.813,0.45
44184,1755585650868,20.73,-60.92,-56.99,764,780,763,809,833,34.48275862068966,-0.357,-0.812,0.461
44214,1755585650898,20.78,-60.8,-57.01,766,776,771,806,825,33.333333333333336,-0.353,-0.811,0.467
44243,1755585650927,20.88,-60.76,-56.98,760,779,769,812,826,34.48275862068966,-0.353,-0.811,0.464
44273,1755585650957,21.01,-60.76,-56.93,759,773,769,814,820,33.333333333333336,-0.354,-0.813,0.463
44303,1755585650986,20.95,-60.65,-56.96,765,767,766,808,865,33.333333333333336,-0.36,-0.81,0.459
44332,1755585651016,20.96,-60.62,-56.96,761,772,780,808,825,34.48275862068966,-0.36,-0.808,0.451
44362,1755585651046,21.09,-60.73,-56.87,762,773,765,808,819,33.333333333333336,-0.358,-0.81,0.459
44391,1755585651076,21.04,-60.76,-56.88,768,772,770,811,827,34.48275862068966,-0.353,-0.808,0.465
44421,1755585651105,21.08,-60.71,-56.86,764,773,773,803,834,33.333333333333336,-0.353,-0.807,0.466
44451,1755585651135,21.1,-60.77,-56.96,769,773,770,816,819,33.333333333333336,-0.358,-0.808,0.461
44481,1755585651164,21.17,-60.82,-56.91,768,770,771,810,822,33.333333333333336,-0.362,-0.81,0.457
44510,1755585651194,21.23,-60.87,-56.8,764,774,764,807,816,34.48275862068966,-0.36,-0.81,0.457
44540,1755585651224,21.21,-60.9,-56.81,766,767,775,809,833,33.333333333333336,-0.357,-0.806,0.461
44569,1755585651253,21.21,-60.84,-56.91,757,778,774,812,835,34.48275862068966,-0.356,-0.807,0.464
44599,1755585651283,21.26,-60.79,-56.92,762,775,781,807,818,33.333333333333336,-0.358,-0.809,0.463
44629,1755585651312,21.35,-60.75,-56.85,771,778,779,810,829,33.333333333333336,-0.363,-0.812,0.461
44658,1755585651342,21.35,-60.69,-56.79,764,782,773,808,827,34.48275862068966,-0.361,-0.809,0.456
44688,1755585651372,21.39,-60.78,-56.8,763,784,773,809,821,33.333333333333336,-0.359,-0.803,0.454
44717,1755585651401,21.35,-60.83,-56.89,766,775,773,813,832,34.48275862068966,-0.36,-0.804,0.452
44747,1755585651431,21.24,-60.84,-56.97,766,779,767,818,858,33.333333333333336,-0.366,-0.808,0.451
44777,1755585651460,21.35,-60.85,-56.92,767,777,772,811,822,33.333333333333336,-0.367,-0.813,0.458
44806,1755585651490,21.36,-60.73,-56.85,751,772,761,812,828,34.48275862068966,-0.364,-0.813,0.461
44836,1755585651520,21.4,-60.61,-56.79,763,773,774,805,838,33.333333333333336,-0.356,-0.808,0.46
44865,1755585651549,21.42,-60.56,-56.81,761,776,771,811,823,34.48275862068966,-0.356,-0.804,0.46
44895,1755585651579,21.39,-60.51,-56.86,764,775,753,809,824,33.333333333333336,-0.361,-0.804,0.459
44925,1755585651608,21.36,-60.47,-56.88,769,775,772,818,824,33.333333333333336,-0.363,-0.801,0.457
44954,1755585651638,21.52,-60.53,-56.87,764,784,774,809,835,34.48275862068966,-0.362,-0.802,0.462
44984,1755585651667,21.54,-60.39,-56.9,761,771,765,813,831,33.333333333333336,-0.363,-0.807,0.467
45013,1755585651697,21.57,-60.34,-56.88,768,777,773,807,820,34.48275862068966,-0.36,-0.807,0.463
