timestamp_ms,recv_timestamp_ms,pitch,roll,yaw,flex1,flex2,flex3,flex4,flex5,sampling_hz,accel_x,accel_y,accel_z
76685,1755585159807,23.8,-90.83,-57.55,828,871,854,832,842,50.0,-0.386,-0.918,-0.009
76715,1755585159837,23.79,-90.86,-57.57,824,857,833,836,857,33.333333333333336,-0.386,-0.921,-0.012
76745,1755585159866,23.77,-90.86,-57.59,832,860,846,849,860,33.333333333333336,-0.389,-0.921,-0.013
76774,1755585159896,23.78,-90.9,-57.55,832,869,839,833,845,34.48275862068966,-0.387,-0.92,-0.013
76804,1755585159926,23.75,-91.05,-57.54,821,861,830,826,866,33.333333333333336,-0.384,-0.919,-0.015
76833,1755585159955,23.71,-91.1,-57.55,831,864,844,834,851,34.48275862068966,-0.384,-0.917,-0.016
76863,1755585159985,23.71,-91.09,-57.56,834,873,826,833,857,33.333333333333336,-0.388,-0.917,-0.016
76892,1755585160014,23.71,-91.12,-57.54,828,873,838,838,850,34.48275862068966,-0.389,-0.918,-0.017
76922,1755585160044,23.64,-91.16,-57.58,834,867,837,832,850,33.333333333333336,-0.384,-0.916,-0.021
76952,1755585160073,23.62,-91.13,-57.6,825,866,832,840,843,33.333333333333336,-0.386,-0.918,-0.019
76981,1755585160103,23.64,-91.13,-57.58,830,863,835,837,851,34.48275862068966,-0.386,-0.918,-0.018
77011,1755585160133,23.64,-91.14,-57.59,830,882,822,836,852,33.333333333333336,-0.385,-0.917,-0.02
77041,1755585160162,23.64,-91.18,-57.58,824,866,824,836,845,33.333333333333336,-0.388,-0.918,-0.021
77070,1755585160192,23.62,-91.19,-57.57,821,865,835,826,851,34.48275862068966,-0.387,-0.917,-0.021
77100,1755585160221,23.64,-91.19,-57.58,826,875,841,834,855,33.333333333333336,-0.386,-0.915,-0.019
77129,1755585160251,23.67,-91.17,-57.6,813,868,837,833,856,34.48275862068966,-0.387,-0.917,-0.027
77159,1755585160281,23.64,-91.22,-57.6,828,861,823,832,853,33.333333333333336,-0.387,-0.918,-0.027
77188,1755585160310,23.62,-91.22,-58.06,827,864,846,823,856,34.48275862068966,-0.387,-0.916,-0.025
77218,1755585160340,23.62,-91.22,-58.09,824,855,851,837,849,33.333333333333336,-0.387,-0.917,-0.023
77248,1755585160369,23.64,-91.24,-58.08,826,877,834,829,850,33.333333333333336,-0.387,-0.918,-0.024
77277,1755585160399,23.64,-91.29,-58.07,831,861,834,837,849,34.48275862068966,-0.386,-0.918,-0.025
77307,1755585160429,23.61,-91.3,-58.1,830,867,857,851,848,33.333333333333336,-0.387,-0.915,-0.025
77337,1755585160459,23.53,-91.34,-58.15,829,859,833,840,854,33.333333333333336,-0.386,-0.915,-0.027
77357,1755585160479,23.5,-91.4,-58.17,828,853,831,838,854,50.0,-0.385,-0.916,-0.026
77387,1755585160508,23.47,-91.48,-58.16,823,869,816,843,849,33.333333333333336,-0.383,-0.916,-0.026
77416,1755585160538,23.49,-91.52,-58.16,828,868,837,839,859,34.48275862068966,-0.384,-0.916,-0.025
77446,1755585160568,23.51,-91.51,-58.16,819,857,837,837,839,33.333333333333336,-0.386,-0.917,-0.026
77475,1755585160597,23.51,-91.54,-58.14,831,865,826,842,848,34.48275862068966,-0.387,-0.916,-0.028
77505,1755585160627,23.48,-91.58,-58.14,830,868,834,837,843,33.333333333333336,-0.387,-0.917,-0.029
77535,1755585160656,23.45,-91.6,-58.16,822,862,832,847,851,33.333333333333336,-0.385,-0.916,-0.028
77564,1755585160686,23.43,-91.64,-58.19,829,865,832,833,863,34.48275862068966,-0.385,-0.917,-0.028
77594,1755585160716,23.46,-91.64,-58.16,825,854,848,827,843,33.333333333333336,-0.387,-0.919,-0.028
77624,1755585160745,23.45,-91.65,-58.15,827,871,828,826,845,33.333333333333336,-0.385,-0.917,-0.029
77653,1755585160775,23.43,-91.65,-58.18,825,874,839,843,870,34.48275862068966,-0.386,-0.916,-0.029
77683,1755585160804,23.4,-91.7,-58.19,829,872,835,839,841,33.333333333333336,-0.387,-0.917,-0.029
77712,1755585160834,23.42,-91.72,-58.14,823,865,839,845,849,34.48275862068966,-0.388,-0.917,-0.029
77741,1755585160863,23.42,-91.75,-58.13,823,862,827,841,849,34.48275862068966,-0.386,-0.916,-0.03
77771,1755585160893,23.39,-91.75,-58.14,822,866,835,833,849,33.333333333333336,-0.388,-0.916,-0.031
77801,1755585160923,23.38,-91.77,-58.12,831,863,842,827,852,33.333333333333336,-0.39,-0.917,-0.031
77831,1755585160953,23.37,-91.83,-58.09,828,875,841,835,840,33.333333333333336,-0.388,-0.915,-0.03
77851,1755585160972,23.35,-91.86,-58.1,825,864,831,834,844,50.0,-0.386,-0.913,-0.028
77880,1755585161002,23.38,-91.8,-58.13,823,876,832,835,849,34.48275862068966,-0.387,-0.915,-0.027
77910,1755585161031,23.4,-91.8,-58.11,826,878,840,844,846,33.333333333333336,-0.388,-0.917,-0.03
77939,1755585161061,23.39,-91.82,-58.1,823,859,832,832,850,34.48275862068966,-0.386,-0.914,-0.031
77969,1755585161091,23.34,-91.88,-58.15,826,861,826,828,846,33.333333333333336,-0.387,-0.914,-0.029
77999,1755585161120,23.4,-91.82,-58.16,831,860,825,834,853,33.333333333333336,-0.39,-0.917,-0.027
78028,1755585161150,23.43,-91.81,-58.15,826,861,842,839,853,34.48275862068966,-0.385,-0.916,-0.03
78058,1755585161179,23.43,-91.81,-58.17,825,863,834,839,841,33.333333333333336,-0.385,-0.915,-0.031
78087,1755585161209,23.45,-91.8,-58.18,828,865,834,842,843,34.48275862068966,-0.387,-0.915,-0.03
78117,1755585161239,23.47,-91.83,-58.18,820,863,845,832,841,33.333333333333336,-0.389,-0.915,-0.03
78147,1755585161268,23.48,-91.86,-58.16,820,858,829,841,842,33.333333333333336,-0.387,-0.916,-0.033
78176,1755585161298,23.43,-91.91,-58.17,829,857,822,842,840,34.48275862068966,-0.384,-0.918,-0.033
78206,1755585161327,23.44,-91.87,-58.18,819,874,834,835,851,33.333333333333336,-0.385,-0.915,-0.03
78235,1755585161357,23.45,-91.86,-58.22,830,867,835,837,851,34.48275862068966,-0.387,-0.914,-0.031
78265,1755585161387,23.49,-91.82,-58.23,831,865,838,832,851,33.333333333333336,-0.391,-0.915,-0.033
78294,1755585161416,23.43,-91.89,-58.23,828,861,841,842,847,34.48275862068966,-0.386,-0.916,-0.037
78324,1755585161446,23.37,-91.95,-58.22,818,866,833,833,836,33.333333333333336,-0.383,-0.916,-0.035
78354,1755585161475,23.4,-91.91,-58.2,823,859,832,834,853,33.333333333333336,-0.385,-0.917,-0.029
78383,1755585161505,23.49,-91.85,-58.17,825,869,833,833,857,34.48275862068966,-0.388,-0.916,-0.031
78403,1755585161525,23.51,-91.83,-58.15,832,870,830,836,846,50.0,-0.387,-0.915,-0.036
78433,1755585161555,23.47,-91.83,-58.16,827,861,829,842,858,33.333333333333336,-0.387,-0.915,-0.04
78463,1755585161584,23.49,-91.76,-58.12,819,871,821,838,841,33.333333333333336,-0.389,-0.918,-0.033
78492,1755585161614,23.58,-91.71,-58.06,821,866,836,833,852,34.48275862068966,-0.388,-0.917,-0.029
78522,1755585161644,23.59,-91.76,-58.1,822,864,837,840,843,33.333333333333336,-0.385,-0.913,-0.036
78551,1755585161673,23.5,-91.87,-58.11,829,857,814,836,854,34.48275862068966,-0.389,-0.914,-0.039
78581,1755585161704,23.41,-92.0,-58.11,822,864,824,835,841,33.333333333333336,-0.39,-0.915,-0.034
78601,1755585161723,23.39,-92.03,-58.13,822,863,829,838,849,50.0,-0.389,-0.914,-0.027
78631,1755585161753,23.44,-91.91,-58.14,832,868,829,832,850,33.333333333333336,-0.39,-0.915,-0.026
78661,1755585161782,23.47,-91.93,-58.13,827,860,833,838,847,33.333333333333336,-0.39,-0.916,-0.031
78690,1755585161812,23.47,-91.96,-58.1,821,868,838,843,835,34.48275862068966,-0.389,-0.917,-0.032
78720,1755585161842,23.45,-91.92,-58.09,828,856,824,840,849,33.333333333333336,-0.392,-0.914,-0.031
78749,1755585161871,23.5,-91.87,-58.08,831,874,850,832,854,34.48275862068966,-0.394,-0.913,-0.03
78779,1755585161901,23.55,-91.91,-58.07,824,866,838,839,848,33.333333333333336,-0.395,-0.913,-0.033
78809,1755585161931,23.54,-91.86,-58.04,827,860,831,832,851,33.333333333333336,-0.393,-0.915,-0.034
78838,1755585161960,23.52,-91.86,-58.05,826,864,833,828,848,34.48275862068966,-0.389,-0.916,-0.032
78868,1755585161990,23.51,-91.86,-58.07,832,862,831,834,845,33.333333333333336,-0.387,-0.915,-0.029
78888,1755585162010,23.52,-91.86,-58.08,836,866,830,831,842,50.0,-0.389,-0.915,-0.03
78918,1755585162040,23.54,-91.88,-58.08,821,860,830,837,860,33.333333333333336,-0.392,-0.915,-0.032
78947,1755585162069,23.55,-91.87,-58.08,830,861,831,831,839,34.48275862068966,-0.392,-0.915,-0.031
78977,1755585162099,23.53,-91.83,-58.1,822,864,835,838,852,33.333333333333336,-0.39,-0.914,-0.032
79007,1755585162129,23.52,-91.89,-58.11,832,864,837,837,854,33.333333333333336,-0.389,-0.916,-0.033
79036,1755585162158,23.54,-91.91,-58.09,827,867,834,830,847,34.48275862068966,-0.39,-0.915,-0.031
79066,1755585162188,23.6,-91.86,-58.07,821,869,835,847,850,33.333333333333336,-0.391,-0.916,-0.03
79095,1755585162217,23.58,-91.89,-58.1,825,860,833,834,839,34.48275862068966,-0.389,-0.913,-0.034
79125,1755585162247,23.58,-91.88,-58.1,825,862,835,827,847,33.333333333333336,-0.389,-0.915,-0.034
79155,1755585162276,23.58,-91.88,-58.07,822,857,833,830,840,33.333333333333336,-0.388,-0.916,-0.033
79184,1755585162306,23.6,-91.87,-58.07,827,858,844,825,861,34.48275862068966,-0.388,-0.913,-0.034
79213,1755585162335,23.57,-91.9,-58.11,826,861,832,837,844,34.48275862068966,-0.391,-0.913,-0.036
79243,1755585162365,23.54,-91.95,-58.1,823,865,827,849,845,33.333333333333336,-0.392,-0.913,-0.036
79272,1755585162395,23.55,-91.96,-58.09,826,870,835,841,844,34.48275862068966,-0.391,-0.913,-0.032
79293,1755585162415,23.56,-91.93,-58.1,825,858,827,838,840,47.61904761904762,-0.39,-0.913,-0.031
79322,1755585162444,23.6,-91.92,-58.1,827,865,831,840,851,34.48275862068966,-0.39,-0.914,-0.034
79352,1755585162474,23.56,-91.99,-58.1,830,869,823,837,845,33.333333333333336,-0.388,-0.913,-0.037
79382,1755585162503,23.57,-92.0,-58.09,826,870,827,843,860,33.333333333333336,-0.391,-0.914,-0.034
79411,1755585162533,23.59,-91.96,-58.09,828,867,832,832,854,34.48275862068966,-0.391,-0.914,-0.033
79441,1755585162563,23.58,-91.96,-58.09,829,868,837,838,834,33.333333333333336,-0.389,-0.913,-0.037
79471,1755585162592,23.55,-92.04,-58.09,827,866,835,836,845,33.333333333333336,-0.39,-0.913,-0.039
79500,1755585162622,23.51,-92.06,-58.09,824,866,827,844,839,34.48275862068966,-0.39,-0.913,-0.031
79530,1755585162651,23.51,-92.02,-58.11,823,863,833,840,848,33.333333333333336,-0.39,-0.914,-0.031
79559,1755585162681,23.51,-92.03,-58.12,826,861,837,840,843,34.48275862068966,-0.388,-0.913,-0.035
79589,1755585162711,23.5,-92.04,-58.12,823,871,832,832,849,33.333333333333336,-0.391,-0.914,-0.035
79618,1755585162741,23.49,-92.07,-58.11,826,871,827,836,846,34.48275862068966,-0.391,-0.914,-0.036
79648,1755585162770,23.52,-92.04,-58.09,827,868,833,827,842,33.333333333333336,-0.39,-0.914,-0.034
79678,1755585162799,23.54,-92.02,-58.1,826,848,827,833,840,33.333333333333336,-0.391,-0.913,-0.036
79707,1755585162829,23.55,-92.05,-58.11,830,865,829,841,851,34.48275862068966,-0.393,-0.913,-0.038
79737,1755585162859,23.52,-92.09,-58.15,828,866,820,838,847,33.333333333333336,-0.392,-0.912,-0.038
79767,1755585162889,23.52,-92.11,-58.17,832,875,834,839,845,33.333333333333336,-0.392,-0.914,-0.037
79797,1755585162918,23.54,-92.09,-58.17,824,862,843,837,842,33.333333333333336,-0.391,-0.915,-0.035
79826,1755585162948,23.56,-92.06,-58.17,817,870,838,840,848,34.48275862068966,-0.391,-0.915,-0.039
79856,1755585162977,23.51,-92.15,-58.2,830,861,832,831,849,33.333333333333336,-0.392,-0.913,-0.043
79885,1755585163007,23.46,-92.19,-58.24,832,867,835,834,850,34.48275862068966,-0.391,-0.913,-0.039
79915,1755585163036,23.41,-92.21,-58.3,829,861,831,828,846,33.333333333333336,-0.389,-0.916,-0.038
79944,1755585163067,23.42,-92.23,-58.3,818,866,831,828,838,34.48275862068966,-0.39,-0.915,-0.041
79964,1755585163086,23.34,-92.31,-58.34,831,865,832,833,839,50.0,-0.388,-0.911,-0.048
79994,1755585163116,23.15,-92.53,-58.46,826,858,822,838,843,33.333333333333336,-0.389,-0.91,-0.05
80023,1755585163145,23.03,-92.64,-58.52,822,864,826,835,851,34.48275862068966,-0.39,-0.914,-0.044
80053,1755585163175,23.05,-92.63,-58.5,817,857,830,836,839,33.333333333333336,-0.388,-0.918,-0.037
80083,1755585163205,23.09,-92.58,-58.5,824,863,835,840,832,33.333333333333336,-0.385,-0.916,-0.038
80103,1755585163225,23.13,-92.54,-58.51,818,869,834,833,834,50.0,-0.386,-0.915,-0.042
80133,1755585163255,23.21,-92.46,-58.45,821,856,830,830,847,33.333333333333336,-0.39,-0.915,-0.044
80163,1755585163285,23.34,-92.34,-58.35,830,857,834,842,842,33.333333333333336,-0.39,-0.916,-0.041
80192,1755585163314,23.36,-92.32,-58.35,819,856,864,834,843,34.48275862068966,-0.384,-0.913,-0.044
80222,1755585163343,23.35,-92.35,-58.38,831,864,829,838,843,33.333333333333336,-0.386,-0.916,-0.045
80251,1755585163373,23.4,-92.29,-58.33,824,862,830,833,849,34.48275862068966,-0.389,-0.917,-0.043
80281,1755585163402,23.44,-92.23,-58.33,821,857,833,825,843,33.333333333333336,-0.387,-0.914,-0.042
80310,1755585163432,23.47,-92.2,-58.34,817,870,839,831,845,34.48275862068966,-0.387,-0.915,-0.043
80340,1755585163462,23.49,-92.23,-58.34,824,867,832,833,854,33.333333333333336,-0.387,-0.915,-0.044
80369,1755585163491,23.46,-91.78,-58.34,826,877,822,839,843,34.48275862068966,-0.386,-0.914,-0.044
80399,1755585163521,23.48,-91.7,-58.36,825,855,836,835,874,33.333333333333336,-0.388,-0.912,-0.042
80429,1755585163550,23.49,-91.7,-58.4,828,866,833,833,847,33.333333333333336,-0.388,-0.912,-0.041
80458,1755585163580,23.5,-91.74,-58.44,829,873,836,840,849,34.48275862068966,-0.386,-0.914,-0.041
80487,1755585163609,23.53,-91.74,-58.45,827,866,831,828,842,34.48275862068966,-0.388,-0.915,-0.043
80517,1755585163639,23.54,-91.73,-58.44,826,868,832,839,848,33.333333333333336,-0.389,-0.915,-0.044
80546,1755585163668,23.49,-91.76,-58.45,824,864,834,838,847,34.48275862068966,-0.389,-0.914,-0.044
80576,1755585163698,23.48,-91.79,-58.46,815,869,826,829,860,33.333333333333336,-0.388,-0.917,-0.039
80605,1755585163728,23.5,-91.75,-58.43,820,867,835,843,848,34.48275862068966,-0.387,-0.917,-0.039
80626,1755585163747,23.5,-91.75,-58.41,825,873,852,831,836,47.61904761904762,-0.387,-0.916,-0.042
80655,1755585163777,23.48,-91.79,-58.43,825,854,829,836,843,34.48275862068966,-0.388,-0.914,-0.041
80685,1755585163807,23.51,-91.8,-58.44,825,869,826,837,841,33.333333333333336,-0.389,-0.915,-0.037
80715,1755585163836,23.56,-91.77,-58.41,820,856,837,840,842,33.333333333333336,-0.389,-0.916,-0.042
80744,1755585163866,23.56,-91.8,-58.39,827,876,831,834,846,34.48275862068966,-0.388,-0.914,-0.044
80774,1755585163895,23.47,-91.87,-58.43,828,860,828,837,870,33.333333333333336,-0.387,-0.914,-0.041
80803,1755585163925,23.5,-91.83,-58.45,820,864,830,834,857,34.48275862068966,-0.388,-0.915,-0.038
80833,1755585163954,23.53,-91.87,-58.43,828,867,834,854,844,33.333333333333336,-0.388,-0.916,-0.04
80862,1755585163984,23.53,-91.9,-58.41,833,862,831,840,844,34.48275862068966,-0.387,-0.915,-0.041
80892,1755585164014,23.48,-91.84,-58.44,838,862,825,838,868,33.333333333333336,-0.387,-0.913,-0.041
80922,1755585164044,23.47,-91.65,-58.52,823,862,831,826,850,33.333333333333336,-0.388,-0.911,-0.037
80951,1755585164073,23.62,-91.59,-58.42,826,853,819,831,849,34.48275862068966,-0.395,-0.92,-0.033
80981,1755585164103,23.79,-91.58,-58.23,824,861,834,818,849,33.333333333333336,-0.389,-0.918,-0.033
81011,1755585164132,23.86,-91.5,-58.18,836,865,832,831,853,33.333333333333336,-0.388,-0.914,-0.035
81040,1755585164163,23.87,-91.47,-58.22,824,854,833,837,853,34.48275862068966,-0.389,-0.912,-0.037
81060,1755585164182,23.87,-91.48,-58.24,821,864,836,849,841,50.0,-0.393,-0.913,-0.038
81090,1755585164212,23.87,-91.56,-58.22,826,861,826,818,861,33.333333333333336,-0.394,-0.914,-0.037
81119,1755585164242,23.88,-91.62,-58.17,829,865,814,833,848,34.48275862068966,-0.392,-0.917,-0.034
81140,1755585164261,23.89,-91.61,-58.13,819,862,831,832,841,47.61904761904762,-0.389,-0.913,-0.033
81169,1755585164291,23.91,-91.59,-58.17,826,858,836,853,849,34.48275862068966,-0.392,-0.91,-0.035
81199,1755585164321,23.93,-91.64,-58.18,820,861,834,834,851,33.333333333333336,-0.397,-0.911,-0.036
81229,1755585164351,23.94,-91.7,-58.16,832,859,835,830,850,33.333333333333336,-0.394,-0.912,-0.036
81258,1755585164380,23.92,-91.7,-58.18,828,860,828,836,844,34.48275862068966,-0.391,-0.913,-0.035
81288,1755585164410,23.92,-91.7,-58.2,824,868,832,848,850,33.333333333333336,-0.393,-0.913,-0.035
81318,1755585164440,23.97,-91.73,-58.18,817,865,832,831,860,33.333333333333336,-0.395,-0.912,-0.034
81348,1755585164469,24.0,-91.72,-58.19,830,864,833,826,856,33.333333333333336,-0.393,-0.912,-0.035
81377,1755585164499,24.01,-91.7,-58.21,829,857,824,837,867,34.48275862068966,-0.393,-0.914,-0.035
81407,1755585164528,24.02,-91.7,-58.2,833,863,824,840,853,33.333333333333336,-0.393,-0.914,-0.036
81436,1755585164558,24.05,-91.71,-58.2,831,865,841,837,853,34.48275862068966,-0.395,-0.912,-0.036
81466,1755585164588,24.1,-91.65,-58.19,817,860,831,820,854,33.333333333333336,-0.398,-0.913,-0.034
81496,1755585164618,24.15,-91.59,-58.13,820,860,827,838,846,33.333333333333336,-0.395,-0.915,-0.036
81526,1755585164647,24.17,-91.57,-58.11,822,871,827,834,844,33.333333333333336,-0.392,-0.913,-0.038
81555,1755585164677,24.16,-91.62,-58.12,825,864,847,837,847,34.48275862068966,-0.396,-0.912,-0.035
81585,1755585164707,24.2,-91.6,-58.11,816,861,836,830,855,33.333333333333336,-0.398,-0.911,-0.033
81614,1755585164736,24.21,-91.58,-58.13,826,865,834,811,850,34.48275862068966,-0.394,-0.91,-0.036
81644,1755585164766,24.16,-91.64,-58.15,823,875,827,832,849,33.333333333333336,-0.393,-0.912,-0.037
81674,1755585164795,24.15,-91.67,-58.15,828,866,817,836,842,33.333333333333336,-0.394,-0.912,-0.034
81703,1755585164825,24.19,-91.66,-58.14,825,861,824,837,846,34.48275862068966,-0.396,-0.912,-0.032
81733,1755585164855,24.23,-91.64,-58.13,818,865,817,840,847,33.333333333333336,-0.396,-0.912,-0.033
81763,1755585164884,24.27,-91.64,-58.1,828,863,838,836,850,33.333333333333336,-0.394,-0.911,-0.035
81792,1755585164914,24.27,-91.55,-58.12,824,860,831,830,849,34.48275862068966,-0.392,-0.91,-0.035
81822,1755585164944,24.26,-91.57,-58.18,825,863,834,840,839,33.333333333333336,-0.394,-0.913,-0.035
81852,1755585164974,24.29,-91.6,-58.16,832,866,826,843,848,33.333333333333336,-0.397,-0.913,-0.032
81882,1755585165004,24.35,-91.61,-58.15,829,872,824,828,846,33.333333333333336,-0.396,-0.911,-0.033
81911,1755585165033,24.35,-91.62,-58.2,825,867,834,828,853,34.48275862068966,-0.395,-0.91,-0.037
81941,1755585165063,24.33,-91.73,-58.2,824,871,838,835,850,33.333333333333336,-0.397,-0.912,-0.04
81971,1755585165093,24.32,-91.88,-58.17,819,863,832,834,847,33.333333333333336,-0.398,-0.913,-0.039
82000,1755585165122,24.27,-91.89,-58.19,822,865,821,840,849,34.48275862068966,-0.394,-0.91,-0.036
82030,1755585165152,24.24,-91.86,-58.24,826,866,831,833,844,33.333333333333336,-0.393,-0.911,-0.036
82060,1755585165181,24.23,-91.91,-58.23,827,864,826,829,844,33.333333333333336,-0.395,-0.912,-0.04
82089,1755585165211,24.13,-92.05,-58.24,832,869,831,818,842,34.48275862068966,-0.395,-0.91,-0.043
82119,1755585165240,23.95,-92.24,-58.37,830,862,830,837,849,33.333333333333336,-0.389,-0.907,-0.041
82148,1755585165270,23.83,-92.38,-58.53,824,858,833,836,863,34.48275862068966,-0.391,-0.91,-0.04
82178,1755585165299,23.87,-92.31,-58.47,821,859,836,834,848,33.333333333333336,-0.397,-0.917,-0.036
82207,1755585165329,23.95,-92.23,-58.36,826,866,831,844,849,34.48275862068966,-0.394,-0.916,-0.035
82237,1755585165359,24.0,-92.16,-58.35,821,871,835,832,837,33.333333333333336,-0.391,-0.911,-0.038
82267,1755585165389,23.97,-92.13,-58.37,823,858,828,834,846,33.333333333333336,-0.394,-0.912,-0.042
82297,1755585165418,23.96,-92.16,-58.3,822,868,836,827,841,33.333333333333336,-0.394,-0.914,-0.039
82326,1755585165448,23.99,-92.15,-58.25,826,871,834,836,845,34.48275862068966,-0.391,-0.914,-0.037
82356,1755585165477,23.97,-92.12,-58.27,824,865,838,841,849,33.333333333333336,-0.392,-0.912,-0.038
82385,1755585165507,24.02,-92.1,-58.24,819,871,846,839,842,34.48275862068966,-0.396,-0.913,-0.04
82415,1755585165537,24.0,-92.1,-58.21,818,869,832,842,853,33.333333333333336,-0.394,-0.911,-0.042
82444,1755585165566,23.95,-92.19,-58.25,831,858,825,837,849,34.48275862068966,-0.392,-0.91,-0.039
82474,1755585165596,23.95,-92.16,-58.24,831,870,829,830,881,33.333333333333336,-0.394,-0.912,-0.038
82504,1755585165625,23.97,-92.16,-58.2,825,866,834,839,844,33.333333333333336,-0.395,-0.911,-0.041
82533,1755585165655,23.92,-92.2,-58.23,835,856,827,835,852,34.48275862068966,-0.395,-0.907,-0.043
82563,1755585165685,23.87,-92.27,-58.29,822,867,835,842,858,33.333333333333336,-0.395,-0.91,-0.039
82592,1755585165714,23.89,-92.23,-58.26,823,852,838,834,836,34.48275862068966,-0.395,-0.913,-0.038
82622,1755585165744,23.92,-92.18,-58.21,826,863,833,823,848,33.333333333333336,-0.394,-0.912,-0.041
82652,1755585165774,23.83,-92.31,-58.25,824,873,826,839,853,33.333333333333336,-0.393,-0.907,-0.044
82681,1755585165803,23.74,-92.43,-58.33,825,862,826,827,844,34.48275862068966,-0.395,-0.91,-0.041
82711,1755585165833,23.76,-92.36,-58.31,826,869,821,842,844,33.333333333333336,-0.396,-0.915,-0.038
82741,1755585165862,23.78,-92.36,-58.27,824,863,820,840,852,33.333333333333336,-0.394,-0.913,-0.04
82770,1755585165892,23.75,-92.43,-58.31,821,867,830,835,885,34.48275862068966,-0.394,-0.908,-0.043
82800,1755585165921,23.7,-92.43,-58.37,819,864,831,837,846,33.333333333333336,-0.397,-0.908,-0.044
82829,1755585165951,23.66,-92.52,-58.39,825,862,838,837,843,34.48275862068966,-0.397,-0.912,-0.044
82859,1755585165981,23.63,-92.64,-58.37,821,874,848,841,860,33.333333333333336,-0.393,-0.914,-0.043
82889,1755585166010,23.6,-92.63,-58.36,825,859,823,828,849,33.333333333333336,-0.391,-0.913,-0.044
82918,1755585166040,23.62,-92.56,-58.35,824,868,832,837,849,34.48275862068966,-0.394,-0.912,-0.042
82948,1755585166070,23.68,-92.53,-58.35,827,869,832,837,839,33.333333333333336,-0.396,-0.909,-0.043
82977,1755585166099,23.65,-92.54,-58.37,827,870,844,825,844,34.48275862068966,-0.396,-0.91,-0.046
83007,1755585166129,23.66,-92.56,-58.33,830,868,850,826,858,33.333333333333336,-0.395,-0.915,-0.044
83037,1755585166158,23.68,-92.56,-58.31,820,857,830,838,840,33.333333333333336,-0.391,-0.911,-0.04
83066,1755585166189,23.76,-92.5,-58.34,827,864,836,851,853,34.48275862068966,-0.396,-0.91,-0.049
83087,1755585166209,23.78,-92.49,-58.35,830,865,827,833,842,47.61904761904762,-0.399,-0.91,-0.055
83116,1755585166238,23.74,-92.56,-58.32,832,865,821,834,853,34.48275862068966,-0.396,-0.911,-0.052
83146,1755585166268,23.73,-92.56,-58.33,826,855,823,838,855,33.333333333333336,-0.392,-0.913,-0.043
83176,1755585166297,23.78,-92.5,-58.34,823,868,833,832,844,33.333333333333336,-0.394,-0.912,-0.046
83205,1755585166327,23.78,-92.55,-58.34,831,867,830,822,843,34.48275862068966,-0.397,-0.909,-0.052
83235,1755585166356,23.73,-92.62,-58.37,826,874,825,837,857,33.333333333333336,-0.397,-0.909,-0.05
83264,1755585166386,23.73,-92.57,-58.38,820,868,831,841,845,34.48275862068966,-0.395,-0.913,-0.042
83294,1755585166416,23.76,-92.56,-58.36,821,870,819,834,853,33.333333333333336,-0.394,-0.914,-0.043
83323,1755585166445,23.79,-92.59,-58.34,821,867,837,829,833,34.48275862068966,-0.396,-0.911,-0.046
83353,1755585166475,23.76,-92.59,-58.37,815,871,830,828,850,33.333333333333336,-0.397,-0.909,-0.048
83382,1755585166504,23.76,-92.6,-58.39,815,865,836,832,849,34.48275862068966,-0.397,-0.911,-0.044
83412,1755585166534,23.8,-92.6,-58.37,821,861,834,834,852,33.333333333333336,-0.395,-0.913,-0.043
83442,1755585166564,23.82,-92.6,-58.35,822,871,821,824,847,33.333333333333336,-0.394,-0.912,-0.045
83471,1755585166593,23.82,-92.59,-58.37,824,865,842,835,848,34.48275862068966,-0.397,-0.911,-0.046
83501,1755585166623,23.8,-92.61,-58.39,827,858,825,834,835,33.333333333333336,-0.398,-0.912,-0.045
83530,1755585166652,23.82,-92.16,-58.38,825,871,835,837,836,34.48275862068966,-0.396,-0.912,-0.044
83560,1755585166682,23.82,-92.15,-58.4,821,861,830,832,840,33.333333333333336,-0.395,-0.911,-0.045
83590,1755585166712,23.83,-92.19,-58.37,823,860,840,849,835,33.333333333333336,-0.398,-0.914,-0.046
83620,1755585166741,23.84,-92.2,-58.36,823,868,831,824,843,33.333333333333336,-0.396,-0.911,-0.044
83649,1755585166771,23.84,-92.22,-58.41,834,873,811,837,845,34.48275862068966,-0.397,-0.91,-0.045
83679,1755585166800,23.86,-92.19,-58.41,822,860,837,839,845,33.333333333333336,-0.399,-0.913,-0.046
83708,1755585166830,23.85,-92.21,-58.36,823,859,840,835,852,34.48275862068966,-0.395,-0.914,-0.047
83738,1755585166860,23.81,-92.27,-58.37,825,864,827,837,846,33.333333333333336,-0.393,-0.909,-0.045
83767,1755585166889,23.83,-92.25,-58.41,826,873,834,834,842,34.48275862068966,-0.397,-0.908,-0.044
83797,1755585166919,23.83,-92.28,-58.4,825,865,824,844,855,33.333333333333336,-0.398,-0.912,-0.047
83827,1755585166948,23.81,-92.28,-58.39,823,869,832,829,844,33.333333333333336,-0.396,-0.912,-0.045
83856,1755585166978,23.83,-92.24,-58.39,825,860,825,836,847,34.48275862068966,-0.396,-0.911,-0.042
83886,1755585167007,23.87,-92.21,-58.39,827,864,833,832,838,33.333333333333336,-0.397,-0.911,-0.046
83915,1755585167037,23.86,-92.24,-58.39,827,870,822,834,850,34.48275862068966,-0.397,-0.91,-0.049
83945,1755585167067,23.8,-92.32,-58.41,823,875,831,838,844,33.333333333333336,-0.397,-0.911,-0.044
83974,1755585167096,23.81,-92.31,-58.42,827,863,835,826,842,34.48275862068966,-0.396,-0.912,-0.041
84004,1755585167126,23.87,-92.27,-58.4,825,865,825,832,853,33.333333333333336,-0.396,-0.911,-0.044
84034,1755585167156,23.85,-92.28,-58.44,829,859,835,840,841,33.333333333333336,-0.398,-0.909,-0.046
84063,1755585167185,23.85,-92.28,-58.48,828,857,834,835,845,34.48275862068966,-0.398,-0.91,-0.044
84093,1755585167215,23.88,-92.26,-58.46,823,879,836,831,846,33.333333333333336,-0.397,-0.912,-0.042
84123,1755585167245,23.9,-92.29,-58.44,822,862,821,835,847,33.333333333333336,-0.396,-0.912,-0.045
84153,1755585167274,23.91,-92.28,-58.44,826,863,839,837,842,33.333333333333336,-0.396,-0.91,-0.045
84182,1755585167304,23.89,-92.31,-58.47,822,856,833,839,844,34.48275862068966,-0.398,-0.91,-0.045
84212,1755585167334,23.89,-92.34,-58.47,827,864,823,833,847,33.333333333333336,-0.398,-0.912,-0.047
84241,1755585167363,23.85,-92.4,-58.45,827,867,828,840,841,34.48275862068966,-0.397,-0.913,-0.046
84271,1755585167393,23.83,-92.37,-58.45,828,864,844,842,848,33.333333333333336,-0.395,-0.911,-0.042
84300,1755585167422,23.87,-92.31,-58.48,826,857,819,839,850,34.48275862068966,-0.398,-0.911,-0.045
84330,1755585167452,23.85,-92.36,-58.5,821,868,815,836,846,33.333333333333336,-0.398,-0.911,-0.049
84359,1755585167481,23.81,-92.37,-58.5,834,872,837,823,840,34.48275862068966,-0.396,-0.912,-0.046
84389,1755585167511,23.8,-92.35,-58.5,831,862,829,831,847,33.333333333333336,-0.395,-0.913,-0.041
84419,1755585167541,23.85,-92.35,-58.51,827,861,824,834,848,33.333333333333336,-0.395,-0.911,-0.042
84448,1755585167570,23.85,-92.36,-58.52,828,865,828,828,861,34.48275862068966,-0.397,-0.91,-0.046
84478,1755585167599,23.82,-92.4,-58.53,815,858,838,827,844,33.333333333333336,-0.399,-0.912,-0.045
84507,1755585167629,23.84,-92.38,-58.52,821,869,811,834,843,34.48275862068966,-0.396,-0.913,-0.042
84537,1755585167659,23.84,-92.37,-58.54,824,866,841,836,844,33.333333333333336,-0.394,-0.913,-0.044
84566,1755585167688,23.85,-92.37,-58.53,822,861,824,839,850,34.48275862068966,-0.397,-0.912,-0.046
84596,1755585167718,23.85,-92.43,-58.52,819,858,827,839,856,33.333333333333336,-0.397,-0.91,-0.045
84626,1755585167748,23.85,-92.42,-58.54,823,863,814,835,848,33.333333333333336,-0.396,-0.911,-0.044
84655,1755585167777,23.85,-92.33,-58.55,827,856,835,852,844,34.48275862068966,-0.396,-0.912,-0.047
84685,1755585167807,23.82,-92.43,-58.52,824,865,825,839,852,33.333333333333336,-0.397,-0.912,-0.049
84714,1755585167836,23.82,-92.46,-58.52,824,863,832,825,848,34.48275862068966,-0.397,-0.91,-0.043
84744,1755585167866,23.86,-92.38,-58.55,830,854,858,824,831,33.333333333333336,-0.399,-0.913,-0.042
84764,1755585167886,23.88,-92.32,-58.54,828,864,850,838,844,50.0,-0.397,-0.913,-0.047
84793,1755585167915,23.89,-92.4,-58.5,827,858,830,827,841,34.48275862068966,-0.397,-0.912,-0.05
84823,1755585167945,23.85,-92.41,-58.51,822,860,825,834,854,33.333333333333336,-0.397,-0.911,-0.046
84853,1755585167974,23.89,-92.32,-58.54,823,870,832,826,836,33.333333333333336,-0.397,-0.911,-0.043
84882,1755585168004,23.92,-92.34,-58.53,826,861,832,844,845,34.48275862068966,-0.399,-0.912,-0.047
84912,1755585168033,23.88,-92.41,-58.51,825,856,830,839,847,33.333333333333336,-0.397,-0.912,-0.05
84941,1755585168063,23.83,-92.47,-58.53,826,853,835,830,844,34.48275862068966,-0.395,-0.911,-0.047
84971,1755585168093,23.88,-92.45,-58.55,825,858,830,832,844,33.333333333333336,-0.398,-0.912,-0.042
85000,1755585168122,23.96,-92.37,-58.54,821,870,820,833,854,34.48275862068966,-0.399,-0.911,-0.045
85030,1755585168152,23.97,-92.35,-58.53,824,868,832,833,845,33.333333333333336,-0.4,-0.91,-0.049
85060,1755585168181,23.92,-92.39,-58.56,834,861,816,824,844,33.333333333333336,-0.399,-0.91,-0.048
85089,1755585168211,23.92,-92.44,-58.55,827,865,827,841,833,34.48275862068966,-0.398,-0.912,-0.045
85119,1755585168241,23.93,-92.45,-58.54,820,862,833,834,846,33.333333333333336,-0.398,-0.911,-0.044
85139,1755585168261,23.94,-92.45,-58.55,821,852,824,832,838,50.0,-0.398,-0.91,-0.045
85168,1755585168290,23.94,-92.44,-58.58,828,847,851,836,845,34.48275862068966,-0.399,-0.911,-0.045
85198,1755585168321,23.94,-92.45,-58.55,827,860,827,825,850,33.333333333333336,-0.398,-0.913,-0.047
85218,1755585168340,23.93,-92.49,-58.54,829,865,835,830,856,50.0,-0.396,-0.913,-0.046
85248,1755585168370,23.92,-92.48,-58.55,821,862,837,839,856,33.333333333333336,-0.395,-0.911,-0.044
85278,1755585168399,23.95,-92.44,-58.56,833,859,833,836,844,33.333333333333336,-0.398,-0.911,-0.044
85307,1755585168429,23.96,-92.46,-58.55,826,867,835,832,844,34.48275862068966,-0.398,-0.91,-0.047
85337,1755585168458,23.92,-92.51,-58.58,833,866,837,840,838,33.333333333333336,-0.396,-0.911,-0.046
85366,1755585168488,23.9,-92.49,-58.59,820,862,826,832,852,34.48275862068966,-0.397,-0.912,-0.044
85396,1755585168518,23.92,-92.47,-58.56,836,863,835,830,843,33.333333333333336,-0.397,-0.91,-0.045
