timestamp_ms,recv_timestamp_ms,pitch,roll,yaw,flex1,flex2,flex3,flex4,flex5,sampling_hz,accel_x,accel_y,accel_z
20919,1755586183568,16.06,-35.16,-13.91,778,768,775,747,820,34.48275862068966,-0.282,-0.588,0.762
20949,1755586183598,15.85,-35.49,-13.98,778,770,765,748,820,33.333333333333336,-0.275,-0.582,0.745
20978,1755586183627,16.0,-35.96,-13.96,778,773,771,745,820,34.48275862068966,-0.281,-0.583,0.748
21008,1755586183657,15.89,-36.3,-13.94,778,778,775,753,826,33.333333333333336,-0.287,-0.591,0.756
21038,1755586183687,15.82,-36.58,-13.9,777,773,774,750,815,33.333333333333336,-0.28,-0.589,0.761
21067,1755586183716,15.87,-36.76,-13.91,776,791,764,753,821,34.48275862068966,-0.278,-0.596,0.764
21097,1755586183746,15.79,-36.72,-13.97,777,777,773,752,822,33.333333333333336,-0.276,-0.6,0.757
21126,1755586183776,15.7,-36.77,-14.03,776,782,768,752,820,34.48275862068966,-0.273,-0.602,0.754
21156,1755586183805,15.75,-36.8,-14.07,779,767,772,749,816,33.333333333333336,-0.275,-0.606,0.758
21186,1755586183835,15.78,-36.65,-14.03,775,771,773,755,818,33.333333333333336,-0.269,-0.604,0.761
21215,1755586183864,15.97,-36.6,-14.0,772,774,774,749,819,34.48275862068966,-0.27,-0.61,0.763
21245,1755586183894,16.16,-36.5,-13.89,777,776,770,751,821,33.333333333333336,-0.273,-0.607,0.759
21274,1755586183924,16.16,-36.29,-13.87,773,767,776,750,819,34.48275862068966,-0.272,-0.604,0.76
21304,1755586183953,16.02,-36.18,-13.99,772,770,770,747,839,33.333333333333336,-0.274,-0.602,0.754
21334,1755586183983,15.93,-36.0,-13.99,777,776,776,749,815,33.333333333333336,-0.288,-0.604,0.754
21364,1755586184013,15.98,-36.02,-13.9,775,776,769,753,814,33.333333333333336,-0.289,-0.604,0.752
21393,1755586184042,16.05,-36.09,-13.8,776,767,777,750,820,34.48275862068966,-0.285,-0.595,0.754
21423,1755586184072,16.04,-36.12,-13.75,774,767,772,754,817,33.333333333333336,-0.283,-0.594,0.758
21453,1755586184102,15.93,-36.12,-13.69,780,770,777,752,823,33.333333333333336,-0.278,-0.59,0.758
21482,1755586184131,16.09,-36.26,-13.58,771,777,777,754,816,34.48275862068966,-0.284,-0.599,0.761
21512,1755586184161,16.14,-36.09,-13.47,776,776,772,754,814,33.333333333333336,-0.281,-0.595,0.759
21541,1755586184190,16.17,-36.2,-13.49,777,775,785,748,829,34.48275862068966,-0.279,-0.59,0.752
21571,1755586184220,16.21,-36.29,-13.49,780,771,766,749,826,33.333333333333336,-0.282,-0.594,0.756
21600,1755586184249,16.04,-36.35,-13.59,772,774,777,750,817,34.48275862068966,-0.278,-0.591,0.754
21630,1755586184279,16.08,-36.55,-13.69,771,768,774,757,831,33.333333333333336,-0.283,-0.594,0.754
21660,1755586184309,16.12,-36.39,-13.62,769,775,775,747,825,33.333333333333336,-0.295,-0.601,0.761
21689,1755586184338,15.98,-36.29,-13.57,773,776,778,756,817,34.48275862068966,-0.29,-0.595,0.753
21719,1755586184368,16.05,-36.42,-13.51,775,769,772,752,815,33.333333333333336,-0.288,-0.59,0.753
21749,1755586184398,16.08,-36.38,-13.45,780,774,770,748,823,33.333333333333336,-0.288,-0.593,0.759
21778,1755586184427,16.01,-36.29,-13.39,774,770,770,745,822,34.48275862068966,-0.287,-0.592,0.763
21808,1755586184456,15.95,-36.31,-13.4,778,768,772,752,819,33.333333333333336,-0.288,-0.587,0.759
21837,1755586184486,15.93,-36.28,-13.35,766,776,772,751,819,34.48275862068966,-0.295,-0.591,0.756
21867,1755586184516,15.88,-36.24,-13.26,772,773,771,755,828,33.333333333333336,-0.293,-0.587,0.755
21896,1755586184545,15.99,-36.22,-13.2,777,773,773,750,822,34.48275862068966,-0.295,-0.587,0.762
21926,1755586184575,16.03,-36.19,-13.18,772,775,775,749,825,33.333333333333336,-0.294,-0.585,0.763
21955,1755586184604,16.07,-36.07,-13.16,774,774,762,753,823,34.48275862068966,-0.295,-0.587,0.764
21985,1755586184634,16.15,-35.96,-13.09,771,772,775,746,819,33.333333333333336,-0.297,-0.591,0.766
22014,1755586184664,16.01,-35.94,-13.14,773,776,777,750,817,34.48275862068966,-0.29,-0.583,0.763
22044,1755586184693,15.97,-35.92,-13.2,777,772,780,749,825,33.333333333333336,-0.283,-0.575,0.762
22073,1755586184722,15.97,-35.83,-13.22,779,761,771,752,831,34.48275862068966,-0.287,-0.577,0.764
22103,1755586184752,15.97,-36.06,-13.22,780,771,777,748,824,33.333333333333336,-0.292,-0.579,0.762
22132,1755586184781,16.01,-36.14,-13.1,776,766,772,752,824,34.48275862068966,-0.297,-0.582,0.763
22162,1755586184811,16.03,-36.07,-12.95,776,772,770,753,822,33.333333333333336,-0.299,-0.58,0.763
22191,1755586184841,16.05,-36.13,-12.84,775,764,774,752,845,34.48275862068966,-0.296,-0.573,0.762
22221,1755586184870,16.02,-36.16,-12.82,775,771,769,745,817,33.333333333333336,-0.299,-0.574,0.764
22251,1755586184900,15.95,-36.19,-12.73,775,767,771,745,816,33.333333333333336,-0.296,-0.57,0.765
22280,1755586184929,15.97,-36.32,-12.67,779,774,771,747,828,34.48275862068966,-0.298,-0.571,0.768
22310,1755586184959,15.95,-36.38,-12.65,776,777,774,749,821,33.333333333333336,-0.298,-0.574,0.769
22339,1755586184988,15.89,-36.21,-12.57,776,767,775,753,822,34.48275862068966,-0.297,-0.575,0.775
22369,1755586185018,16.0,-35.92,-12.44,776,765,772,749,819,33.333333333333336,-0.299,-0.573,0.773
22398,1755586185047,16.05,-35.89,-12.37,774,777,771,753,827,34.48275862068966,-0.296,-0.572,0.766
22428,1755586185077,16.09,-35.81,-12.36,772,771,772,756,821,33.333333333333336,-0.296,-0.574,0.764
22457,1755586185106,15.87,-35.8,-12.42,775,766,764,746,822,34.48275862068966,-0.295,-0.571,0.759
22487,1755586185136,15.94,-35.97,-12.43,777,775,770,750,821,33.333333333333336,-0.293,-0.571,0.765
22517,1755586185166,15.87,-35.92,-12.46,771,769,768,749,825,33.333333333333336,-0.297,-0.574,0.77
22546,1755586185195,15.73,-35.96,-12.5,772,773,774,744,818,34.48275862068966,-0.295,-0.569,0.765
22576,1755586185225,15.75,-36.15,-12.58,775,773,772,747,814,33.333333333333336,-0.294,-0.568,0.764
22605,1755586185254,15.63,-36.16,-12.64,772,775,776,753,828,34.48275862068966,-0.298,-0.574,0.771
22635,1755586185284,15.42,-36.07,-12.72,775,771,765,754,834,33.333333333333336,-0.295,-0.573,0.772
22664,1755586185313,15.51,-36.24,-12.82,774,778,779,750,823,34.48275862068966,-0.288,-0.568,0.767
22694,1755586185343,15.42,-36.36,-12.94,777,776,769,753,815,33.333333333333336,-0.292,-0.568,0.768
22723,1755586185372,15.26,-36.47,-12.96,768,778,774,752,824,34.48275862068966,-0.29,-0.569,0.768
22753,1755586185402,15.45,-36.53,-12.95,770,776,773,747,821,33.333333333333336,-0.288,-0.576,0.776
22782,1755586185431,15.47,-36.5,-13.05,778,777,767,758,829,34.48275862068966,-0.283,-0.571,0.776
22812,1755586185461,15.34,-36.47,-13.14,774,775,771,754,822,33.333333333333336,-0.281,-0.57,0.775
22841,1755586185490,15.35,-36.41,-13.19,773,781,770,755,821,34.48275862068966,-0.281,-0.572,0.771
22871,1755586185520,15.33,-36.54,-13.28,779,769,776,750,824,33.333333333333336,-0.278,-0.567,0.767
22900,1755586185549,15.42,-36.57,-13.3,777,775,776,753,813,34.48275862068966,-0.281,-0.573,0.774
22930,1755586185579,15.43,-36.46,-13.34,774,772,765,750,821,33.333333333333336,-0.281,-0.577,0.774
22960,1755586185608,15.33,-36.56,-13.4,778,775,769,753,823,33.333333333333336,-0.275,-0.573,0.767
22989,1755586185638,15.39,-36.62,-13.5,764,769,767,752,818,34.48275862068966,-0.28,-0.576,0.77
23019,1755586185668,15.28,-36.58,-13.53,774,772,762,757,819,33.333333333333336,-0.284,-0.579,0.772
23048,1755586185697,15.29,-36.64,-13.48,772,772,770,752,816,34.48275862068966,-0.279,-0.578,0.774
23078,1755586185726,15.35,-36.61,-13.51,770,774,771,756,816,33.333333333333336,-0.276,-0.58,0.774
23107,1755586185756,15.26,-36.7,-13.55,769,782,772,749,822,34.48275862068966,-0.277,-0.58,0.767
23137,1755586185785,15.29,-36.75,-13.51,774,768,775,749,826,33.333333333333336,-0.277,-0.581,0.768
23166,1755586185815,15.37,-36.94,-13.55,764,768,774,750,811,34.48275862068966,-0.277,-0.58,0.767
23196,1755586185845,15.3,-37.0,-13.55,770,773,770,750,821,33.333333333333336,-0.279,-0.582,0.772
23225,1755586185874,15.25,-36.84,-13.58,776,768,775,750,830,34.48275862068966,-0.273,-0.582,0.775
23255,1755586185904,15.32,-36.92,-13.66,774,777,776,752,821,33.333333333333336,-0.269,-0.58,0.771
23284,1755586185934,15.32,-37.08,-13.71,769,769,769,748,825,34.48275862068966,-0.274,-0.583,0.77
23314,1755586185963,15.25,-37.01,-13.71,774,771,769,752,818,33.333333333333336,-0.274,-0.585,0.769
23343,1755586185993,15.41,-37.02,-13.72,778,772,774,745,824,34.48275862068966,-0.277,-0.587,0.769
23373,1755586186022,15.41,-37.04,-13.71,775,769,772,750,817,33.333333333333336,-0.277,-0.586,0.766
23403,1755586186052,15.43,-37.09,-13.71,769,772,773,754,833,33.333333333333336,-0.274,-0.586,0.767
23432,1755586186082,15.51,-37.13,-13.7,767,777,761,755,819,34.48275862068966,-0.277,-0.589,0.768
23462,1755586186111,15.47,-37.09,-13.67,770,775,768,750,825,33.333333333333336,-0.278,-0.591,0.766
23492,1755586186141,15.57,-37.07,-13.64,779,774,770,747,823,33.333333333333336,-0.278,-0.59,0.767
23521,1755586186170,15.53,-36.99,-13.63,770,774,775,749,828,34.48275862068966,-0.278,-0.591,0.768
23551,1755586186200,15.47,-36.95,-13.61,766,776,769,745,821,33.333333333333336,-0.276,-0.589,0.765
23580,1755586186229,15.65,-36.87,-13.54,770,779,776,749,820,34.48275862068966,-0.278,-0.588,0.765
23610,1755586186259,15.72,-36.89,-13.51,768,773,765,756,822,33.333333333333336,-0.282,-0.588,0.765
23639,1755586186288,15.66,-36.98,-13.52,778,765,768,751,820,34.48275862068966,-0.277,-0.584,0.762
23669,1755586186318,15.74,-37.07,-13.51,773,766,771,753,820,33.333333333333336,-0.28,-0.588,0.766
23698,1755586186347,15.71,-36.95,-13.48,774,772,776,744,818,34.48275862068966,-0.281,-0.587,0.767
23728,1755586186377,15.67,-36.98,-13.48,773,772,770,752,819,33.333333333333336,-0.276,-0.582,0.764
23757,1755586186406,15.72,-37.04,-13.51,772,767,771,750,824,34.48275862068966,-0.281,-0.588,0.768
23787,1755586186436,15.63,-36.99,-13.5,767,773,770,746,825,33.333333333333336,-0.282,-0.586,0.764
23816,1755586186465,15.67,-37.03,-13.48,773,778,766,753,823,34.48275862068966,-0.278,-0.582,0.762
23846,1755586186495,15.71,-37.18,-13.53,776,769,771,752,831,33.333333333333336,-0.279,-0.584,0.763
23875,1755586186525,15.55,-37.13,-13.57,776,773,767,750,823,34.48275862068966,-0.278,-0.584,0.767
23905,1755586186554,15.68,-37.08,-13.55,782,778,775,753,822,33.333333333333336,-0.279,-0.585,0.771
23934,1755586186584,15.77,-37.07,-13.53,772,774,767,748,813,34.48275862068966,-0.281,-0.588,0.765
23964,1755586186613,15.7,-37.15,-13.49,770,772,766,751,824,33.333333333333336,-0.281,-0.586,0.76
23994,1755586186643,15.78,-37.21,-13.47,774,776,773,753,822,33.333333333333336,-0.28,-0.583,0.76
24023,1755586186672,15.77,-37.19,-13.46,773,762,770,750,821,34.48275862068966,-0.285,-0.584,0.763
24053,1755586186702,15.65,-37.1,-13.42,779,773,770,753,826,33.333333333333336,-0.284,-0.587,0.767
24082,1755586186731,15.72,-37.09,-13.39,771,779,775,748,819,34.48275862068966,-0.278,-0.583,0.763
24112,1755586186761,15.7,-37.13,-13.45,773,777,772,750,818,33.333333333333336,-0.281,-0.582,0.76
24141,1755586186791,15.64,-37.2,-13.48,775,773,776,749,822,34.48275862068966,-0.281,-0.585,0.761
24171,1755586186820,15.72,-37.18,-13.46,772,770,769,750,822,33.333333333333336,-0.279,-0.589,0.761
24200,1755586186850,15.76,-37.14,-13.44,772,786,775,747,823,34.48275862068966,-0.279,-0.587,0.759
24230,1755586186879,15.77,-37.13,-13.45,773,773,775,750,822,33.333333333333336,-0.283,-0.587,0.761
24259,1755586186908,15.73,-37.06,-13.42,775,769,770,755,817,34.48275862068966,-0.286,-0.587,0.758
24289,1755586186938,15.74,-37.17,-13.42,772,777,776,752,822,33.333333333333336,-0.284,-0.585,0.756
24318,1755586186967,15.68,-37.17,-13.49,772,771,775,746,821,34.48275862068966,-0.284,-0.584,0.761
24348,1755586186997,15.6,-37.21,-13.53,769,771,773,752,821,33.333333333333336,-0.285,-0.584,0.762
24377,1755586187027,15.72,-37.22,-13.48,781,768,774,753,820,34.48275862068966,-0.285,-0.585,0.766
24407,1755586187056,15.65,-37.18,-13.49,776,772,770,753,822,33.333333333333336,-0.284,-0.582,0.764
24437,1755586187086,15.52,-37.25,-13.52,774,772,774,755,824,33.333333333333336,-0.282,-0.584,0.76
24466,1755586187115,15.67,-37.27,-13.47,771,773,773,751,818,34.48275862068966,-0.284,-0.588,0.763
24496,1755586187145,15.7,-37.27,-13.47,768,772,766,747,846,33.333333333333336,-0.282,-0.586,0.766
24525,1755586187175,15.62,-37.28,-13.52,776,775,780,754,824,34.48275862068966,-0.281,-0.584,0.763
24555,1755586187204,15.73,-37.25,-13.48,769,763,768,748,831,33.333333333333336,-0.284,-0.588,0.764
24585,1755586187234,15.78,-37.21,-13.44,769,773,777,753,821,33.333333333333336,-0.283,-0.587,0.764
24614,1755586187263,15.72,-37.28,-13.46,770,775,774,751,822,34.48275862068966,-0.286,-0.584,0.762
24644,1755586187293,15.79,-37.27,-13.4,769,779,773,749,831,33.333333333333336,-0.286,-0.585,0.763
24673,1755586187322,15.86,-37.28,-13.35,770,780,775,754,823,34.48275862068966,-0.286,-0.583,0.766
24703,1755586187351,15.77,-37.3,-13.41,778,764,769,743,818,33.333333333333336,-0.281,-0.581,0.765
24732,1755586187381,15.8,-37.29,-13.43,777,770,771,748,823,34.48275862068966,-0.281,-0.585,0.764
24762,1755586187411,15.82,-37.29,-13.43,773,777,775,753,817,33.333333333333336,-0.287,-0.588,0.765
24791,1755586187440,15.75,-37.16,-13.36,774,772,777,745,823,34.48275862068966,-0.288,-0.587,0.765
24821,1755586187470,15.83,-37.17,-13.36,773,775,774,746,819,33.333333333333336,-0.285,-0.585,0.763
24850,1755586187499,15.8,-37.11,-13.35,773,771,771,748,824,34.48275862068966,-0.284,-0.585,0.762
24880,1755586187529,15.82,-37.15,-13.35,772,771,776,752,826,33.333333333333336,-0.287,-0.583,0.761
24909,1755586187558,15.82,-37.14,-13.31,771,777,776,751,820,34.48275862068966,-0.287,-0.58,0.761
24939,1755586187588,15.82,-37.15,-13.33,773,777,776,745,812,33.333333333333336,-0.289,-0.581,0.766
24969,1755586187618,15.75,-37.09,-13.33,772,773,773,755,826,33.333333333333336,-0.288,-0.581,0.764
24998,1755586187647,15.74,-37.05,-13.31,767,779,770,757,831,34.48275862068966,-0.287,-0.581,0.764
25028,1755586187677,15.72,-37.04,-13.35,769,773,770,753,815,33.333333333333336,-0.287,-0.582,0.764
25057,1755586187706,15.65,-36.99,-13.36,776,773,778,748,823,34.48275862068966,-0.287,-0.581,0.762
25087,1755586187736,15.7,-37.03,-13.35,772,774,772,750,818,33.333333333333336,-0.288,-0.579,0.762
25116,1755586187765,15.69,-37.04,-13.36,774,766,776,753,810,34.48275862068966,-0.289,-0.583,0.766
25146,1755586187795,15.66,-37.06,-13.33,775,775,768,752,826,33.333333333333336,-0.286,-0.581,0.765
25175,1755586187824,15.8,-37.08,-13.31,772,767,773,746,822,34.48275862068966,-0.286,-0.58,0.767
25205,1755586187854,15.68,-37.01,-13.33,774,768,771,748,816,33.333333333333336,-0.286,-0.581,0.767
25235,1755586187884,15.63,-37.01,-13.34,774,774,768,749,827,33.333333333333336,-0.284,-0.578,0.765
25264,1755586187913,15.78,-37.06,-13.32,774,783,770,757,825,34.48275862068966,-0.283,-0.58,0.765
25294,1755586187943,15.72,-37.06,-13.32,773,768,770,751,825,33.333333333333336,-0.286,-0.583,0.768
25323,1755586187972,15.63,-37.07,-13.33,769,775,777,746,823,34.48275862068966,-0.283,-0.58,0.767
25353,1755586188002,15.74,-37.07,-13.33,788,774,768,750,817,33.333333333333336,-0.283,-0.58,0.767
25382,1755586188032,15.67,-37.0,-13.34,774,772,774,750,824,34.48275862068966,-0.285,-0.58,0.767
25412,1755586188061,15.6,-37.05,-13.36,771,772,772,752,821,33.333333333333336,-0.283,-0.577,0.766
25442,1755586188091,15.65,-37.11,-13.37,771,759,771,743,823,33.333333333333336,-0.285,-0.578,0.766
25471,1755586188121,15.58,-37.13,-13.41,773,772,772,758,827,34.48275862068966,-0.285,-0.579,0.766
25492,1755586188141,15.57,-37.18,-13.43,774,762,769,752,823,47.61904761904762,-0.283,-0.58,0.769
25521,1755586188170,15.67,-37.17,-13.46,770,771,769,753,827,34.48275862068966,-0.286,-0.582,0.77
25551,1755586188200,15.58,-37.13,-13.45,774,775,773,753,820,33.333333333333336,-0.284,-0.58,0.766
25580,1755586188229,15.58,-37.17,-13.47,778,775,768,750,823,34.48275862068966,-0.285,-0.581,0.764
25610,1755586188259,15.62,-37.14,-13.45,773,775,767,753,826,33.333333333333336,-0.287,-0.583,0.765
25639,1755586188289,15.62,-37.2,-13.41,773,772,783,751,822,34.48275862068966,-0.283,-0.581,0.766
25669,1755586188318,15.7,-37.18,-13.39,773,768,764,752,822,33.333333333333336,-0.279,-0.579,0.771
25698,1755586188347,15.73,-37.09,-13.43,771,775,772,744,817,34.48275862068966,-0.283,-0.58,0.772
25728,1755586188377,15.71,-36.99,-13.42,778,772,772,754,827,33.333333333333336,-0.287,-0.58,0.767
25757,1755586188406,15.79,-37.05,-13.39,773,778,772,742,823,34.48275862068966,-0.288,-0.583,0.762
25787,1755586188436,15.74,-37.02,-13.38,777,773,771,746,815,33.333333333333336,-0.286,-0.582,0.765
25816,1755586188466,15.64,-36.98,-13.4,769,778,773,752,818,34.48275862068966,-0.283,-0.578,0.767
25846,1755586188495,15.63,-36.9,-13.39,772,779,766,752,823,33.333333333333336,-0.284,-0.578,0.768
25875,1755586188525,15.73,-36.95,-13.37,772,777,761,755,822,34.48275862068966,-0.285,-0.579,0.768
25905,1755586188554,15.72,-36.92,-13.33,771,768,776,754,818,33.333333333333336,-0.281,-0.579,0.767
25935,1755586188584,15.72,-36.99,-13.42,773,776,770,746,843,33.333333333333336,-0.285,-0.578,0.767
25964,1755586188614,15.69,-37.01,-13.41,769,780,768,750,830,34.48275862068966,-0.285,-0.579,0.766
25994,1755586188643,15.7,-36.86,-13.39,778,766,763,753,827,33.333333333333336,-0.285,-0.577,0.767
26024,1755586188673,15.68,-36.83,-13.37,771,773,775,751,819,33.333333333333336,-0.284,-0.578,0.767
26053,1755586188702,15.74,-36.86,-13.39,764,771,771,748,823,34.48275862068966,-0.284,-0.579,0.767
26083,1755586188732,15.74,-36.86,-13.38,775,774,771,750,824,33.333333333333336,-0.286,-0.579,0.766
26112,1755586188762,15.68,-36.84,-13.36,769,779,768,754,822,34.48275862068966,-0.286,-0.579,0.767
26142,1755586188791,15.73,-36.84,-13.32,768,774,767,752,831,33.333333333333336,-0.284,-0.578,0.769
26172,1755586188821,15.72,-36.72,-13.3,775,774,766,753,819,33.333333333333336,-0.282,-0.577,0.771
26201,1755586188850,15.65,-36.68,-13.33,771,763,773,753,822,34.48275862068966,-0.279,-0.574,0.77
26231,1755586188880,15.64,-36.64,-13.39,772,774,766,750,825,33.333333333333336,-0.283,-0.577,0.768
26260,1755586188909,15.53,-36.77,-13.49,767,774,766,757,821,34.48275862068966,-0.287,-0.578,0.764
26290,1755586188939,15.52,-36.74,-13.47,770,778,770,754,817,33.333333333333336,-0.287,-0.578,0.771
26319,1755586188968,15.6,-36.6,-13.42,775,761,768,753,811,34.48275862068966,-0.288,-0.579,0.778
26349,1755586188998,15.58,-36.53,-13.41,770,772,773,746,821,33.333333333333336,-0.282,-0.573,0.772
26378,1755586189027,15.65,-36.54,-13.39,774,762,771,754,823,34.48275862068966,-0.282,-0.575,0.772
26408,1755586189057,15.22,-36.42,-13.42,773,769,768,756,826,33.333333333333336,-0.285,-0.574,0.77
26438,1755586189087,15.19,-36.5,-13.41,774,789,770,752,819,33.333333333333336,-0.288,-0.573,0.772
26467,1755586189117,15.24,-36.39,-13.37,771,774,766,749,819,34.48275862068966,-0.288,-0.575,0.778
26487,1755586189137,15.23,-36.32,-13.36,766,771,765,754,821,50.0,-0.28,-0.57,0.775
26517,1755586189166,15.21,-36.37,-13.41,766,770,774,752,824,33.333333333333336,-0.278,-0.567,0.774
26547,1755586189196,15.31,-36.37,-13.44,774,777,777,747,819,33.333333333333336,-0.281,-0.57,0.775
26576,1755586189226,15.3,-36.31,-13.46,774,773,775,747,825,34.48275862068966,-0.284,-0.571,0.776
26606,1755586189255,15.3,-36.28,-13.44,774,770,772,749,821,33.333333333333336,-0.289,-0.572,0.773
26636,1755586189285,15.33,-36.32,-13.37,772,775,774,742,820,33.333333333333336,-0.291,-0.572,0.77
26666,1755586189315,15.35,-36.38,-13.35,771,773,769,752,820,33.333333333333336,-0.286,-0.569,0.772
26695,1755586189344,15.28,-36.34,-13.4,777,770,773,752,826,34.48275862068966,-0.283,-0.569,0.776
26725,1755586189374,15.3,-36.29,-13.4,773,771,774,747,820,33.333333333333336,-0.285,-0.571,0.778
26754,1755586189403,15.38,-36.27,-13.37,773,775,773,752,824,34.48275862068966,-0.286,-0.571,0.778
26784,1755586189433,15.38,-36.23,-13.39,774,766,778,753,816,33.333333333333336,-0.285,-0.57,0.775
26813,1755586189462,15.39,-36.18,-13.37,773,771,775,748,826,34.48275862068966,-0.285,-0.568,0.774
26842,1755586189491,15.47,-36.06,-13.32,772,779,778,755,816,34.48275862068966,-0.285,-0.568,0.78
26872,1755586189521,15.48,-35.84,-13.32,773,777,760,751,824,33.333333333333336,-0.286,-0.568,0.785
26902,1755586189551,15.53,-35.69,-13.32,773,771,766,753,817,33.333333333333336,-0.285,-0.566,0.782
26931,1755586189581,15.62,-35.7,-13.32,774,780,759,754,820,34.48275862068966,-0.284,-0.565,0.778
26952,1755586189601,15.64,-35.71,-13.34,768,779,769,750,828,47.61904761904762,-0.288,-0.564,0.777
26981,1755586189631,15.53,-35.73,-13.38,772,775,772,750,818,34.48275862068966,-0.29,-0.562,0.778
27011,1755586189660,15.59,-35.71,-13.37,771,772,766,753,826,33.333333333333336,-0.291,-0.564,0.782
27041,1755586189690,15.56,-35.66,-13.35,785,769,772,753,818,33.333333333333336,-0.29,-0.563,0.78
27070,1755586189720,15.48,-35.69,-13.37,777,775,775,752,821,34.48275862068966,-0.285,-0.558,0.776
27100,1755586189749,15.51,-35.69,-13.4,774,772,767,744,825,33.333333333333336,-0.287,-0.56,0.78
27129,1755586189778,15.44,-35.73,-13.45,772,756,775,754,825,34.48275862068966,-0.287,-0.56,0.783
27159,1755586189808,15.4,-35.7,-13.46,774,775,772,750,819,33.333333333333336,-0.287,-0.56,0.785
27188,1755586189837,15.41,-35.65,-13.46,777,769,766,748,821,34.48275862068966,-0.285,-0.559,0.784
27218,1755586189867,15.43,-35.7,-13.48,774,776,778,750,825,33.333333333333336,-0.286,-0.56,0.782
27247,1755586189897,15.42,-35.66,-13.47,771,766,773,755,826,34.48275862068966,-0.289,-0.56,0.784
27277,1755586189927,15.43,-35.66,-13.44,776,768,770,748,830,33.333333333333336,-0.286,-0.559,0.783
27307,1755586189956,15.47,-35.61,-13.43,777,771,765,755,824,33.333333333333336,-0.287,-0.56,0.783
27337,1755586189986,15.45,-35.67,-13.43,771,772,771,752,823,33.333333333333336,-0.286,-0.558,0.78
27366,1755586190015,15.48,-35.73,-13.42,769,776,768,749,815,34.48275862068966,-0.284,-0.558,0.781
27396,1755586190045,15.49,-35.77,-13.43,773,777,775,753,827,33.333333333333336,-0.284,-0.56,0.784
27425,1755586190074,15.44,-35.73,-13.45,771,767,773,757,817,34.48275862068966,-0.285,-0.56,0.786
27455,1755586190104,15.46,-35.69,-13.46,771,774,774,752,823,33.333333333333336,-0.286,-0.56,0.784
27484,1755586190133,15.46,-35.71,-13.46,771,773,763,751,813,34.48275862068966,-0.284,-0.558,0.781
27514,1755586190163,15.47,-35.69,-13.47,771,775,775,745,822,33.333333333333336,-0.286,-0.559,0.783
27544,1755586190193,15.48,-35.74,-13.5,766,772,776,751,824,33.333333333333336,-0.285,-0.566,0.783
27573,1755586190223,15.49,-35.73,-13.5,766,776,774,752,811,34.48275862068966,-0.283,-0.564,0.783
27603,1755586190252,15.44,-35.74,-13.55,771,773,782,750,826,33.333333333333336,-0.284,-0.564,0.781
27633,1755586190282,15.39,-35.77,-13.57,765,778,775,753,809,33.333333333333336,-0.286,-0.563,0.78
27662,1755586190311,15.48,-35.75,-13.54,768,774,777,751,827,34.48275862068966,-0.287,-0.565,0.784
27692,1755586190341,15.46,-35.68,-13.51,775,773,765,750,826,33.333333333333336,-0.29,-0.565,0.785
27721,1755586190371,15.47,-35.68,-13.49,773,775,775,743,823,34.48275862068966,-0.286,-0.562,0.779
27751,1755586190400,15.5,-35.69,-13.49,777,768,778,748,823,33.333333333333336,-0.285,-0.561,0.78
27780,1755586190430,15.46,-35.71,-13.49,772,774,774,756,825,34.48275862068966,-0.284,-0.561,0.783
27810,1755586190459,15.47,-35.71,-13.49,775,777,767,754,821,33.333333333333336,-0.281,-0.56,0.784
27839,1755586190488,15.46,-35.68,-13.51,770,770,772,750,814,34.48275862068966,-0.284,-0.56,0.784
27869,1755586190518,15.51,-35.66,-13.5,779,775,766,753,825,33.333333333333336,-0.285,-0.561,0.783
27898,1755586190547,15.57,-35.75,-13.5,773,775,772,750,841,34.48275862068966,-0.284,-0.559,0.779
27928,1755586190577,15.57,-35.83,-13.52,774,763,774,754,824,33.333333333333336,-0.287,-0.56,0.78
27957,1755586190606,15.59,-35.89,-13.53,774,766,768,752,816,34.48275862068966,-0.287,-0.562,0.779
27987,1755586190636,15.64,-35.91,-13.51,768,775,777,750,822,33.333333333333336,-0.285,-0.563,0.781
28016,1755586190666,15.64,-35.91,-13.52,769,775,767,750,814,34.48275862068966,-0.281,-0.56,0.782
28046,1755586190695,15.64,-35.93,-13.57,770,778,767,754,819,33.333333333333336,-0.285,-0.563,0.783
28076,1755586190725,15.72,-35.98,-13.55,768,763,775,750,818,33.333333333333336,-0.286,-0.563,0.776
28105,1755586190754,15.73,-35.98,-13.56,771,774,774,748,822,34.48275862068966,-0.289,-0.563,0.777
28135,1755586190784,15.68,-36.0,-13.56,770,765,759,750,826,33.333333333333336,-0.288,-0.565,0.778
28164,1755586190813,15.75,-35.95,-13.53,773,777,764,755,822,34.48275862068966,-0.286,-0.565,0.78
28194,1755586190843,15.77,-35.95,-13.55,769,777,766,744,819,33.333333333333336,-0.282,-0.564,0.78
28224,1755586190873,15.7,-35.95,-13.61,770,764,775,754,815,33.333333333333336,-0.285,-0.565,0.777
28253,1755586190902,15.7,-36.03,-13.64,769,766,769,756,822,34.48275862068966,-0.29,-0.564,0.772
28283,1755586190932,15.73,-36.06,-13.59,773,775,772,747,822,33.333333333333336,-0.293,-0.565,0.776
28312,1755586190962,15.72,-36.02,-13.57,766,773,775,750,816,34.48275862068966,-0.289,-0.566,0.781
28342,1755586190991,15.68,-35.95,-13.57,769,779,775,746,826,33.333333333333336,-0.285,-0.564,0.778
28372,1755586191021,15.71,-35.91,-13.55,773,767,772,746,820,33.333333333333336,-0.285,-0.566,0.777
28401,1755586191051,15.68,-35.95,-13.55,775,769,772,755,820,34.48275862068966,-0.284,-0.564,0.776
28431,1755586191080,15.71,-36.06,-13.57,770,782,776,750,816,33.333333333333336,-0.285,-0.564,0.777
28460,1755586191110,15.68,-36.05,-13.61,776,770,773,752,825,34.48275862068966,-0.289,-0.567,0.776
28490,1755586191139,15.65,-36.07,-13.59,777,782,772,746,832,33.333333333333336,-0.29,-0.568,0.777
28519,1755586191169,15.74,-35.98,-13.54,768,777,772,748,817,34.48275862068966,-0.29,-0.568,0.78
28549,1755586191198,15.7,-35.97,-13.54,773,778,764,752,821,33.333333333333336,-0.286,-0.565,0.775
28579,1755586191228,15.7,-35.99,-13.55,775,771,771,753,815,33.333333333333336,-0.286,-0.566,0.774
28608,1755586191257,15.73,-35.99,-13.52,770,764,771,753,818,34.48275862068966,-0.287,-0.566,0.778
28638,1755586191287,15.74,-35.92,-13.52,772,768,772,748,825,33.333333333333336,-0.285,-0.565,0.78
28668,1755586191317,15.72,-35.89,-13.53,771,777,776,755,823,33.333333333333336,-0.286,-0.564,0.776
28697,1755586191346,15.73,-35.94,-13.55,774,771,768,755,821,34.48275862068966,-0.287,-0.564,0.774
28726,1755586191375,15.73,-35.95,-13.52,774,768,772,753,840,34.48275862068966,-0.288,-0.564,0.777
28756,1755586191405,15.77,-35.97,-13.53,769,772,776,745,822,33.333333333333336,-0.289,-0.565,0.782
28785,1755586191434,15.76,-35.94,-13.51,767,772,773,749,817,34.48275862068966,-0.287,-0.565,0.779
28815,1755586191464,15.83,-35.91,-13.47,774,774,770,750,831,33.333333333333336,-0.288,-0.565,0.778
28845,1755586191494,15.97,-35.9,-13.44,775,779,772,754,820,33.333333333333336,-0.286,-0.564,0.781
28874,1755586191523,15.89,-35.82,-13.47,771,768,766,752,823,34.48275862068966,-0.287,-0.565,0.778
28904,1755586191553,15.9,-35.79,-13.42,767,769,767,748,818,33.333333333333336,-0.291,-0.566,0.777
28933,1755586191582,15.95,-35.79,-13.38,769,778,772,748,823,34.48275862068966,-0.292,-0.564,0.776
28963,1755586191612,15.82,-35.72,-13.37,770,774,775,750,819,33.333333333333336,-0.292,-0.563,0.778
28992,1755586191641,15.8,-35.74,-13.37,769,763,768,753,824,34.48275862068966,-0.292,-0.562,0.779
29022,1755586191671,15.86,-35.68,-13.28,774,777,774,757,817,33.333333333333336,-0.295,-0.564,0.781
29051,1755586191701,15.9,-35.63,-13.2,772,778,769,753,826,34.48275862068966,-0.295,-0.562,0.781
29081,1755586191730,15.88,-35.56,-13.16,773,777,773,741,815,33.333333333333336,-0.289,-0.559,0.78
29111,1755586191760,15.89,-35.53,-13.17,771,774,773,753,819,33.333333333333336,-0.287,-0.557,0.779
29140,1755586191789,15.93,-35.52,-13.21,770,773,774,757,813,34.48275862068966,-0.29,-0.557,0.782
29170,1755586191819,15.9,-35.47,-13.19,775,770,774,756,818,33.333333333333336,-0.294,-0.557,0.781
29199,1755586191848,16.02,-35.36,-13.08,776,779,771,750,835,34.48275862068966,-0.298,-0.56,0.785
29228,1755586191878,16.07,-35.27,-13.0,771,776,764,751,824,34.48275862068966,-0.298,-0.558,0.783
29258,1755586191907,16.06,-35.26,-12.94,778,764,771,750,832,33.333333333333336,-0.293,-0.553,0.777
29288,1755586191937,16.18,-35.29,-12.86,771,772,772,745,821,33.333333333333336,-0.294,-0.55,0.778
29317,1755586191966,16.16,-35.26,-12.85,773,777,770,752,824,34.48275862068966,-0.292,-0.549,0.784
29347,1755586191996,16.1,-35.23,-12.89,767,765,775,745,834,33.333333333333336,-0.292,-0.548,0.782
29377,1755586192026,16.23,-35.14,-12.86,772,779,767,751,825,33.333333333333336,-0.3,-0.552,0.782
29406,1755586192055,16.23,-35.2,-12.85,775,768,773,751,817,34.48275862068966,-0.301,-0.548,0.777
29436,1755586192085,16.24,-35.23,-12.85,762,775,767,757,845,33.333333333333336,-0.299,-0.546,0.778
29465,1755586192114,16.21,-35.25,-12.88,773,771,774,756,820,34.48275862068966,-0.3,-0.549,0.783
29495,1755586192144,16.18,-35.27,-12.89,772,772,774,747,822,33.333333333333336,-0.299,-0.549,0.784
29524,1755586192174,16.28,-35.33,-12.88,773,776,765,754,832,34.48275862068966,-0.296,-0.548,0.782
29554,1755586192203,16.3,-35.37,-12.91,774,765,769,752,822,33.333333333333336,-0.3,-0.55,0.783
29584,1755586192233,16.25,-35.4,-12.93,774,770,769,748,827,33.333333333333336,-0.3,-0.549,0.781
29613,1755586192262,16.31,-35.46,-12.93,771,773,775,746,819,34.48275862068966,-0.303,-0.551,0.782
29643,1755586192292,16.29,-35.46,-12.93,774,766,771,747,820,33.333333333333336,-0.304,-0.55,0.784
29672,1755586192321,16.33,-35.43,-12.9,770,773,779,752,816,34.48275862068966,-0.303,-0.552,0.785
29702,1755586192351,16.37,-35.33,-12.86,781,772,772,749,825,33.333333333333336,-0.304,-0.554,0.786
29731,1755586192381,16.41,-35.31,-12.84,767,778,770,758,819,34.48275862068966,-0.3,-0.553,0.784
