timestamp_ms,recv_timestamp_ms,pitch,roll,yaw,flex1,flex2,flex3,flex4,flex5,sampling_hz,accel_x,accel_y,accel_z
40420,1755587051938,65.83,-110.74,-31.93,768,762,768,744,886,50.0,-0.897,-0.398,-0.165
40449,1755587051968,65.79,-110.76,-31.94,778,778,769,747,892,34.48275862068966,-0.9,-0.402,-0.167
40479,1755587051998,65.78,-110.8,-31.92,773,776,780,743,885,33.333333333333336,-0.903,-0.404,-0.169
40509,1755587052027,65.71,-110.88,-31.9,772,768,774,741,898,33.333333333333336,-0.904,-0.404,-0.171
40539,1755587052058,65.7,-110.93,-31.85,772,773,778,746,898,33.333333333333336,-0.907,-0.406,-0.169
40559,1755587052077,65.7,-110.94,-31.81,775,776,770,746,891,50.0,-0.904,-0.403,-0.163
40589,1755587052107,65.69,-110.91,-31.8,776,776,776,744,883,33.333333333333336,-0.9,-0.397,-0.159
40619,1755587052137,65.64,-110.81,-31.8,774,776,773,738,883,33.333333333333336,-0.902,-0.397,-0.163
40639,1755587052157,65.57,-110.83,-31.8,772,777,768,745,895,50.0,-0.902,-0.397,-0.17
40669,1755587052187,65.51,-110.93,-31.83,762,766,775,742,902,33.333333333333336,-0.903,-0.397,-0.173
40699,1755587052217,65.42,-110.97,-31.87,777,776,774,745,897,33.333333333333336,-0.9,-0.396,-0.172
40719,1755587052237,65.31,-110.99,-31.9,772,761,772,743,887,50.0,-0.898,-0.395,-0.171
40749,1755587052267,65.16,-111.11,-31.99,769,772,770,745,895,33.333333333333336,-0.9,-0.398,-0.168
40779,1755587052297,65.08,-111.17,-32.04,763,771,776,746,880,33.333333333333336,-0.905,-0.404,-0.166
40809,1755587052327,65.09,-111.15,-32.02,776,773,767,746,898,33.333333333333336,-0.912,-0.406,-0.161
40839,1755587052357,65.01,-111.14,-31.99,771,785,774,744,885,33.333333333333336,-0.916,-0.408,-0.156
40869,1755587052387,65.03,-111.13,-31.92,776,780,774,747,881,33.333333333333336,-0.912,-0.408,-0.152
40889,1755587052407,65.11,-111.08,-31.87,771,769,776,740,887,50.0,-0.908,-0.406,-0.149
40919,1755587052437,65.13,-110.97,-31.81,776,776,774,740,890,33.333333333333336,-0.904,-0.402,-0.147
40949,1755587052467,65.1,-110.89,-31.82,769,775,779,746,882,33.333333333333336,-0.899,-0.398,-0.149
40969,1755587052487,65.12,-110.84,-31.84,782,761,764,742,900,50.0,-0.895,-0.396,-0.153
40999,1755587052517,65.08,-110.82,-31.92,778,777,775,736,879,33.333333333333336,-0.896,-0.396,-0.158
41029,1755587052547,65.09,-110.8,-31.99,774,777,781,753,883,33.333333333333336,-0.898,-0.399,-0.162
41058,1755587052577,65.03,-110.8,-32.06,778,781,791,748,886,34.48275862068966,-0.899,-0.401,-0.165
41088,1755587052606,64.96,-110.92,-32.15,777,775,773,744,889,33.333333333333336,-0.902,-0.403,-0.167
41118,1755587052636,64.95,-111.01,-32.2,778,770,773,747,883,33.333333333333336,-0.903,-0.406,-0.165
41148,1755587052666,64.88,-110.99,-32.25,776,776,770,745,895,33.333333333333336,-0.9,-0.406,-0.162
41178,1755587052697,64.86,-111.0,-32.33,782,761,773,739,891,33.333333333333336,-0.894,-0.405,-0.163
41198,1755587052716,64.84,-111.05,-32.41,773,776,774,742,893,50.0,-0.892,-0.403,-0.166
41228,1755587052747,64.76,-111.2,-32.56,773,768,785,741,884,33.333333333333336,-0.891,-0.404,-0.167
41248,1755587052766,64.73,-111.32,-32.66,777,766,785,743,874,50.0,-0.891,-0.403,-0.169
41278,1755587052797,64.75,-111.45,-32.84,769,771,774,743,896,33.333333333333336,-0.886,-0.405,-0.168
41299,1755587052817,64.71,-111.58,-32.97,772,779,772,745,874,47.61904761904762,-0.889,-0.41,-0.168
41329,1755587052847,64.51,-111.62,-33.12,763,770,772,748,897,33.333333333333336,-0.9,-0.416,-0.159
41359,1755587052877,64.43,-111.56,-33.18,778,776,772,746,884,33.333333333333336,-0.908,-0.423,-0.155
41379,1755587052897,64.46,-111.47,-33.17,766,768,762,742,887,50.0,-0.91,-0.427,-0.156
41409,1755587052927,64.52,-111.49,-33.18,774,771,785,745,888,33.333333333333336,-0.904,-0.427,-0.162
41439,1755587052957,64.48,-111.59,-33.25,773,775,771,745,889,33.333333333333336,-0.895,-0.424,-0.163
41469,1755587052987,64.44,-111.55,-33.32,769,777,777,746,880,33.333333333333336,-0.887,-0.42,-0.159
41499,1755587053017,64.3,-111.48,-33.46,778,775,768,742,899,33.333333333333336,-0.887,-0.421,-0.157
41519,1755587053037,64.15,-111.45,-33.55,771,777,774,744,896,50.0,-0.897,-0.428,-0.158
41539,1755587053058,64.01,-111.47,-33.62,776,766,774,747,892,50.0,-0.907,-0.434,-0.156
41559,1755587053078,64.02,-111.5,-33.63,790,771,769,744,876,50.0,-0.916,-0.434,-0.149
41579,1755587053098,64.04,-111.49,-33.62,777,770,779,747,891,50.0,-0.919,-0.434,-0.141
41599,1755587053118,64.03,-111.42,-33.59,767,766,775,750,888,50.0,-0.915,-0.433,-0.135
41629,1755587053147,64.08,-111.21,-33.55,769,769,768,749,876,33.333333333333336,-0.907,-0.433,-0.136
41659,1755587053177,64.14,-110.97,-33.47,776,775,770,747,894,33.333333333333336,-0.9,-0.43,-0.142
41689,1755587053207,64.0,-110.94,-33.53,777,779,777,742,891,33.333333333333336,-0.893,-0.429,-0.151
41719,1755587053237,63.9,-110.97,-33.59,776,776,770,743,892,33.333333333333336,-0.897,-0.43,-0.159
41749,1755587053267,63.76,-110.97,-33.61,775,770,773,748,881,33.333333333333336,-0.901,-0.431,-0.161
41779,1755587053297,63.65,-110.99,-33.64,777,773,776,750,874,33.333333333333336,-0.898,-0.43,-0.157
41799,1755587053317,63.65,-111.01,-33.66,773,772,778,743,883,50.0,-0.898,-0.432,-0.151
41829,1755587053347,63.58,-111.01,-33.67,773,773,775,744,883,33.333333333333336,-0.897,-0.435,-0.146
41859,1755587053377,63.58,-110.96,-33.68,779,775,768,745,895,33.333333333333336,-0.894,-0.434,-0.143
41889,1755587053407,63.55,-110.86,-33.69,777,774,779,750,896,33.333333333333336,-0.893,-0.432,-0.142
41909,1755587053427,63.53,-110.78,-33.7,770,768,774,749,902,50.0,-0.893,-0.43,-0.144
41929,1755587053447,63.54,-110.77,-33.73,773,795,770,740,902,50.0,-0.892,-0.43,-0.148
41959,1755587053477,63.51,-110.74,-33.77,768,776,765,743,902,33.333333333333336,-0.893,-0.433,-0.149
41989,1755587053507,63.41,-110.66,-33.76,781,776,783,748,883,33.333333333333336,-0.893,-0.433,-0.148
42019,1755587053537,63.42,-110.6,-33.76,779,780,779,745,885,33.333333333333336,-0.894,-0.433,-0.148
42049,1755587053567,63.47,-110.55,-33.75,782,771,765,744,883,33.333333333333336,-0.895,-0.434,-0.145
42078,1755587053596,63.42,-110.48,-33.74,779,777,770,745,895,34.48275862068966,-0.894,-0.435,-0.144
42108,1755587053626,63.36,-110.38,-33.72,776,777,773,758,879,33.333333333333336,-0.894,-0.435,-0.144
42138,1755587053656,63.24,-110.29,-33.72,781,768,776,745,882,33.333333333333336,-0.891,-0.433,-0.142
42168,1755587053686,63.24,-110.17,-33.72,778,770,777,745,888,33.333333333333336,-0.892,-0.432,-0.142
42188,1755587053706,63.25,-110.1,-33.71,760,773,779,762,890,50.0,-0.896,-0.433,-0.143
42218,1755587053736,63.28,-110.09,-33.71,776,776,780,745,895,33.333333333333336,-0.898,-0.433,-0.145
42248,1755587053766,63.3,-110.03,-33.69,776,778,771,747,890,33.333333333333336,-0.898,-0.433,-0.145
42278,1755587053796,63.27,-110.03,-33.68,774,766,774,741,879,33.333333333333336,-0.896,-0.434,-0.147
42298,1755587053816,63.27,-110.05,-33.67,775,776,769,747,897,50.0,-0.894,-0.435,-0.148
42328,1755587053846,63.28,-110.1,-33.62,787,779,770,750,890,33.333333333333336,-0.894,-0.434,-0.147
42348,1755587053866,63.27,-110.06,-33.62,777,773,771,742,884,50.0,-0.894,-0.431,-0.145
42378,1755587053896,63.27,-110.04,-33.66,773,784,781,753,914,33.333333333333336,-0.893,-0.43,-0.142
42398,1755587053916,63.28,-109.99,-33.68,775,782,774,740,889,50.0,-0.895,-0.431,-0.141
42418,1755587053936,63.28,-109.95,-33.69,776,774,768,744,877,50.0,-0.896,-0.432,-0.142
42448,1755587053966,63.34,-109.92,-33.7,769,770,772,747,896,33.333333333333336,-0.897,-0.434,-0.142
42478,1755587053996,63.32,-109.84,-33.7,775,774,774,750,890,33.333333333333336,-0.895,-0.434,-0.142
42508,1755587054026,63.33,-109.85,-33.74,773,764,766,735,885,33.333333333333336,-0.894,-0.432,-0.141
42538,1755587054056,63.39,-109.77,-33.76,781,770,775,742,888,33.333333333333336,-0.894,-0.431,-0.139
42568,1755587054086,63.41,-109.73,-33.77,769,764,766,751,877,33.333333333333336,-0.897,-0.432,-0.145
42598,1755587054116,63.39,-109.72,-33.79,785,772,774,746,899,33.333333333333336,-0.895,-0.433,-0.148
42618,1755587054136,63.41,-109.72,-33.8,770,775,770,744,890,50.0,-0.892,-0.433,-0.148
42648,1755587054166,63.47,-109.67,-33.84,772,782,774,744,893,33.333333333333336,-0.89,-0.432,-0.145
42677,1755587054196,63.41,-109.62,-33.88,774,775,767,746,876,34.48275862068966,-0.891,-0.432,-0.145
42698,1755587054216,63.38,-109.59,-33.92,767,775,772,745,894,47.61904761904762,-0.889,-0.434,-0.146
42727,1755587054245,63.42,-109.56,-33.98,780,773,772,743,878,34.48275862068966,-0.889,-0.436,-0.148
42757,1755587054276,63.39,-109.58,-34.04,776,776,776,745,921,33.333333333333336,-0.889,-0.436,-0.146
42777,1755587054295,63.37,-109.59,-34.09,773,773,772,740,898,50.0,-0.888,-0.437,-0.145
42807,1755587054325,63.41,-109.51,-34.26,773,781,773,749,902,33.333333333333336,-0.89,-0.44,-0.144
42837,1755587054355,63.33,-109.44,-34.3,782,777,776,746,892,33.333333333333336,-0.887,-0.437,-0.144
42867,1755587054385,63.28,-109.48,-34.4,775,781,775,741,893,33.333333333333336,-0.887,-0.44,-0.146
42897,1755587054415,63.29,-109.45,-34.44,769,770,778,739,891,33.333333333333336,-0.892,-0.442,-0.146
42927,1755587054445,63.33,-109.33,-34.43,777,771,784,739,894,33.333333333333336,-0.893,-0.442,-0.144
42947,1755587054465,63.42,-109.31,-34.45,779,779,765,748,885,50.0,-0.889,-0.443,-0.147
42977,1755587054495,63.65,-109.34,-34.49,773,772,777,750,876,33.333333333333336,-0.888,-0.444,-0.148
43007,1755587054525,63.58,-109.2,-34.47,773,774,772,737,888,33.333333333333336,-0.888,-0.445,-0.148
43027,1755587054545,63.47,-109.11,-34.48,770,780,770,747,900,50.0,-0.882,-0.446,-0.152
43057,1755587054575,63.49,-109.1,-34.53,769,766,781,740,882,33.333333333333336,-0.881,-0.448,-0.157
43077,1755587054595,63.47,-109.11,-34.57,777,771,776,745,894,50.0,-0.885,-0.448,-0.156
43107,1755587054625,63.37,-109.1,-34.58,777,771,771,752,916,33.333333333333336,-0.884,-0.447,-0.153
43137,1755587054655,63.37,-109.1,-34.67,772,775,785,741,898,33.333333333333336,-0.884,-0.447,-0.153
43167,1755587054685,63.3,-109.1,-34.75,774,775,773,743,884,33.333333333333336,-0.881,-0.445,-0.151
43187,1755587054705,63.22,-109.1,-34.82,775,766,775,743,882,50.0,-0.877,-0.445,-0.152
43207,1755587054725,63.21,-109.06,-34.91,771,771,771,751,886,50.0,-0.878,-0.448,-0.156
43237,1755587054755,63.2,-109.06,-35.07,778,767,778,753,881,33.333333333333336,-0.881,-0.45,-0.155
43267,1755587054785,63.11,-109.07,-35.29,777,773,773,743,885,33.333333333333336,-0.879,-0.451,-0.151
43287,1755587054805,63.08,-109.09,-35.45,776,771,774,742,874,50.0,-0.877,-0.454,-0.152
43307,1755587054825,63.09,-109.04,-35.54,777,779,771,744,893,50.0,-0.877,-0.457,-0.148
43337,1755587054855,63.05,-108.89,-35.71,782,777,780,736,884,33.333333333333336,-0.873,-0.458,-0.144
43367,1755587054885,63.06,-108.81,-35.84,779,775,774,743,881,33.333333333333336,-0.876,-0.461,-0.146
43397,1755587054915,63.07,-108.79,-35.9,771,774,776,748,893,33.333333333333336,-0.882,-0.468,-0.148
43417,1755587054935,63.09,-108.74,-35.88,771,778,771,744,885,50.0,-0.884,-0.471,-0.15
43447,1755587054965,63.17,-108.63,-35.85,774,781,774,747,896,33.333333333333336,-0.881,-0.47,-0.149
43467,1755587054985,63.16,-108.57,-35.84,773,776,775,750,904,50.0,-0.877,-0.469,-0.149
43497,1755587055015,63.09,-108.51,-35.82,775,773,775,747,883,33.333333333333336,-0.877,-0.472,-0.151
43517,1755587055035,63.02,-108.48,-35.8,775,783,783,741,878,50.0,-0.875,-0.472,-0.153
43547,1755587055065,62.97,-108.44,-35.75,773,764,778,744,889,33.333333333333336,-0.876,-0.472,-0.151
43567,1755587055085,62.92,-108.4,-35.73,770,771,774,749,883,50.0,-0.874,-0.47,-0.149
43597,1755587055116,62.92,-108.35,-35.69,776,771,763,746,888,33.333333333333336,-0.875,-0.47,-0.149
43617,1755587055135,62.91,-108.27,-35.64,777,766,776,747,902,50.0,-0.876,-0.469,-0.15
43647,1755587055166,62.86,-108.14,-35.56,775,761,780,751,886,33.333333333333336,-0.876,-0.47,-0.152
43667,1755587055185,62.83,-108.03,-35.49,776,768,773,748,884,50.0,-0.876,-0.471,-0.154
43697,1755587055216,62.81,-107.79,-35.37,774,767,782,749,887,33.333333333333336,-0.875,-0.469,-0.15
43718,1755587055236,62.73,-107.72,-35.35,770,773,770,744,888,47.61904761904762,-0.871,-0.467,-0.149
43748,1755587055266,62.66,-107.67,-35.34,780,770,769,749,887,33.333333333333336,-0.871,-0.467,-0.149
43778,1755587055296,62.66,-107.62,-35.32,771,777,775,753,883,33.333333333333336,-0.873,-0.469,-0.147
43807,1755587055326,62.62,-107.53,-35.29,778,768,766,749,887,34.48275862068966,-0.876,-0.466,-0.144
43828,1755587055346,62.58,-107.5,-35.27,770,770,768,741,891,47.61904761904762,-0.876,-0.464,-0.144
43848,1755587055366,62.57,-107.48,-35.26,787,768,779,747,882,50.0,-0.876,-0.464,-0.144
43878,1755587055396,62.53,-107.49,-35.24,775,782,774,748,880,33.333333333333336,-0.874,-0.463,-0.147
43907,1755587055426,62.5,-107.47,-35.22,780,780,771,748,885,34.48275862068966,-0.875,-0.462,-0.147
43927,1755587055446,62.47,-107.46,-35.23,779,795,775,743,887,50.0,-0.875,-0.461,-0.144
43957,1755587055475,62.35,-107.39,-35.22,771,778,770,749,876,33.333333333333336,-0.878,-0.463,-0.142
43987,1755587055505,62.27,-107.33,-35.19,773,780,773,743,882,33.333333333333336,-0.879,-0.466,-0.142
44017,1755587055535,62.28,-107.28,-35.13,771,767,774,745,892,33.333333333333336,-0.879,-0.466,-0.141
44037,1755587055555,62.28,-107.21,-35.09,771,770,775,753,898,50.0,-0.879,-0.465,-0.14
44067,1755587055586,62.31,-107.13,-35.04,777,773,771,757,900,33.333333333333336,-0.878,-0.463,-0.141
44088,1755587055606,62.3,-107.09,-35.02,777,762,777,746,877,47.61904761904762,-0.878,-0.46,-0.142
44118,1755587055636,62.3,-106.99,-34.99,775,772,775,745,883,33.333333333333336,-0.877,-0.46,-0.144
44138,1755587055656,62.29,-106.98,-34.98,766,781,770,747,877,50.0,-0.876,-0.46,-0.145
44168,1755587055686,62.25,-107.02,-34.98,774,780,776,748,881,33.333333333333336,-0.876,-0.461,-0.143
44198,1755587055716,62.24,-107.01,-34.97,778,776,775,754,887,33.333333333333336,-0.878,-0.461,-0.14
44228,1755587055746,62.19,-106.99,-34.95,777,771,776,747,894,33.333333333333336,-0.88,-0.461,-0.138
44258,1755587055776,62.19,-106.96,-34.95,768,780,775,750,882,33.333333333333336,-0.88,-0.46,-0.137
44287,1755587055806,62.14,-106.97,-34.92,776,775,776,749,884,34.48275862068966,-0.879,-0.46,-0.139
44308,1755587055826,62.11,-107.01,-34.91,775,790,770,744,885,47.61904761904762,-0.879,-0.462,-0.142
44337,1755587055855,62.13,-107.03,-34.9,774,777,779,747,890,34.48275862068966,-0.879,-0.462,-0.142
44367,1755587055885,62.11,-106.99,-34.85,778,775,786,749,885,33.333333333333336,-0.88,-0.464,-0.141
44397,1755587055915,62.1,-106.9,-34.75,774,768,776,763,884,33.333333333333336,-0.881,-0.464,-0.139
44427,1755587055945,62.17,-106.88,-34.68,779,769,776,749,878,33.333333333333336,-0.881,-0.46,-0.135
44457,1755587055975,62.2,-106.88,-34.68,774,768,776,752,889,33.333333333333336,-0.878,-0.457,-0.137
44487,1755587056005,62.27,-106.95,-34.71,771,777,766,750,887,33.333333333333336,-0.875,-0.455,-0.141
44517,1755587056035,62.34,-106.9,-34.74,777,773,770,755,892,33.333333333333336,-0.876,-0.454,-0.139
44547,1755587056065,62.32,-106.98,-34.78,774,777,772,755,884,33.333333333333336,-0.879,-0.457,-0.142
44576,1755587056095,62.36,-107.05,-34.8,775,780,773,744,897,34.48275862068966,-0.884,-0.459,-0.141
44596,1755587056114,62.39,-107.13,-34.8,776,775,777,745,885,50.0,-0.885,-0.459,-0.142
44626,1755587056144,62.39,-107.14,-34.78,773,773,776,747,897,33.333333333333336,-0.883,-0.459,-0.141
44656,1755587056174,62.43,-107.12,-34.76,780,772,778,746,885,33.333333333333336,-0.883,-0.458,-0.141
44676,1755587056194,62.41,-107.07,-34.74,778,768,767,747,888,50.0,-0.881,-0.457,-0.141
44696,1755587056215,62.38,-106.99,-34.73,775,778,778,748,885,50.0,-0.88,-0.457,-0.143
44717,1755587056235,62.36,-106.92,-34.73,767,767,776,742,902,47.61904761904762,-0.88,-0.457,-0.147
44746,1755587056265,62.33,-106.93,-34.74,774,769,780,738,879,34.48275862068966,-0.879,-0.455,-0.148
44776,1755587056294,62.32,-106.9,-34.76,776,759,776,751,892,33.333333333333336,-0.88,-0.455,-0.146
44806,1755587056324,62.35,-106.88,-34.76,772,772,764,744,885,33.333333333333336,-0.881,-0.456,-0.145
44836,1755587056354,62.3,-106.81,-34.77,775,779,770,742,885,33.333333333333336,-0.879,-0.457,-0.145
44866,1755587056384,62.25,-106.73,-34.77,772,773,776,747,882,33.333333333333336,-0.877,-0.458,-0.146
44896,1755587056415,62.21,-106.72,-34.78,783,776,774,749,918,33.333333333333336,-0.878,-0.46,-0.147
44916,1755587056435,62.18,-106.72,-34.77,775,779,775,763,889,50.0,-0.88,-0.46,-0.147
44936,1755587056455,62.18,-106.75,-34.77,767,768,765,750,896,50.0,-0.88,-0.458,-0.146
44966,1755587056484,62.15,-106.74,-34.77,773,774,778,748,897,33.333333333333336,-0.881,-0.457,-0.144
44996,1755587056515,62.14,-106.63,-34.75,770,774,773,747,892,33.333333333333336,-0.883,-0.459,-0.14
45017,1755587056535,62.12,-106.55,-34.71,770,775,770,749,892,47.61904761904762,-0.882,-0.459,-0.139
45046,1755587056565,62.13,-106.56,-34.7,776,770,768,749,889,34.48275862068966,-0.88,-0.46,-0.142
45067,1755587056585,62.13,-106.61,-34.71,775,773,775,749,880,47.61904761904762,-0.88,-0.459,-0.143
45096,1755587056615,62.08,-106.58,-34.72,775,776,779,749,885,34.48275862068966,-0.879,-0.457,-0.142
45117,1755587056635,62.06,-106.58,-34.73,769,771,781,746,893,47.61904761904762,-0.878,-0.456,-0.142
45146,1755587056665,62.03,-106.6,-34.76,772,771,774,747,883,34.48275862068966,-0.88,-0.455,-0.14
45166,1755587056685,61.99,-106.6,-34.78,776,783,776,746,880,50.0,-0.88,-0.455,-0.139
45196,1755587056715,61.99,-106.57,-34.81,771,776,770,745,880,33.333333333333336,-0.882,-0.456,-0.14
45226,1755587056744,61.93,-106.57,-34.83,780,770,774,743,879,33.333333333333336,-0.882,-0.459,-0.14
45256,1755587056774,61.89,-106.59,-34.86,772,774,776,739,883,33.333333333333336,-0.88,-0.46,-0.137
45286,1755587056804,61.92,-106.55,-34.88,776,775,761,743,888,33.333333333333336,-0.881,-0.46,-0.133
45316,1755587056834,61.86,-106.49,-34.89,773,774,774,749,906,33.333333333333336,-0.881,-0.46,-0.136
45346,1755587056864,61.81,-106.44,-34.88,773,766,770,747,887,33.333333333333336,-0.88,-0.461,-0.141
45376,1755587056894,61.82,-106.42,-34.87,773,781,781,750,897,33.333333333333336,-0.881,-0.463,-0.14
45405,1755587056924,61.72,-106.31,-34.84,772,773,774,745,893,34.48275862068966,-0.88,-0.463,-0.138
45435,1755587056953,61.74,-106.34,-34.81,774,780,781,751,891,33.333333333333336,-0.883,-0.464,-0.139
45465,1755587056983,61.71,-106.4,-34.78,774,783,780,748,891,33.333333333333336,-0.882,-0.463,-0.137
45495,1755587057013,61.61,-106.39,-34.73,774,765,771,749,886,33.333333333333336,-0.882,-0.462,-0.136
45525,1755587057043,61.43,-106.56,-34.8,767,772,774,744,902,33.333333333333336,-0.874,-0.457,-0.139
45555,1755587057073,61.32,-106.66,-34.91,766,774,778,745,889,33.333333333333336,-0.87,-0.455,-0.139
45585,1755587057103,61.38,-106.74,-34.99,778,770,769,748,904,33.333333333333336,-0.872,-0.456,-0.141
45605,1755587057123,61.38,-106.8,-35.04,779,769,773,745,893,50.0,-0.878,-0.46,-0.14
45635,1755587057153,61.38,-107.01,-35.1,778,775,776,746,885,33.333333333333336,-0.884,-0.467,-0.139
45655,1755587057173,61.44,-107.05,-35.07,772,786,768,747,888,50.0,-0.887,-0.468,-0.134
45685,1755587057203,61.51,-107.1,-35.05,775,772,780,746,889,33.333333333333336,-0.882,-0.465,-0.129
45705,1755587057223,61.57,-107.15,-35.07,766,774,775,741,891,50.0,-0.876,-0.462,-0.13
45735,1755587057253,61.78,-107.16,-35.12,773,769,774,749,890,33.333333333333336,-0.876,-0.46,-0.134
45765,1755587057283,61.8,-107.17,-35.14,769,773,774,750,886,33.333333333333336,-0.878,-0.46,-0.138
45785,1755587057303,61.7,-107.24,-35.16,774,775,768,739,887,50.0,-0.877,-0.458,-0.143
45805,1755587057323,61.65,-107.4,-35.21,766,782,793,739,892,50.0,-0.872,-0.461,-0.149
45835,1755587057353,61.75,-107.42,-35.24,773,768,771,743,895,33.333333333333336,-0.876,-0.462,-0.147
45865,1755587057383,61.77,-107.27,-35.26,768,771,769,748,894,33.333333333333336,-0.877,-0.462,-0.142
45885,1755587057403,61.74,-107.21,-35.29,773,775,771,753,871,50.0,-0.878,-0.464,-0.145
45915,1755587057433,61.69,-107.19,-35.28,778,772,781,750,893,33.333333333333336,-0.878,-0.468,-0.149
45945,1755587057463,61.7,-107.12,-35.24,776,774,774,742,886,33.333333333333336,-0.876,-0.467,-0.149
45965,1755587057484,61.69,-107.1,-35.24,775,779,767,749,891,50.0,-0.876,-0.467,-0.147
45985,1755587057503,61.66,-107.06,-35.23,778,774,770,747,886,50.0,-0.877,-0.468,-0.146
46015,1755587057533,61.6,-107.05,-35.22,770,768,772,744,892,33.333333333333336,-0.876,-0.467,-0.149
46045,1755587057563,61.6,-107.07,-35.22,770,779,776,749,885,33.333333333333336,-0.876,-0.467,-0.147
46075,1755587057594,61.57,-106.96,-35.19,774,771,774,744,884,33.333333333333336,-0.875,-0.466,-0.144
46095,1755587057614,61.52,-106.9,-35.19,770,769,771,740,876,50.0,-0.875,-0.465,-0.143
46125,1755587057644,61.54,-106.92,-35.22,772,773,770,740,882,33.333333333333336,-0.874,-0.464,-0.141
46155,1755587057674,61.54,-106.9,-35.23,777,778,769,746,889,33.333333333333336,-0.875,-0.467,-0.143
46176,1755587057694,61.5,-106.83,-35.2,775,765,774,754,894,47.61904761904762,-0.878,-0.469,-0.144
46206,1755587057724,61.46,-106.77,-35.18,783,776,775,742,888,33.333333333333336,-0.875,-0.468,-0.146
46236,1755587057754,61.48,-106.79,-35.17,774,772,773,743,893,33.333333333333336,-0.875,-0.466,-0.148
46265,1755587057784,61.42,-106.82,-35.14,770,768,770,747,891,34.48275862068966,-0.876,-0.465,-0.148
46295,1755587057814,61.26,-106.83,-35.13,780,773,777,749,882,33.333333333333336,-0.875,-0.464,-0.147
46325,1755587057843,61.24,-106.89,-35.16,778,776,777,747,894,33.333333333333336,-0.874,-0.464,-0.144
46355,1755587057873,61.29,-106.86,-35.17,773,765,773,752,889,33.333333333333336,-0.877,-0.463,-0.139
46385,1755587057904,61.27,-106.86,-35.21,773,773,785,749,882,33.333333333333336,-0.878,-0.462,-0.138
46405,1755587057923,61.24,-106.86,-35.23,777,774,772,748,889,50.0,-0.878,-0.465,-0.142
46435,1755587057953,61.19,-106.85,-35.24,767,775,769,750,886,33.333333333333336,-0.876,-0.468,-0.146
46465,1755587057983,61.18,-106.89,-35.25,776,776,773,744,882,33.333333333333336,-0.874,-0.47,-0.143
46495,1755587058013,61.18,-106.93,-35.29,771,762,780,741,879,33.333333333333336,-0.874,-0.47,-0.137
46515,1755587058034,61.16,-106.92,-35.31,782,774,774,745,897,50.0,-0.875,-0.47,-0.133
46545,1755587058064,61.14,-106.79,-35.26,775,762,771,749,900,33.333333333333336,-0.878,-0.47,-0.136
46565,1755587058084,61.14,-106.77,-35.25,773,772,779,764,885,50.0,-0.878,-0.467,-0.14
46585,1755587058104,61.17,-106.79,-35.25,768,769,797,746,889,50.0,-0.876,-0.466,-0.141
46615,1755587058133,61.18,-106.78,-35.25,775,767,776,748,887,33.333333333333336,-0.875,-0.465,-0.139
46645,1755587058164,61.12,-106.76,-35.26,775,762,770,742,879,33.333333333333336,-0.876,-0.466,-0.139
46665,1755587058184,61.11,-106.77,-35.28,771,775,771,747,885,50.0,-0.882,-0.468,-0.137
46695,1755587058214,61.11,-106.74,-34.82,774,770,776,747,887,33.333333333333336,-0.881,-0.467,-0.134
46715,1755587058234,61.13,-106.68,-34.8,778,777,780,749,892,50.0,-0.882,-0.465,-0.131
46745,1755587058264,61.19,-106.64,-34.81,787,771,772,746,878,33.333333333333336,-0.881,-0.465,-0.13
46775,1755587058293,61.17,-106.59,-34.8,774,771,778,746,902,33.333333333333336,-0.88,-0.466,-0.134
46805,1755587058324,61.14,-106.56,-34.79,771,763,770,755,910,33.333333333333336,-0.88,-0.467,-0.138
46825,1755587058343,61.13,-106.56,-34.8,773,773,774,742,888,50.0,-0.879,-0.468,-0.14
46855,1755587058374,61.11,-106.53,-34.79,768,768,775,744,890,33.333333333333336,-0.878,-0.469,-0.138
46875,1755587058394,61.08,-106.49,-34.77,765,776,771,740,878,50.0,-0.879,-0.471,-0.138
46905,1755587058424,61.05,-106.49,-34.75,765,775,767,749,879,33.333333333333336,-0.879,-0.47,-0.137
46925,1755587058444,61.04,-106.49,-34.76,774,772,778,749,884,50.0,-0.878,-0.468,-0.134
46955,1755587058474,60.98,-106.46,-34.76,770,775,790,747,894,33.333333333333336,-0.879,-0.465,-0.133
46985,1755587058504,61.04,-106.39,-34.75,776,774,771,749,892,33.333333333333336,-0.883,-0.467,-0.129
47005,1755587058524,61.07,-106.36,-34.74,781,770,770,742,885,50.0,-0.88,-0.468,-0.128
47025,1755587058543,61.05,-106.32,-34.72,775,772,772,742,886,50.0,-0.879,-0.47,-0.127
47055,1755587058574,61.09,-106.24,-34.7,777,770,776,745,885,33.333333333333336,-0.875,-0.469,-0.125
47075,1755587058593,61.14,-106.16,-34.68,775,775,772,747,882,50.0,-0.875,-0.467,-0.126
47105,1755587058623,61.19,-106.02,-34.69,773,778,778,746,877,33.333333333333336,-0.875,-0.469,-0.128
47135,1755587058653,61.19,-106.0,-34.66,774,774,772,750,881,33.333333333333336,-0.877,-0.47,-0.134
47165,1755587058683,61.19,-106.05,-34.64,775,772,773,740,886,33.333333333333336,-0.877,-0.469,-0.133
47195,1755587058713,61.24,-105.97,-34.61,770,772,772,749,894,33.333333333333336,-0.876,-0.467,-0.129
47225,1755587058743,61.25,-105.87,-34.59,772,778,776,749,884,33.333333333333336,-0.875,-0.466,-0.132
47255,1755587058773,61.26,-105.83,-34.6,778,773,767,744,894,33.333333333333336,-0.875,-0.465,-0.134
47285,1755587058803,61.23,-105.85,-34.63,771,770,767,753,891,33.333333333333336,-0.874,-0.465,-0.135
47315,1755587058833,61.21,-105.77,-34.63,778,765,771,750,889,33.333333333333336,-0.877,-0.467,-0.136
47344,1755587058863,61.23,-105.69,-34.61,772,773,786,750,889,34.48275862068966,-0.877,-0.468,-0.137
47365,1755587058883,61.24,-105.69,-34.6,771,774,769,746,913,47.61904761904762,-0.876,-0.468,-0.134
47394,1755587058913,61.26,-105.62,-34.58,780,772,768,748,885,34.48275862068966,-0.876,-0.467,-0.131
47424,1755587058943,61.28,-105.54,-34.59,774,770,771,743,883,33.333333333333336,-0.876,-0.466,-0.128
47454,1755587058972,61.27,-105.44,-34.58,771,772,774,764,891,33.333333333333336,-0.878,-0.466,-0.127
47484,1755587059002,61.27,-105.33,-34.53,777,771,766,746,895,33.333333333333336,-0.88,-0.469,-0.133
47514,1755587059032,61.22,-105.4,-34.52,768,776,777,748,887,33.333333333333336,-0.878,-0.467,-0.136
47544,1755587059063,61.19,-105.44,-34.53,780,779,774,749,886,33.333333333333336,-0.874,-0.466,-0.133
47564,1755587059082,61.18,-105.42,-34.53,776,770,777,745,878,50.0,-0.877,-0.467,-0.128
47594,1755587059112,61.13,-105.36,-34.51,770,786,775,749,889,33.333333333333336,-0.878,-0.468,-0.125
47624,1755587059142,61.14,-105.34,-34.5,763,779,768,744,880,33.333333333333336,-0.878,-0.468,-0.124
47654,1755587059173,61.14,-105.27,-34.47,768,774,774,753,885,33.333333333333336,-0.88,-0.467,-0.125
47674,1755587059192,61.15,-105.24,-34.44,771,769,773,749,892,50.0,-0.879,-0.465,-0.126
47704,1755587059223,61.18,-105.18,-34.43,774,765,768,752,883,33.333333333333336,-0.877,-0.464,-0.127
47734,1755587059252,61.16,-105.18,-34.43,776,773,771,752,879,33.333333333333336,-0.876,-0.464,-0.128
47764,1755587059282,61.15,-105.18,-34.45,769,782,776,746,885,33.333333333333336,-0.878,-0.464,-0.125
47794,1755587059312,61.15,-105.12,-34.44,773,767,774,750,897,33.333333333333336,-0.879,-0.465,-0.123
47814,1755587059332,61.13,-105.06,-34.43,771,768,773,736,887,50.0,-0.881,-0.468,-0.123
47844,1755587059362,61.1,-105.06,-34.41,772,775,777,752,881,33.333333333333336,-0.879,-0.468,-0.124
47874,1755587059392,61.12,-105.11,-34.39,775,775,776,746,885,33.333333333333336,-0.879,-0.469,-0.124
47894,1755587059412,61.12,-105.13,-34.38,776,773,766,747,889,50.0,-0.878,-0.466,-0.123
47924,1755587059442,61.14,-105.11,-34.38,774,776,773,750,883,33.333333333333336,-0.878,-0.464,-0.123
47954,1755587059472,61.18,-105.04,-34.38,768,772,771,765,887,33.333333333333336,-0.878,-0.464,-0.125
47984,1755587059502,61.18,-105.09,-34.4,772,776,765,748,894,33.333333333333336,-0.876,-0.464,-0.128
48014,1755587059532,61.21,-105.14,-34.45,780,774,778,748,886,33.333333333333336,-0.877,-0.464,-0.126
48044,1755587059562,61.19,-105.13,-34.47,772,757,768,743,889,33.333333333333336,-0.877,-0.464,-0.125
48064,1755587059582,61.16,-105.15,-34.5,770,775,785,749,897,50.0,-0.876,-0.466,-0.124
48084,1755587059602,61.17,-105.15,-34.51,772,767,773,743,881,50.0,-0.878,-0.468,-0.123
48104,1755587059622,61.18,-105.1,-34.51,776,763,779,741,886,50.0,-0.88,-0.468,-0.12
48134,1755587059652,61.17,-104.96,-34.47,766,766,777,746,887,33.333333333333336,-0.883,-0.47,-0.121
48164,1755587059682,61.2,-104.93,-34.43,776,774,777,746,886,33.333333333333336,-0.883,-0.47,-0.122
48184,1755587059702,61.21,-104.91,-34.41,770,778,775,751,890,50.0,-0.882,-0.47,-0.12
48214,1755587059732,61.25,-104.85,-34.38,775,772,767,748,876,33.333333333333336,-0.881,-0.468,-0.121
48244,1755587059762,61.29,-104.85,-34.37,776,772,772,738,887,33.333333333333336,-0.88,-0.467,-0.125
48264,1755587059782,61.29,-104.87,-34.37,763,772,772,743,883,50.0,-0.879,-0.465,-0.127
48294,1755587059812,61.26,-104.88,-34.37,775,768,770,748,874,33.333333333333336,-0.878,-0.464,-0.125
48324,1755587059842,61.26,-104.9,-34.4,764,767,769,744,900,33.333333333333336,-0.88,-0.462,-0.123
48344,1755587059862,61.26,-104.88,-34.42,770,770,768,749,877,50.0,-0.881,-0.462,-0.122
48374,1755587059893,61.26,-104.86,-34.42,771,775,778,748,880,33.333333333333336,-0.882,-0.465,-0.123
48394,1755587059913,61.28,-104.85,-34.42,769,771,773,753,875,50.0,-0.883,-0.468,-0.124
48414,1755587059933,61.3,-104.87,-34.41,779,775,769,750,877,50.0,-0.881,-0.47,-0.126
48434,1755587059953,61.3,-104.9,-34.41,767,773,774,751,880,50.0,-0.877,-0.471,-0.125
48464,1755587059983,61.29,-104.89,-34.41,776,771,768,748,875,33.333333333333336,-0.875,-0.469,-0.122
