timestamp_ms,recv_timestamp_ms,pitch,roll,yaw,flex1,flex2,flex3,flex4,flex5,sampling_hz,accel_x,accel_y,accel_z
65114,1755586570014,34.07,176.13,-35.92,810,768,820,863,871,34.48275862068966,-0.573,0.058,-0.825
65144,1755586570043,34.1,176.17,-35.95,809,766,822,875,885,33.333333333333336,-0.572,0.056,-0.831
65174,1755586570073,33.99,176.14,-35.99,813,766,820,867,878,33.333333333333336,-0.578,0.054,-0.826
65203,1755586570103,33.97,176.23,-35.95,817,773,818,855,872,34.48275862068966,-0.579,0.055,-0.821
65233,1755586570132,34.02,176.32,-35.92,811,774,817,859,872,33.333333333333336,-0.574,0.059,-0.823
65263,1755586570162,33.96,176.34,-35.98,813,768,819,863,882,33.333333333333336,-0.576,0.06,-0.824
65292,1755586570192,33.89,176.4,-36.0,809,764,831,862,885,34.48275862068966,-0.578,0.055,-0.821
65322,1755586570221,33.91,176.42,-35.98,806,766,817,867,876,33.333333333333336,-0.578,0.051,-0.825
65352,1755586570251,33.95,176.4,-35.95,811,778,800,867,880,33.333333333333336,-0.581,0.05,-0.822
65381,1755586570280,34.0,176.44,-35.89,814,772,815,862,862,34.48275862068966,-0.584,0.051,-0.816
65411,1755586570310,34.03,176.57,-35.79,809,772,830,868,890,33.333333333333336,-0.581,0.051,-0.82
65440,1755586570339,34.1,176.6,-35.72,814,774,818,868,875,34.48275862068966,-0.579,0.05,-0.822
65470,1755586570369,34.13,176.62,-35.65,813,762,820,870,874,33.333333333333336,-0.58,0.049,-0.823
65500,1755586570399,34.15,176.66,-35.6,813,770,824,854,872,33.333333333333336,-0.576,0.051,-0.823
65529,1755586570428,34.13,176.68,-35.64,813,775,809,862,885,34.48275862068966,-0.575,0.052,-0.826
65559,1755586570458,34.05,176.62,-35.7,809,769,822,853,885,33.333333333333336,-0.577,0.051,-0.823
65588,1755586570487,34.12,176.64,-35.68,812,763,815,863,874,34.48275862068966,-0.581,0.052,-0.82
65618,1755586570517,34.16,176.63,-35.67,810,766,820,851,876,33.333333333333336,-0.581,0.052,-0.822
65647,1755586570547,34.17,176.64,-35.65,812,766,819,858,898,34.48275862068966,-0.579,0.051,-0.821
65677,1755586570576,34.16,176.68,-35.63,808,765,826,859,869,33.333333333333336,-0.581,0.051,-0.822
65707,1755586570606,34.19,176.68,-35.6,809,775,815,870,873,33.333333333333336,-0.58,0.051,-0.822
65736,1755586570635,34.21,176.7,-35.62,811,765,811,863,873,34.48275862068966,-0.577,0.053,-0.819
65766,1755586570665,34.18,176.71,-35.71,810,768,818,864,870,33.333333333333336,-0.581,0.054,-0.821
65795,1755586570694,34.2,176.71,-35.73,809,771,822,858,876,34.48275862068966,-0.583,0.05,-0.822
65825,1755586570724,34.29,176.72,-35.67,807,773,827,867,873,33.333333333333336,-0.581,0.047,-0.82
65854,1755586570753,34.33,176.69,-35.64,798,763,814,860,876,34.48275862068966,-0.579,0.049,-0.825
65883,1755586570783,34.34,176.64,-35.66,814,770,822,865,876,34.48275862068966,-0.581,0.048,-0.817
65913,1755586570812,34.45,176.69,-35.6,806,773,814,853,884,33.333333333333336,-0.584,0.048,-0.817
65942,1755586570841,34.52,176.74,-35.53,813,773,831,866,885,34.48275862068966,-0.58,0.047,-0.823
65972,1755586570871,34.53,176.77,-35.48,814,761,825,864,875,33.333333333333336,-0.577,0.047,-0.824
66001,1755586570901,34.54,176.84,-35.46,809,768,815,870,881,34.48275862068966,-0.576,0.049,-0.824
66031,1755586570930,34.5,176.82,-35.46,808,773,816,865,883,33.333333333333336,-0.578,0.048,-0.83
66060,1755586570959,34.44,176.71,-35.46,813,768,820,870,909,34.48275862068966,-0.576,0.044,-0.826
66090,1755586570989,34.49,176.68,-35.4,809,763,818,862,868,33.333333333333336,-0.578,0.046,-0.822
66119,1755586571018,34.58,176.65,-35.31,813,770,824,861,883,34.48275862068966,-0.579,0.051,-0.823
66149,1755586571048,34.65,176.64,-35.2,809,766,836,858,860,33.333333333333336,-0.575,0.054,-0.823
66179,1755586571078,34.71,176.55,-35.11,816,768,823,865,874,33.333333333333336,-0.573,0.058,-0.829
66208,1755586571107,34.79,176.44,-35.09,810,768,820,868,881,34.48275862068966,-0.574,0.058,-0.822
66237,1755586571137,34.81,176.53,-34.96,807,765,825,857,877,34.48275862068966,-0.585,0.054,-0.818
66267,1755586571166,35.01,176.58,-34.72,812,774,805,858,877,33.333333333333336,-0.58,0.058,-0.823
66296,1755586571196,35.2,176.57,-34.65,809,768,808,861,873,34.48275862068966,-0.563,0.062,-0.824
66326,1755586571225,34.99,176.67,-34.74,812,767,812,867,875,33.333333333333336,-0.559,0.06,-0.833
66355,1755586571254,34.73,176.72,-34.79,805,774,819,860,877,34.48275862068966,-0.568,0.05,-0.825
66385,1755586571284,34.85,176.8,-34.65,813,777,816,862,873,33.333333333333336,-0.58,0.048,-0.825
66414,1755586571313,35.03,176.73,-34.44,805,768,824,869,873,34.48275862068966,-0.582,0.05,-0.819
66444,1755586571342,35.15,176.86,-34.21,808,772,828,856,885,33.333333333333336,-0.575,0.06,-0.817
66473,1755586571372,35.32,176.77,-34.16,811,768,821,866,883,34.48275862068966,-0.564,0.067,-0.834
66503,1755586571402,35.32,176.67,-34.25,811,765,805,865,870,33.333333333333336,-0.554,0.069,-0.835
66532,1755586571431,35.19,176.63,-34.38,809,764,823,863,871,34.48275862068966,-0.561,0.062,-0.833
66562,1755586571461,35.16,176.64,-34.4,808,771,824,860,884,33.333333333333336,-0.562,0.059,-0.832
66591,1755586571490,35.22,176.61,-34.34,813,770,823,866,875,34.48275862068966,-0.564,0.056,-0.832
66621,1755586571520,35.19,176.63,-34.29,813,761,817,863,880,33.333333333333336,-0.562,0.061,-0.832
66650,1755586571549,35.04,176.64,-34.36,805,764,822,855,869,34.48275862068966,-0.558,0.067,-0.833
66680,1755586571579,34.85,176.65,-34.44,814,769,819,862,872,33.333333333333336,-0.563,0.063,-0.831
66709,1755586571608,34.75,176.68,-34.47,813,773,813,865,880,34.48275862068966,-0.564,0.06,-0.829
66738,1755586571638,34.76,176.67,-34.48,806,768,817,866,876,34.48275862068966,-0.565,0.059,-0.832
66768,1755586571667,34.73,176.7,-34.47,809,769,814,857,878,33.333333333333336,-0.567,0.059,-0.828
66798,1755586571697,34.7,176.81,-34.38,812,769,809,862,872,33.333333333333336,-0.565,0.061,-0.829
66827,1755586571726,34.7,176.84,-34.36,816,772,815,864,873,34.48275862068966,-0.556,0.062,-0.836
66857,1755586571756,34.59,176.78,-34.49,807,774,819,856,882,33.333333333333336,-0.556,0.062,-0.84
66886,1755586571785,34.31,176.74,-34.67,813,764,812,864,870,34.48275862068966,-0.565,0.06,-0.829
66916,1755586571815,34.24,176.85,-34.77,810,770,818,866,874,33.333333333333336,-0.572,0.058,-0.823
66945,1755586571844,34.27,176.87,-34.8,813,768,827,860,879,34.48275862068966,-0.572,0.057,-0.828
66975,1755586571874,34.25,176.86,-34.85,804,771,819,857,864,33.333333333333336,-0.568,0.054,-0.829
67004,1755586571903,34.11,176.85,-34.97,814,772,816,868,875,34.48275862068966,-0.57,0.051,-0.827
67034,1755586571933,33.99,176.91,-35.01,812,777,818,867,877,33.333333333333336,-0.574,0.051,-0.825
67063,1755586571962,34.03,176.9,-35.02,813,770,815,863,872,34.48275862068966,-0.578,0.05,-0.823
67093,1755586571992,34.02,176.86,-35.1,805,773,816,861,881,33.333333333333336,-0.578,0.05,-0.821
67122,1755586572021,33.96,176.89,-35.16,809,770,813,860,875,34.48275862068966,-0.58,0.048,-0.822
67151,1755586572050,33.96,176.89,-35.18,812,764,814,854,876,34.48275862068966,-0.583,0.042,-0.82
67181,1755586572080,33.97,176.94,-35.13,806,769,820,864,875,33.333333333333336,-0.587,0.044,-0.822
67211,1755586572110,33.92,176.97,-35.14,814,779,827,864,876,33.333333333333336,-0.583,0.047,-0.815
67240,1755586572139,33.94,177.11,-35.16,807,771,816,862,875,34.48275862068966,-0.583,0.045,-0.815
67270,1755586572169,33.89,177.19,-35.14,811,767,810,871,884,33.333333333333336,-0.583,0.042,-0.823
67299,1755586572198,33.85,177.23,-35.12,809,761,817,866,878,34.48275862068966,-0.582,0.039,-0.815
67329,1755586572228,33.86,177.25,-35.11,804,772,829,859,878,33.333333333333336,-0.581,0.044,-0.818
67358,1755586572257,33.86,177.22,-35.13,810,765,828,866,877,34.48275862068966,-0.579,0.047,-0.815
67387,1755586572287,33.89,177.23,-35.2,811,771,807,858,882,34.48275862068966,-0.579,0.048,-0.817
67417,1755586572316,33.89,177.2,-35.28,813,771,823,885,871,33.333333333333336,-0.584,0.044,-0.818
67446,1755586572345,33.92,177.23,-35.29,803,771,821,861,881,34.48275862068966,-0.585,0.038,-0.815
67476,1755586572375,33.91,177.25,-35.29,814,778,818,860,888,33.333333333333336,-0.588,0.037,-0.817
67505,1755586572404,33.88,177.21,-35.29,809,763,820,868,877,34.48275862068966,-0.59,0.035,-0.816
67535,1755586572434,33.91,177.25,-35.23,803,765,828,864,879,33.333333333333336,-0.59,0.037,-0.81
67564,1755586572464,33.96,177.32,-35.21,811,759,818,868,865,34.48275862068966,-0.585,0.042,-0.815
67594,1755586572493,33.89,177.27,-35.34,803,784,818,855,884,33.333333333333336,-0.583,0.043,-0.821
67624,1755586572523,33.84,177.25,-35.44,811,768,819,870,880,33.333333333333336,-0.587,0.039,-0.813
67653,1755586572552,33.83,177.31,-35.5,811,775,826,861,872,34.48275862068966,-0.59,0.04,-0.811
67683,1755586572582,33.85,177.31,-35.53,812,771,814,868,868,33.333333333333336,-0.596,0.034,-0.811
67712,1755586572612,33.97,177.32,-35.45,813,769,812,865,881,34.48275862068966,-0.597,0.031,-0.811
67742,1755586572641,34.04,177.37,-35.39,812,770,820,873,875,33.333333333333336,-0.595,0.034,-0.809
67771,1755586572670,34.08,177.44,-35.37,809,773,824,859,870,34.48275862068966,-0.592,0.036,-0.815
67801,1755586572700,34.08,177.42,-35.38,809,769,820,866,870,33.333333333333336,-0.589,0.034,-0.817
67830,1755586572729,34.09,177.39,-35.39,815,772,815,863,870,34.48275862068966,-0.593,0.035,-0.813
67860,1755586572759,34.17,177.4,-35.34,814,787,823,858,879,33.333333333333336,-0.597,0.032,-0.809
67889,1755586572788,34.25,177.45,-35.27,809,768,822,864,878,34.48275862068966,-0.594,0.034,-0.809
67919,1755586572818,34.28,177.46,-35.29,810,769,810,865,868,33.333333333333336,-0.594,0.039,-0.81
67949,1755586572848,34.25,177.48,-35.38,808,763,830,862,889,33.333333333333336,-0.592,0.04,-0.812
67978,1755586572878,34.24,177.47,-35.47,814,769,826,870,877,34.48275862068966,-0.592,0.036,-0.813
68008,1755586572907,34.24,177.5,-35.49,805,764,821,862,881,33.333333333333336,-0.598,0.032,-0.809
68037,1755586572936,34.27,177.56,-35.44,806,769,814,863,875,34.48275862068966,-0.597,0.03,-0.811
68067,1755586572966,34.33,177.57,-35.41,806,761,814,867,892,33.333333333333336,-0.596,0.032,-0.812
68096,1755586572995,34.37,177.58,-35.42,814,770,818,868,875,34.48275862068966,-0.593,0.034,-0.811
68126,1755586573025,34.35,177.62,-35.44,810,773,812,863,874,33.333333333333336,-0.592,0.033,-0.814
68155,1755586573055,34.41,177.61,-35.44,813,773,825,858,878,34.48275862068966,-0.596,0.031,-0.812
68185,1755586573084,34.48,177.63,-35.41,809,770,822,850,886,33.333333333333336,-0.598,0.03,-0.811
68215,1755586573114,34.49,177.67,-35.35,809,770,812,864,880,33.333333333333336,-0.596,0.029,-0.812
68244,1755586573143,34.6,177.65,-35.28,814,771,820,866,883,34.48275862068966,-0.593,0.032,-0.815
68273,1755586573172,34.63,177.62,-35.31,805,772,817,867,870,34.48275862068966,-0.593,0.034,-0.812
68303,1755586573202,34.62,177.63,-35.34,811,766,825,868,880,33.333333333333336,-0.593,0.036,-0.815
68332,1755586573231,34.67,177.55,-35.35,812,770,820,866,882,34.48275862068966,-0.59,0.033,-0.815
68362,1755586573261,34.72,177.51,-35.35,811,771,830,854,873,33.333333333333336,-0.596,0.033,-0.811
68382,1755586573281,34.76,177.54,-35.33,810,772,821,862,880,50.0,-0.598,0.034,-0.81
68412,1755586573311,34.84,177.51,-35.27,805,763,816,865,877,33.333333333333336,-0.596,0.032,-0.813
68441,1755586573340,34.9,177.52,-35.21,808,770,828,861,871,34.48275862068966,-0.592,0.032,-0.81
68471,1755586573370,34.87,177.54,-35.22,810,769,818,865,874,33.333333333333336,-0.594,0.036,-0.814
68500,1755586573399,34.84,177.56,-35.25,811,773,820,862,878,34.48275862068966,-0.595,0.037,-0.809
68530,1755586573429,34.9,177.6,-35.27,809,763,810,862,877,33.333333333333336,-0.594,0.036,-0.81
68559,1755586573458,34.86,177.61,-35.27,811,765,824,859,883,34.48275862068966,-0.591,0.034,-0.816
68589,1755586573488,34.83,177.61,-35.28,812,767,817,864,878,33.333333333333336,-0.594,0.034,-0.813
68618,1755586573517,34.84,177.64,-35.29,814,760,820,863,870,34.48275862068966,-0.595,0.035,-0.81
68647,1755586573546,34.89,177.68,-35.24,813,765,820,873,874,34.48275862068966,-0.591,0.035,-0.813
68677,1755586573576,34.88,177.67,-35.24,809,772,822,866,865,33.333333333333336,-0.592,0.034,-0.818
68706,1755586573605,34.87,177.63,-35.25,806,768,813,864,881,34.48275862068966,-0.598,0.033,-0.805
68736,1755586573635,34.98,177.67,-35.14,812,779,824,857,884,33.333333333333336,-0.597,0.033,-0.806
68765,1755586573664,35.11,177.68,-35.06,810,778,809,859,879,34.48275862068966,-0.594,0.034,-0.813
68794,1755586573694,35.14,177.63,-35.03,807,772,813,857,871,34.48275862068966,-0.591,0.036,-0.812
68824,1755586573723,35.19,177.6,-35.01,812,771,823,864,878,33.333333333333336,-0.592,0.039,-0.816
68853,1755586573752,35.27,177.53,-34.97,805,768,816,866,870,34.48275862068966,-0.592,0.037,-0.813
68883,1755586573782,35.35,177.5,-34.89,804,769,820,868,876,33.333333333333336,-0.592,0.034,-0.815
68912,1755586573811,35.53,177.33,-34.73,804,775,821,870,881,34.48275862068966,-0.593,0.037,-0.824
68942,1755586573841,35.75,177.1,-34.57,810,773,814,855,866,33.333333333333336,-0.591,0.041,-0.816
68971,1755586573870,35.91,177.09,-34.5,812,766,825,861,877,34.48275862068966,-0.586,0.041,-0.806
69001,1755586573900,35.95,177.13,-34.46,812,771,820,865,863,33.333333333333336,-0.58,0.049,-0.827
69030,1755586573929,36.07,176.91,-34.53,807,765,824,856,872,34.48275862068966,-0.572,0.049,-0.83
69060,1755586573959,35.95,176.79,-34.68,808,765,808,856,872,33.333333333333336,-0.579,0.044,-0.815
69089,1755586573988,35.91,176.82,-34.7,810,765,816,864,874,34.48275862068966,-0.586,0.051,-0.817
69119,1755586574018,36.03,176.81,-34.69,811,766,819,863,873,33.333333333333336,-0.582,0.05,-0.822
69148,1755586574047,36.06,176.73,-34.69,810,773,827,862,867,34.48275862068966,-0.582,0.046,-0.821
69177,1755586574076,36.07,176.77,-34.58,809,768,811,859,876,34.48275862068966,-0.586,0.048,-0.82
69207,1755586574106,36.19,176.77,-34.43,809,785,814,857,877,33.333333333333336,-0.583,0.048,-0.822
69236,1755586574135,36.32,176.69,-34.32,810,764,817,872,868,34.48275862068966,-0.579,0.052,-0.822
69266,1755586574165,36.34,176.73,-34.27,811,769,823,861,878,33.333333333333336,-0.573,0.059,-0.829
69295,1755586574194,36.35,176.65,-34.29,811,771,821,865,873,34.48275862068966,-0.571,0.058,-0.829
69325,1755586574224,36.33,176.62,-34.29,812,768,826,858,881,33.333333333333336,-0.573,0.054,-0.823
69354,1755586574253,36.25,176.68,-34.28,804,768,817,857,878,34.48275862068966,-0.573,0.057,-0.83
69384,1755586574283,36.27,176.59,-34.26,810,768,816,871,865,33.333333333333336,-0.571,0.056,-0.832
69413,1755586574312,36.37,176.53,-34.18,803,769,809,861,872,34.48275862068966,-0.57,0.055,-0.827
69442,1755586574342,36.34,176.6,-34.12,813,764,812,869,871,34.48275862068966,-0.57,0.059,-0.826
69472,1755586574371,36.26,176.58,-34.11,807,766,822,862,874,33.333333333333336,-0.569,0.061,-0.832
69501,1755586574400,36.25,176.51,-34.1,805,770,813,864,875,34.48275862068966,-0.569,0.058,-0.828
69531,1755586574430,36.32,176.49,-34.0,808,771,823,859,870,33.333333333333336,-0.573,0.058,-0.825
69560,1755586574459,36.4,176.52,-33.87,813,776,811,860,871,34.48275862068966,-0.571,0.059,-0.826
69590,1755586574489,36.47,176.46,-33.77,811,773,817,860,871,33.333333333333336,-0.568,0.061,-0.834
69619,1755586574518,36.49,176.43,-33.73,812,770,816,865,889,34.48275862068966,-0.557,0.067,-0.832
69649,1755586574548,36.47,176.43,-33.74,811,762,822,861,878,33.333333333333336,-0.556,0.069,-0.834
69678,1755586574577,36.46,176.39,-33.78,809,773,826,865,874,34.48275862068966,-0.56,0.068,-0.834
69708,1755586574607,36.32,176.37,-33.82,807,773,822,865,878,33.333333333333336,-0.559,0.064,-0.836
69737,1755586574636,36.31,176.29,-33.79,812,767,831,865,871,34.48275862068966,-0.565,0.063,-0.833
69767,1755586574666,36.29,176.32,-33.79,808,770,818,848,875,33.333333333333336,-0.562,0.067,-0.832
69796,1755586574695,36.16,176.35,-33.81,806,770,812,853,878,34.48275862068966,-0.564,0.066,-0.84
69826,1755586574725,36.56,176.31,-33.79,811,766,809,866,871,33.333333333333336,-0.557,0.066,-0.838
69855,1755586574754,36.55,176.29,-33.77,807,767,819,868,877,34.48275862068966,-0.561,0.066,-0.836
69885,1755586574784,36.48,176.34,-33.72,807,764,816,863,880,33.333333333333336,-0.562,0.066,-0.834
69914,1755586574813,36.47,176.35,-33.67,814,771,827,862,872,34.48275862068966,-0.557,0.065,-0.839
69943,1755586574843,36.39,176.3,-33.71,813,759,828,863,875,34.48275862068966,-0.55,0.069,-0.841
69973,1755586574873,36.17,176.3,-33.84,812,769,828,862,874,33.333333333333336,-0.55,0.07,-0.838
70003,1755586574902,36.0,176.36,-33.91,811,768,818,864,876,33.333333333333336,-0.557,0.068,-0.832
70032,1755586574931,36.01,176.38,-33.91,814,765,815,865,879,34.48275862068966,-0.562,0.063,-0.835
70062,1755586574961,35.99,176.4,-33.84,810,764,821,860,885,33.333333333333336,-0.56,0.061,-0.836
70091,1755586574990,35.88,176.42,-33.81,812,771,820,861,884,34.48275862068966,-0.556,0.064,-0.839
70121,1755586575020,35.82,176.38,-33.87,811,767,817,854,879,33.333333333333336,-0.555,0.067,-0.838
70150,1755586575049,35.71,176.34,-33.97,809,771,811,865,874,34.48275862068966,-0.56,0.067,-0.833
70180,1755586575079,35.7,176.36,-33.94,808,771,822,860,878,33.333333333333336,-0.564,0.063,-0.835
70209,1755586575108,35.72,176.33,-33.9,807,772,812,862,876,34.48275862068966,-0.564,0.06,-0.833
70239,1755586575138,35.73,176.32,-33.85,804,775,823,866,872,33.333333333333336,-0.563,0.061,-0.839
70268,1755586575167,35.71,176.27,-33.83,807,771,827,861,881,34.48275862068966,-0.562,0.065,-0.839
70298,1755586575197,35.64,176.21,-33.88,805,771,822,856,885,33.333333333333336,-0.557,0.066,-0.829
70328,1755586575227,35.5,176.24,-33.96,811,768,816,852,876,33.333333333333336,-0.56,0.066,-0.836
70357,1755586575256,35.47,176.22,-34.01,809,768,819,856,874,34.48275862068966,-0.561,0.063,-0.836
70387,1755586575286,35.44,176.24,-34.02,809,763,811,869,872,33.333333333333336,-0.563,0.061,-0.832
70416,1755586575315,35.37,176.25,-34.04,810,764,820,865,879,34.48275862068966,-0.563,0.063,-0.832
70445,1755586575345,35.26,176.25,-34.12,806,778,815,862,882,34.48275862068966,-0.562,0.065,-0.833
70475,1755586575374,35.12,176.26,-34.23,809,773,827,867,881,33.333333333333336,-0.565,0.064,-0.828
70504,1755586575404,35.02,176.34,-34.28,812,775,812,864,882,34.48275862068966,-0.567,0.062,-0.826
70534,1755586575433,35.01,176.42,-34.27,811,767,828,868,889,33.333333333333336,-0.566,0.06,-0.832
70563,1755586575462,35.05,176.41,-34.28,807,783,823,860,867,34.48275862068966,-0.566,0.056,-0.835
70593,1755586575492,35.0,176.45,-34.32,808,767,816,865,882,33.333333333333336,-0.561,0.058,-0.836
70622,1755586575521,34.85,176.47,-34.4,804,776,833,870,874,34.48275862068966,-0.564,0.06,-0.836
70652,1755586575551,34.77,176.5,-34.44,809,769,818,861,876,33.333333333333336,-0.566,0.054,-0.832
70681,1755586575580,34.74,176.54,-34.4,812,764,826,860,878,34.48275862068966,-0.571,0.051,-0.832
70711,1755586575610,34.67,176.59,-34.32,810,766,828,859,874,33.333333333333336,-0.576,0.052,-0.83
70740,1755586575640,34.7,176.62,-34.22,810,770,819,870,872,34.48275862068966,-0.571,0.051,-0.832
70770,1755586575669,34.76,176.61,-34.11,807,775,820,853,873,33.333333333333336,-0.573,0.054,-0.841
70799,1755586575698,34.69,176.46,-34.15,810,775,817,868,885,34.48275862068966,-0.572,0.058,-0.833
70829,1755586575728,34.68,176.48,-34.15,812,771,845,871,881,33.333333333333336,-0.567,0.057,-0.818
70858,1755586575757,34.72,176.58,-34.1,811,769,823,862,870,34.48275862068966,-0.577,0.057,-0.83
70888,1755586575787,34.73,176.47,-34.04,808,760,822,868,884,33.333333333333336,-0.575,0.058,-0.837
70917,1755586575816,34.69,176.37,-34.07,808,765,819,857,874,34.48275862068966,-0.565,0.056,-0.827
70947,1755586575846,34.72,176.36,-34.12,803,771,815,861,878,33.333333333333336,-0.567,0.059,-0.82
70976,1755586575875,34.79,176.42,-34.14,810,774,824,851,870,34.48275862068966,-0.567,0.062,-0.83
71006,1755586575905,34.75,176.27,-34.28,810,765,820,867,880,33.333333333333336,-0.564,0.062,-0.834
71035,1755586575934,34.7,176.17,-34.4,806,767,818,872,904,34.48275862068966,-0.563,0.059,-0.828
71065,1755586575964,34.75,176.12,-34.46,805,769,823,863,879,33.333333333333336,-0.57,0.055,-0.831
71094,1755586575993,34.79,176.04,-34.48,804,767,819,854,861,34.48275862068966,-0.579,0.056,-0.837
71124,1755586576023,34.83,175.9,-34.46,812,775,822,865,877,33.333333333333336,-0.574,0.06,-0.838
71153,1755586576052,34.97,175.76,-34.44,811,770,816,849,882,34.48275862068966,-0.57,0.057,-0.825
71183,1755586576082,35.24,175.66,-34.33,814,768,822,870,875,33.333333333333336,-0.573,0.06,-0.83
71212,1755586576111,35.51,175.49,-34.18,808,768,821,862,872,34.48275862068966,-0.577,0.059,-0.833
71242,1755586576141,35.65,175.36,-34.04,811,768,826,859,869,33.333333333333336,-0.57,0.063,-0.826
71271,1755586576170,35.72,175.35,-33.99,811,771,818,849,878,34.48275862068966,-0.557,0.073,-0.83
71301,1755586576200,35.71,175.25,-34.07,806,773,819,860,875,33.333333333333336,-0.554,0.076,-0.839
71330,1755586576229,35.64,175.09,-34.2,812,769,809,859,876,34.48275862068966,-0.551,0.075,-0.84
71359,1755586576259,35.56,175.12,-34.23,809,764,821,861,874,34.48275862068966,-0.546,0.077,-0.839
71389,1755586576288,35.54,175.16,-34.31,808,774,819,862,878,33.333333333333336,-0.556,0.077,-0.833
71419,1755586576318,35.39,175.22,-34.41,808,780,818,863,867,33.333333333333336,-0.56,0.074,-0.83
71448,1755586576347,35.33,175.33,-34.37,809,767,818,856,877,34.48275862068966,-0.559,0.07,-0.835
71477,1755586576377,35.28,175.3,-34.37,811,765,821,859,876,34.48275862068966,-0.56,0.07,-0.84
71507,1755586576406,35.23,175.31,-34.35,813,763,822,870,876,33.333333333333336,-0.559,0.07,-0.832
71536,1755586576436,35.28,175.39,-34.29,807,778,827,864,872,34.48275862068966,-0.558,0.071,-0.834
71566,1755586576465,35.25,175.42,-34.26,810,769,821,868,883,33.333333333333336,-0.558,0.072,-0.836
71595,1755586576495,35.2,175.41,-34.24,806,768,821,859,878,34.48275862068966,-0.556,0.073,-0.84
71625,1755586576524,35.17,175.37,-34.25,807,765,819,863,862,33.333333333333336,-0.556,0.074,-0.836
71654,1755586576553,35.2,175.37,-34.26,818,765,818,869,876,34.48275862068966,-0.555,0.074,-0.833
71684,1755586576583,35.27,175.36,-34.2,809,776,822,855,884,33.333333333333336,-0.559,0.07,-0.834
71713,1755586576612,35.42,175.31,-34.05,811,769,814,854,882,34.48275862068966,-0.568,0.066,-0.839
71743,1755586576642,35.51,175.28,-33.84,812,765,819,866,875,33.333333333333336,-0.562,0.07,-0.84
71772,1755586576671,35.55,175.23,-33.69,807,774,827,857,877,34.48275862068966,-0.549,0.076,-0.836
71802,1755586576701,35.59,175.22,-33.66,805,771,832,858,866,33.333333333333336,-0.544,0.085,-0.844
71831,1755586576730,35.41,175.16,-33.76,809,756,821,866,877,34.48275862068966,-0.538,0.089,-0.849
71861,1755586576760,35.23,175.16,-33.89,809,767,815,866,870,33.333333333333336,-0.533,0.089,-0.844
71890,1755586576789,35.05,175.22,-34.04,813,772,825,862,878,34.48275862068966,-0.535,0.086,-0.841
71919,1755586576819,34.87,175.33,-34.14,810,769,826,862,869,34.48275862068966,-0.544,0.082,-0.838
71949,1755586576848,34.77,175.42,-34.16,814,769,825,865,876,33.333333333333336,-0.553,0.077,-0.842
71979,1755586576878,34.7,175.44,-34.1,817,767,830,863,878,33.333333333333336,-0.557,0.073,-0.842
72009,1755586576908,34.7,175.49,-34.01,810,766,824,863,872,33.333333333333336,-0.553,0.073,-0.835
72038,1755586576937,34.66,175.58,-33.99,808,774,814,859,862,34.48275862068966,-0.547,0.076,-0.839
72067,1755586576967,34.55,175.56,-34.03,809,766,813,858,869,34.48275862068966,-0.547,0.078,-0.842
72097,1755586576996,34.49,175.55,-34.09,810,769,812,863,877,33.333333333333336,-0.548,0.077,-0.838
72126,1755586577026,34.42,175.59,-34.13,811,773,818,867,879,34.48275862068966,-0.55,0.075,-0.837
72156,1755586577055,34.38,175.64,-34.14,812,769,825,859,872,33.333333333333336,-0.552,0.073,-0.838
72185,1755586577085,34.35,175.66,-34.14,811,771,816,850,869,34.48275862068966,-0.553,0.072,-0.839
72215,1755586577114,34.29,175.66,-34.15,815,769,827,863,867,33.333333333333336,-0.554,0.071,-0.838
72244,1755586577143,34.26,175.64,-34.15,808,765,808,875,864,34.48275862068966,-0.556,0.07,-0.837
72274,1755586577173,34.29,175.66,-34.13,808,772,821,856,865,33.333333333333336,-0.556,0.07,-0.84
72303,1755586577202,34.22,175.63,-34.15,810,773,817,862,877,34.48275862068966,-0.557,0.069,-0.838
72333,1755586577232,34.16,175.67,-34.13,809,775,820,861,874,33.333333333333336,-0.556,0.067,-0.832
72362,1755586577262,34.15,175.72,-34.09,808,769,810,855,874,34.48275862068966,-0.555,0.069,-0.833
72392,1755586577291,34.19,175.74,-34.07,812,771,817,862,872,33.333333333333336,-0.557,0.07,-0.836
72422,1755586577321,34.2,175.75,-34.06,808,767,813,864,870,33.333333333333336,-0.554,0.068,-0.835
72451,1755586577350,34.11,175.79,-34.08,810,777,821,856,865,34.48275862068966,-0.554,0.069,-0.833
72481,1755586577380,34.12,175.85,-34.06,812,775,817,861,882,33.333333333333336,-0.557,0.067,-0.838
72510,1755586577409,34.1,175.86,-34.02,812,764,824,863,871,34.48275862068966,-0.558,0.066,-0.837
72540,1755586577439,34.02,175.91,-33.99,806,767,820,858,871,33.333333333333336,-0.559,0.065,-0.833
72569,1755586577468,33.98,175.97,-33.97,811,769,820,849,874,34.48275862068966,-0.559,0.065,-0.833
72599,1755586577498,34.04,176.0,-33.95,809,770,810,870,876,33.333333333333336,-0.556,0.068,-0.836
72628,1755586577528,33.99,175.99,-33.99,803,765,824,864,879,34.48275862068966,-0.552,0.069,-0.84
72658,1755586577557,33.9,175.98,-34.08,810,767,818,868,881,33.333333333333336,-0.554,0.069,-0.834
72687,1755586577586,33.8,176.05,-34.18,811,773,821,865,870,34.48275862068966,-0.553,0.066,-0.833
72717,1755586577616,33.77,176.1,-34.24,811,768,816,852,882,33.333333333333336,-0.559,0.061,-0.835
72746,1755586577645,33.75,176.13,-34.26,803,773,821,859,872,34.48275862068966,-0.563,0.061,-0.839
72775,1755586577675,33.74,176.05,-34.29,809,760,820,867,874,34.48275862068966,-0.565,0.06,-0.837
72805,1755586577704,33.76,176.01,-34.3,811,770,817,852,874,33.333333333333336,-0.564,0.06,-0.833
72834,1755586577733,33.76,176.08,-34.3,815,771,812,862,884,34.48275862068966,-0.56,0.061,-0.835
72864,1755586577763,33.73,176.07,-34.36,808,763,820,860,876,33.333333333333336,-0.562,0.06,-0.836
72893,1755586577792,33.66,176.09,-34.41,811,760,815,866,898,34.48275862068966,-0.566,0.059,-0.834
72923,1755586577822,33.58,176.12,-34.42,811,774,821,859,870,33.333333333333336,-0.57,0.056,-0.831
72952,1755586577851,33.55,176.22,-34.35,808,768,830,866,878,34.48275862068966,-0.57,0.052,-0.83
72982,1755586577881,33.53,176.23,-34.34,805,771,823,856,879,33.333333333333336,-0.57,0.056,-0.834
73011,1755586577910,33.43,176.22,-34.36,809,755,823,865,889,34.48275862068966,-0.56,0.058,-0.84
73040,1755586577940,33.39,176.12,-34.43,809,765,820,859,881,34.48275862068966,-0.563,0.06,-0.837
73070,1755586577969,33.24,176.19,-34.52,806,773,823,846,873,33.333333333333336,-0.559,0.063,-0.831
73099,1755586577999,33.2,176.29,-34.58,816,767,828,858,866,34.48275862068966,-0.559,0.06,-0.835
73129,1755586578028,33.13,176.28,-34.68,808,773,825,858,874,33.333333333333336,-0.565,0.057,-0.837
73159,1755586578058,32.99,176.24,-34.76,808,769,819,852,857,33.333333333333336,-0.576,0.053,-0.828
73188,1755586578087,33.0,176.32,-34.71,809,759,824,864,877,34.48275862068966,-0.59,0.044,-0.82
73217,1755586578117,33.19,176.47,-34.45,811,770,812,856,877,34.48275862068966,-0.59,0.045,-0.82
73247,1755586578146,33.36,176.63,-34.21,814,775,818,869,889,33.333333333333336,-0.583,0.05,-0.829
73276,1755586578175,33.34,176.59,-34.19,809,767,840,874,870,34.48275862068966,-0.574,0.051,-0.827
73306,1755586578206,33.42,176.62,-34.15,814,773,820,867,870,33.333333333333336,-0.57,0.054,-0.821
73326,1755586578226,33.48,176.7,-34.13,809,767,821,857,874,50.0,-0.566,0.058,-0.823
73356,1755586578255,33.43,176.71,-34.21,807,762,817,873,877,33.333333333333336,-0.569,0.056,-0.829
73385,1755586578285,33.36,176.71,-34.25,810,761,820,854,882,34.48275862068966,-0.573,0.052,-0.826
73415,1755586578314,33.33,176.78,-34.23,809,767,821,857,874,33.333333333333336,-0.572,0.05,-0.825
73444,1755586578343,33.33,176.84,-34.19,807,768,814,859,870,34.48275862068966,-0.576,0.05,-0.825
73474,1755586578373,33.35,176.89,-34.16,806,768,827,861,869,33.333333333333336,-0.578,0.048,-0.822
73503,1755586578402,33.37,176.97,-34.11,811,768,804,872,877,34.48275862068966,-0.578,0.049,-0.823
73533,1755586578432,33.4,177.01,-34.07,808,775,817,858,877,33.333333333333336,-0.577,0.047,-0.824
73562,1755586578461,33.44,177.05,-34.02,814,769,818,865,873,34.48275862068966,-0.576,0.047,-0.824
73591,1755586578491,33.5,177.01,-34.0,808,773,820,861,872,34.48275862068966,-0.576,0.048,-0.827
73621,1755586578520,33.55,176.97,-34.0,807,767,822,868,877,33.333333333333336,-0.576,0.047,-0.825
73650,1755586578550,33.56,177.05,-33.97,809,766,821,870,871,34.48275862068966,-0.575,0.049,-0.825
73680,1755586578579,33.55,177.08,-33.95,804,773,812,860,874,33.333333333333336,-0.575,0.046,-0.827
73709,1755586578609,33.63,177.06,-33.9,808,763,818,853,876,34.48275862068966,-0.576,0.047,-0.828
73739,1755586578638,33.62,177.06,-33.9,802,765,821,854,876,33.333333333333336,-0.575,0.049,-0.825
73768,1755586578667,33.68,177.1,-33.87,805,768,815,866,866,34.48275862068966,-0.572,0.048,-0.822
73798,1755586578697,33.73,177.09,-33.88,808,760,816,860,871,33.333333333333336,-0.572,0.051,-0.829
73827,1755586578726,33.66,177.01,-33.97,810,771,826,857,872,34.48275862068966,-0.572,0.051,-0.829
73857,1755586578756,33.68,177.01,-34.01,812,771,826,848,878,33.333333333333336,-0.573,0.047,-0.821
73886,1755586578785,33.71,177.07,-34.01,808,762,815,848,880,34.48275862068966,-0.58,0.047,-0.82
73915,1755586578815,33.73,177.12,-33.98,812,772,818,871,872,34.48275862068966,-0.58,0.046,-0.827
