timestamp_ms,recv_timestamp_ms,pitch,roll,yaw,flex1,flex2,flex3,flex4,flex5,sampling_hz,accel_x,accel_y,accel_z
38580,1755586201230,18.38,-34.86,-12.74,777,762,774,755,815,34.48275862068966,-0.329,-0.537,0.78
38610,1755586201259,18.37,-34.86,-12.76,772,769,770,754,824,33.333333333333336,-0.331,-0.538,0.78
38639,1755586201289,18.38,-34.93,-12.77,772,772,770,753,818,34.48275862068966,-0.335,-0.539,0.774
38669,1755586201319,18.45,-35.01,-12.75,765,774,768,753,812,33.333333333333336,-0.335,-0.541,0.775
38699,1755586201349,18.44,-34.99,-12.77,771,771,781,756,815,33.333333333333336,-0.332,-0.539,0.78
38729,1755586201378,18.43,-34.94,-12.79,771,772,770,754,819,33.333333333333336,-0.332,-0.54,0.781
38759,1755586201408,18.44,-34.88,-12.77,769,765,765,753,818,33.333333333333336,-0.334,-0.542,0.777
38788,1755586201437,18.53,-34.93,-12.72,770,766,778,753,811,34.48275862068966,-0.333,-0.542,0.772
38818,1755586201467,18.55,-34.92,-12.7,770,779,767,757,817,33.333333333333336,-0.333,-0.539,0.774
38847,1755586201496,18.49,-34.94,-12.75,774,771,771,752,817,34.48275862068966,-0.335,-0.538,0.775
38877,1755586201526,18.5,-34.95,-12.74,773,774,776,754,820,33.333333333333336,-0.338,-0.543,0.774
38906,1755586201556,18.53,-34.95,-12.67,775,773,772,757,811,34.48275862068966,-0.334,-0.54,0.776
38936,1755586201585,18.52,-34.92,-12.71,762,771,771,753,820,33.333333333333336,-0.331,-0.539,0.779
38966,1755586201615,18.44,-34.84,-12.74,772,775,764,748,819,33.333333333333336,-0.333,-0.541,0.777
38995,1755586201645,18.52,-34.85,-12.7,770,770,770,751,811,34.48275862068966,-0.334,-0.542,0.774
39025,1755586201674,18.52,-34.86,-12.68,775,772,771,753,816,33.333333333333336,-0.336,-0.54,0.773
39055,1755586201704,18.49,-34.87,-12.7,771,774,769,758,820,33.333333333333336,-0.335,-0.538,0.776
39084,1755586201733,18.5,-34.84,-12.71,767,774,778,756,819,34.48275862068966,-0.334,-0.537,0.778
39113,1755586201763,18.55,-34.82,-12.7,770,772,775,749,815,34.48275862068966,-0.335,-0.54,0.778
39143,1755586201792,18.52,-34.8,-12.7,770,766,774,753,812,33.333333333333336,-0.334,-0.539,0.775
39172,1755586201822,18.55,-34.81,-12.7,769,770,773,761,816,34.48275862068966,-0.334,-0.537,0.774
39202,1755586201852,18.56,-34.85,-12.71,769,778,776,753,817,33.333333333333336,-0.337,-0.538,0.775
39232,1755586201881,18.59,-34.9,-12.69,773,770,779,749,824,33.333333333333336,-0.337,-0.538,0.773
39261,1755586201911,18.62,-34.9,-12.69,771,775,766,755,816,34.48275862068966,-0.337,-0.54,0.775
39291,1755586201940,18.59,-34.9,-12.69,772,774,768,754,817,33.333333333333336,-0.334,-0.54,0.777
39320,1755586201970,18.6,-34.88,-12.72,768,773,772,756,822,34.48275862068966,-0.335,-0.538,0.775
39350,1755586201999,18.6,-34.9,-12.71,769,768,770,751,829,33.333333333333336,-0.338,-0.537,0.775
39379,1755586202029,18.62,-34.93,-12.7,775,775,779,756,818,34.48275862068966,-0.34,-0.539,0.776
39409,1755586202058,18.64,-34.97,-12.67,770,770,772,752,816,33.333333333333336,-0.339,-0.542,0.775
39439,1755586202088,18.72,-34.98,-12.63,767,774,778,744,822,33.333333333333336,-0.337,-0.54,0.775
39468,1755586202118,18.7,-34.97,-12.66,769,777,775,747,823,34.48275862068966,-0.337,-0.538,0.776
39498,1755586202147,18.65,-34.94,-12.69,772,777,774,755,822,33.333333333333336,-0.339,-0.541,0.775
39527,1755586202177,18.67,-34.94,-12.66,773,774,768,757,822,34.48275862068966,-0.34,-0.543,0.772
39557,1755586202206,18.7,-34.93,-12.61,775,775,776,753,821,33.333333333333336,-0.341,-0.542,0.774
39587,1755586202236,18.71,-34.92,-12.57,771,775,772,755,812,33.333333333333336,-0.338,-0.539,0.776
39616,1755586202265,18.72,-34.9,-12.57,774,774,777,749,825,34.48275862068966,-0.339,-0.54,0.777
39646,1755586202295,18.69,-34.88,-12.54,768,773,774,750,832,33.333333333333336,-0.339,-0.54,0.774
39675,1755586202325,18.77,-34.93,-12.52,777,779,782,756,815,34.48275862068966,-0.338,-0.539,0.775
39705,1755586202354,18.69,-34.89,-12.54,767,776,771,747,816,33.333333333333336,-0.34,-0.539,0.777
39735,1755586202384,18.71,-34.91,-12.53,770,761,774,753,822,33.333333333333336,-0.34,-0.541,0.776
39764,1755586202413,18.77,-34.91,-12.5,772,777,775,748,811,34.48275862068966,-0.338,-0.542,0.778
39794,1755586202443,18.74,-34.84,-12.51,767,774,773,761,819,33.333333333333336,-0.338,-0.542,0.779
39823,1755586202473,18.76,-34.77,-12.51,772,774,769,749,816,34.48275862068966,-0.34,-0.54,0.777
39853,1755586202502,18.8,-34.75,-12.5,771,777,767,756,820,33.333333333333336,-0.343,-0.537,0.774
39882,1755586202532,18.81,-34.79,-12.48,776,769,773,750,821,34.48275862068966,-0.341,-0.535,0.773
39912,1755586202561,18.82,-34.78,-12.47,766,772,769,752,820,33.333333333333336,-0.342,-0.538,0.777
39941,1755586202591,18.78,-34.77,-12.48,776,774,763,751,820,34.48275862068966,-0.34,-0.537,0.776
39971,1755586202620,18.84,-34.77,-12.48,769,771,763,751,831,33.333333333333336,-0.341,-0.536,0.775
40001,1755586202650,18.79,-34.75,-12.47,774,779,767,749,822,33.333333333333336,-0.34,-0.535,0.776
40030,1755586202680,18.83,-34.77,-12.46,771,777,775,757,819,34.48275862068966,-0.337,-0.533,0.777
40060,1755586202709,18.82,-34.77,-12.49,777,771,775,755,815,33.333333333333336,-0.34,-0.535,0.778
40090,1755586202739,18.76,-34.75,-12.52,772,772,776,753,824,33.333333333333336,-0.343,-0.536,0.776
40119,1755586202768,18.85,-34.77,-12.49,771,761,775,755,819,34.48275862068966,-0.344,-0.535,0.775
40149,1755586202798,18.84,-34.78,-12.51,772,771,775,750,814,33.333333333333336,-0.341,-0.534,0.777
40178,1755586202827,18.81,-34.76,-12.56,772,775,775,745,818,34.48275862068966,-0.342,-0.538,0.775
40208,1755586202857,18.8,-34.75,-12.55,777,774,769,755,816,33.333333333333336,-0.342,-0.539,0.774
40237,1755586202886,18.83,-34.76,-12.55,772,776,774,752,818,34.48275862068966,-0.337,-0.535,0.776
40267,1755586202916,18.8,-34.72,-12.6,775,775,761,755,815,33.333333333333336,-0.338,-0.534,0.779
40296,1755586202945,18.77,-34.69,-12.63,776,775,769,754,817,34.48275862068966,-0.344,-0.536,0.776
40326,1755586202975,18.82,-34.72,-12.59,774,781,766,748,822,33.333333333333336,-0.346,-0.537,0.773
40355,1755586203004,18.82,-34.75,-12.57,771,772,777,751,822,34.48275862068966,-0.341,-0.536,0.775
40384,1755586203034,18.77,-34.7,-12.59,769,774,777,752,816,34.48275862068966,-0.336,-0.537,0.78
40414,1755586203063,18.81,-34.67,-12.59,774,777,770,753,824,33.333333333333336,-0.338,-0.538,0.779
40444,1755586203093,18.88,-34.67,-12.56,770,772,777,749,825,33.333333333333336,-0.342,-0.537,0.776
40473,1755586203123,18.87,-34.68,-12.55,771,771,777,749,819,34.48275862068966,-0.343,-0.535,0.775
40503,1755586203152,18.92,-34.71,-12.53,765,772,769,755,811,33.333333333333336,-0.343,-0.537,0.776
40533,1755586203182,18.92,-34.7,-12.5,767,769,771,757,817,33.333333333333336,-0.34,-0.538,0.778
40562,1755586203211,18.91,-34.66,-12.49,771,774,765,752,818,34.48275862068966,-0.337,-0.534,0.777
40592,1755586203241,18.93,-34.64,-12.5,771,772,773,756,818,33.333333333333336,-0.341,-0.536,0.779
40621,1755586203270,18.87,-34.62,-12.49,775,774,772,754,805,34.48275862068966,-0.345,-0.535,0.775
40651,1755586203300,18.94,-34.64,-12.45,772,765,771,757,812,33.333333333333336,-0.342,-0.535,0.776
40681,1755586203330,18.88,-34.18,-12.46,771,772,772,753,816,33.333333333333336,-0.339,-0.535,0.78
40710,1755586203360,18.83,-34.14,-12.49,773,769,768,757,814,34.48275862068966,-0.339,-0.534,0.778
40730,1755586203379,18.86,-34.15,-12.48,771,779,762,753,819,50.0,-0.341,-0.532,0.775
40760,1755586203409,18.93,-34.22,-12.47,769,767,771,755,820,33.333333333333336,-0.345,-0.532,0.776
40789,1755586203439,18.9,-34.25,-12.48,771,778,769,755,816,34.48275862068966,-0.344,-0.533,0.777
40819,1755586203469,18.9,-34.25,-12.47,768,773,771,756,816,33.333333333333336,-0.343,-0.537,0.778
40849,1755586203498,18.88,-34.22,-12.47,768,774,779,756,817,33.333333333333336,-0.34,-0.536,0.777
40878,1755586203528,18.89,-34.22,-12.47,773,767,776,753,820,34.48275862068966,-0.341,-0.534,0.777
40908,1755586203557,18.86,-34.21,-12.5,769,789,784,754,821,33.333333333333336,-0.344,-0.533,0.778
40938,1755586203587,18.88,-34.23,-12.49,776,776,765,744,812,33.333333333333336,-0.344,-0.532,0.776
40967,1755586203616,18.94,-34.26,-12.48,772,777,764,750,819,34.48275862068966,-0.343,-0.533,0.777
40996,1755586203646,18.9,-34.24,-12.49,768,761,771,750,800,34.48275862068966,-0.34,-0.534,0.779
41026,1755586203675,18.92,-34.26,-12.49,772,777,772,752,821,33.333333333333336,-0.339,-0.533,0.777
41055,1755586203705,18.9,-34.27,-12.53,771,767,780,756,820,34.48275862068966,-0.343,-0.535,0.775
41085,1755586203734,18.86,-34.31,-12.53,768,777,774,754,813,33.333333333333336,-0.343,-0.535,0.772
41114,1755586203764,18.92,-34.4,-12.5,769,774,771,757,811,34.48275862068966,-0.344,-0.538,0.776
41144,1755586203793,18.9,-34.4,-12.49,768,773,773,752,821,33.333333333333336,-0.343,-0.538,0.781
41173,1755586203823,18.87,-34.25,-12.48,770,772,777,754,813,34.48275862068966,-0.34,-0.537,0.782
41203,1755586203852,18.88,-34.21,-12.48,771,782,774,750,814,33.333333333333336,-0.343,-0.536,0.777
41233,1755586203882,18.91,-34.26,-12.44,769,764,766,763,825,33.333333333333336,-0.345,-0.534,0.773
41262,1755586203911,18.86,-34.27,-12.44,774,774,770,759,816,34.48275862068966,-0.346,-0.533,0.778
41292,1755586203941,18.78,-34.22,-12.47,776,769,769,752,821,33.333333333333336,-0.343,-0.531,0.781
41321,1755586203971,18.88,-34.25,-12.48,767,766,766,756,811,34.48275862068966,-0.34,-0.53,0.781
41351,1755586204000,18.9,-34.28,-12.5,770,784,764,750,814,33.333333333333336,-0.341,-0.533,0.781
41380,1755586204030,18.93,-34.3,-12.5,774,776,779,758,827,34.48275862068966,-0.341,-0.535,0.779
41410,1755586204060,18.97,-34.25,-12.51,769,775,769,756,814,33.333333333333336,-0.341,-0.534,0.779
41440,1755586204089,18.94,-34.18,-12.51,772,779,768,754,812,33.333333333333336,-0.343,-0.534,0.779
41469,1755586204119,18.99,-34.18,-12.5,774,772,772,758,812,34.48275862068966,-0.341,-0.532,0.78
41499,1755586204148,19.03,-34.17,-12.5,769,758,769,756,827,33.333333333333336,-0.343,-0.534,0.78
41529,1755586204178,19.04,-34.61,-12.49,771,772,790,753,819,33.333333333333336,-0.342,-0.531,0.777
41558,1755586204207,19.07,-34.62,-12.49,770,764,775,755,820,34.48275862068966,-0.344,-0.53,0.777
41588,1755586204237,19.07,-34.66,-12.47,775,767,770,754,814,33.333333333333336,-0.347,-0.534,0.779
41617,1755586204266,19.1,-34.63,-12.44,770,768,770,753,822,34.48275862068966,-0.346,-0.534,0.779
41646,1755586204296,19.1,-34.6,-12.44,775,770,777,751,830,34.48275862068966,-0.343,-0.531,0.779
41676,1755586204326,19.04,-34.56,-12.47,772,772,769,754,817,33.333333333333336,-0.341,-0.532,0.779
41706,1755586204355,19.05,-34.58,-12.48,775,778,775,759,825,33.333333333333336,-0.344,-0.531,0.778
41735,1755586204385,19.07,-34.58,-12.46,771,768,770,756,816,34.48275862068966,-0.348,-0.531,0.779
41765,1755586204414,19.1,-34.57,-12.45,772,774,775,751,824,33.333333333333336,-0.347,-0.531,0.778
41794,1755586204444,19.1,-34.57,-12.45,770,771,769,756,816,34.48275862068966,-0.343,-0.53,0.778
41824,1755586204473,19.03,-34.57,-12.47,767,777,768,753,821,33.333333333333336,-0.341,-0.531,0.779
41853,1755586204503,19.06,-34.54,-12.48,769,773,770,755,816,34.48275862068966,-0.343,-0.534,0.782
41883,1755586204533,19.05,-34.47,-12.47,769,768,765,748,825,33.333333333333336,-0.345,-0.532,0.78
41913,1755586204562,19.06,-34.46,-12.47,773,773,767,749,818,33.333333333333336,-0.345,-0.53,0.777
41942,1755586204592,19.05,-34.47,-12.48,769,765,773,755,825,34.48275862068966,-0.345,-0.531,0.78
41972,1755586204621,19.03,-34.47,-12.47,774,773,775,757,826,33.333333333333336,-0.345,-0.531,0.78
42002,1755586204651,19.06,-34.45,-12.46,769,771,776,749,814,33.333333333333336,-0.344,-0.532,0.78
42031,1755586204681,19.04,-34.42,-12.45,769,768,761,756,818,34.48275862068966,-0.341,-0.531,0.779
42061,1755586204710,19.03,-34.45,-12.46,773,766,771,755,823,33.333333333333336,-0.34,-0.528,0.778
42090,1755586204740,19.01,-34.44,-12.49,772,770,776,753,818,34.48275862068966,-0.343,-0.53,0.78
42111,1755586204760,19.03,-34.44,-12.48,773,770,770,752,817,47.61904761904762,-0.344,-0.532,0.78
42140,1755586204789,19.08,-34.41,-12.46,770,766,773,756,809,34.48275862068966,-0.346,-0.532,0.781
42170,1755586204819,19.05,-34.38,-12.47,774,771,769,754,813,33.333333333333336,-0.342,-0.529,0.78
42199,1755586204849,19.1,-34.38,-12.48,766,777,769,753,828,34.48275862068966,-0.347,-0.531,0.779
42229,1755586204879,19.06,-34.39,-12.47,773,777,783,747,830,33.333333333333336,-0.349,-0.53,0.776
42259,1755586204909,19.16,-34.43,-12.45,766,768,774,759,808,33.333333333333336,-0.347,-0.53,0.777
42289,1755586204938,19.09,-34.44,-12.46,776,769,776,757,815,33.333333333333336,-0.342,-0.53,0.779
42318,1755586204968,19.09,-34.42,-12.49,768,775,778,753,820,34.48275862068966,-0.342,-0.529,0.778
42348,1755586204997,19.11,-34.44,-12.49,774,760,772,752,821,33.333333333333336,-0.345,-0.528,0.778
42378,1755586205027,19.1,-34.43,-12.5,766,776,772,751,815,33.333333333333336,-0.348,-0.529,0.779
42407,1755586205057,19.09,-34.42,-12.48,767,770,772,757,822,34.48275862068966,-0.346,-0.53,0.777
42427,1755586205078,19.13,-34.44,-12.46,767,765,774,753,818,50.0,-0.342,-0.53,0.777
42448,1755586205097,19.14,-34.45,-12.46,777,764,777,750,817,47.61904761904762,-0.341,-0.53,0.78
42477,1755586205127,19.05,-34.4,-12.5,776,775,771,754,818,34.48275862068966,-0.34,-0.53,0.78
42507,1755586205156,19.11,-34.37,-12.48,765,777,773,756,826,33.333333333333336,-0.341,-0.531,0.779
42536,1755586205186,19.15,-34.35,-12.43,769,770,771,759,820,34.48275862068966,-0.343,-0.531,0.78
42566,1755586205216,19.13,-34.36,-12.44,772,768,781,752,816,33.333333333333336,-0.342,-0.527,0.777
42596,1755586205245,19.14,-34.37,-12.47,769,761,763,755,849,33.333333333333336,-0.342,-0.529,0.777
42625,1755586205275,19.09,-34.36,-12.47,765,776,772,750,823,34.48275862068966,-0.342,-0.531,0.777
42655,1755586205304,19.2,-34.39,-12.47,774,779,771,755,817,33.333333333333336,-0.344,-0.53,0.78
42684,1755586205334,19.13,-34.35,-12.5,775,765,773,754,817,34.48275862068966,-0.345,-0.53,0.78
42714,1755586205363,19.2,-34.33,-12.49,766,775,768,752,815,33.333333333333336,-0.346,-0.529,0.776
42743,1755586205393,19.25,-34.38,-12.48,766,770,766,759,823,34.48275862068966,-0.344,-0.527,0.777
42773,1755586205423,19.25,-34.39,-12.53,764,771,767,753,821,33.333333333333336,-0.341,-0.526,0.782
42803,1755586205452,19.24,-34.36,-12.6,769,773,766,753,815,33.333333333333336,-0.341,-0.527,0.78
42833,1755586205482,19.37,-34.44,-12.64,770,777,767,755,819,33.333333333333336,-0.349,-0.531,0.777
42862,1755586205512,19.38,-34.4,-12.64,772,773,773,756,812,34.48275862068966,-0.353,-0.53,0.779
42892,1755586205542,19.38,-34.45,-12.66,773,769,773,756,817,33.333333333333336,-0.344,-0.526,0.777
42922,1755586205572,19.43,-34.46,-12.69,770,774,767,747,823,33.333333333333336,-0.347,-0.531,0.779
42952,1755586205601,19.38,-34.43,-12.7,773,779,770,756,822,33.333333333333336,-0.347,-0.533,0.78
42981,1755586205631,19.48,-34.37,-12.67,778,765,775,759,825,34.48275862068966,-0.346,-0.533,0.78
43011,1755586205660,19.49,-34.34,-12.67,768,768,771,756,815,33.333333333333336,-0.346,-0.531,0.777
43040,1755586205690,19.47,-34.39,-12.69,775,783,771,755,816,34.48275862068966,-0.348,-0.533,0.775
43070,1755586205719,19.42,-34.42,-12.67,773,774,772,759,814,33.333333333333336,-0.346,-0.532,0.775
43099,1755586205749,19.87,-34.45,-12.68,768,772,770,748,817,34.48275862068966,-0.348,-0.532,0.78
43129,1755586205778,19.77,-34.4,-12.68,768,777,792,755,820,33.333333333333336,-0.349,-0.534,0.78
43158,1755586205807,19.82,-34.36,-12.62,773,780,770,754,819,34.48275862068966,-0.348,-0.534,0.78
43188,1755586205837,19.78,-34.3,-12.58,777,772,776,757,827,33.333333333333336,-0.345,-0.531,0.778
43217,1755586205866,19.78,-34.31,-12.6,769,772,779,759,818,34.48275862068966,-0.343,-0.529,0.777
43246,1755586205896,19.76,-34.35,-12.63,774,773,772,747,814,34.48275862068966,-0.346,-0.531,0.778
43276,1755586205925,19.75,-34.34,-12.57,770,773,778,756,817,33.333333333333336,-0.35,-0.532,0.778
43305,1755586205955,19.81,-34.21,-12.43,770,773,766,754,814,34.48275862068966,-0.35,-0.533,0.782
43335,1755586205984,19.77,-34.11,-12.37,770,774,769,752,817,33.333333333333336,-0.347,-0.529,0.78
43364,1755586206014,19.7,-34.13,-12.4,773,774,769,752,822,34.48275862068966,-0.343,-0.523,0.774
43394,1755586206043,19.67,-34.18,-12.43,768,775,774,754,815,33.333333333333336,-0.347,-0.525,0.777
43424,1755586206073,19.62,-34.21,-12.44,773,772,772,753,818,33.333333333333336,-0.349,-0.527,0.782
43453,1755586206102,19.67,-34.2,-12.42,772,770,775,750,812,34.48275862068966,-0.349,-0.527,0.784
43482,1755586206132,19.67,-34.14,-12.42,773,779,778,745,823,34.48275862068966,-0.347,-0.525,0.783
43512,1755586206161,19.64,-34.16,-12.47,769,776,774,752,817,33.333333333333336,-0.345,-0.525,0.78
43542,1755586206191,19.66,-34.19,-12.46,772,776,769,756,815,33.333333333333336,-0.348,-0.525,0.779
43571,1755586206221,20.12,-34.19,-12.46,772,775,766,752,820,34.48275862068966,-0.348,-0.524,0.783
43601,1755586206250,20.08,-34.17,-12.5,774,776,769,752,821,33.333333333333336,-0.347,-0.526,0.783
43631,1755586206280,20.04,-34.2,-12.52,773,771,775,747,826,33.333333333333336,-0.347,-0.527,0.776
43660,1755586206310,19.97,-34.36,-12.55,764,772,773,757,815,34.48275862068966,-0.346,-0.526,0.774
43690,1755586206339,20.0,-34.53,-12.57,768,780,774,754,805,33.333333333333336,-0.348,-0.528,0.782
43719,1755586206368,19.97,-34.61,-12.6,775,770,772,751,817,34.48275862068966,-0.349,-0.529,0.782
43749,1755586206398,20.07,-34.63,-12.56,774,771,771,754,817,33.333333333333336,-0.35,-0.531,0.781
43778,1755586206427,20.13,-34.6,-12.57,769,779,769,753,822,34.48275862068966,-0.348,-0.529,0.781
43807,1755586206457,20.11,-34.62,-12.58,773,776,776,751,814,34.48275862068966,-0.35,-0.53,0.78
43837,1755586206486,20.17,-34.62,-12.53,772,775,771,757,821,33.333333333333336,-0.354,-0.533,0.779
43867,1755586206516,20.23,-34.55,-12.46,775,767,770,753,814,33.333333333333336,-0.353,-0.533,0.779
43896,1755586206545,20.27,-34.56,-12.43,770,769,772,757,811,34.48275862068966,-0.35,-0.531,0.777
43926,1755586206575,20.33,-34.44,-12.4,771,776,766,757,822,33.333333333333336,-0.35,-0.531,0.779
43955,1755586206605,20.27,-34.38,-12.41,768,779,769,752,821,34.48275862068966,-0.351,-0.533,0.776
43985,1755586206634,20.28,-34.34,-12.39,775,763,770,753,816,33.333333333333336,-0.354,-0.532,0.774
44014,1755586206664,20.3,-34.27,-12.34,770,769,777,755,820,34.48275862068966,-0.357,-0.533,0.777
44044,1755586206694,20.35,-34.2,-12.26,766,774,775,752,822,33.333333333333336,-0.355,-0.532,0.776
44064,1755586206714,20.36,-34.23,-12.23,768,773,786,750,821,50.0,-0.351,-0.527,0.77
44094,1755586206743,20.34,-34.22,-12.24,772,777,773,749,807,33.333333333333336,-0.35,-0.523,0.77
44124,1755586206773,20.27,-34.2,-12.26,773,779,761,745,821,33.333333333333336,-0.354,-0.526,0.775
44153,1755586206802,20.29,-34.24,-12.24,770,773,771,755,815,34.48275862068966,-0.356,-0.526,0.774
44182,1755586206832,20.36,-34.27,-12.21,767,793,784,752,822,34.48275862068966,-0.358,-0.525,0.773
44212,1755586206862,20.3,-34.28,-12.22,771,777,766,752,821,33.333333333333336,-0.357,-0.525,0.772
44242,1755586206891,20.3,-34.31,-12.22,770,773,776,749,817,33.333333333333336,-0.353,-0.525,0.772
44271,1755586206921,20.24,-34.3,-12.23,772,773,770,755,822,34.48275862068966,-0.355,-0.527,0.777
44301,1755586206950,20.23,-34.28,-12.23,772,778,775,747,818,33.333333333333336,-0.354,-0.524,0.776
44330,1755586206980,20.3,-34.25,-12.23,769,773,769,757,822,34.48275862068966,-0.358,-0.526,0.776
44360,1755586207009,20.2,-34.22,-12.19,770,770,764,750,821,33.333333333333336,-0.361,-0.527,0.773
44390,1755586207039,20.25,-34.21,-12.13,772,775,766,752,817,33.333333333333336,-0.36,-0.526,0.774
44419,1755586207069,20.25,-34.19,-12.1,768,766,769,751,822,34.48275862068966,-0.358,-0.526,0.777
44449,1755586207098,20.21,-34.11,-12.1,765,770,770,752,818,33.333333333333336,-0.358,-0.525,0.776
44478,1755586207128,20.23,-34.1,-12.09,770,777,768,751,820,34.48275862068966,-0.359,-0.525,0.776
44508,1755586207157,20.23,-34.09,-12.08,769,772,770,747,816,33.333333333333336,-0.359,-0.526,0.775
44537,1755586207187,20.26,-34.09,-12.05,771,775,771,748,815,34.48275862068966,-0.358,-0.524,0.777
44567,1755586207216,20.22,-34.04,-12.06,763,775,778,758,815,33.333333333333336,-0.358,-0.523,0.778
44596,1755586207246,20.24,-34.06,-12.07,772,769,778,751,815,34.48275862068966,-0.357,-0.522,0.775
44626,1755586207275,20.24,-34.07,-12.08,779,795,772,754,832,33.333333333333336,-0.36,-0.523,0.774
44655,1755586207305,20.2,-34.06,-12.06,770,776,774,745,825,34.48275862068966,-0.364,-0.524,0.777
44685,1755586207335,20.25,-34.06,-12.04,765,771,768,747,815,33.333333333333336,-0.361,-0.523,0.779
44715,1755586207364,20.23,-34.0,-12.03,767,773,766,756,817,33.333333333333336,-0.36,-0.523,0.778
44744,1755586207394,20.21,-33.99,-12.02,774,776,770,752,810,34.48275862068966,-0.359,-0.523,0.776
44774,1755586207424,20.2,-33.94,-12.02,772,763,765,756,817,33.333333333333336,-0.359,-0.523,0.779
44804,1755586207453,20.2,-33.92,-11.99,772,778,774,752,823,33.333333333333336,-0.36,-0.521,0.778
44834,1755586207483,20.27,-33.89,-11.97,770,766,770,760,820,33.333333333333336,-0.361,-0.519,0.779
44863,1755586207512,20.25,-33.89,-11.99,765,771,765,756,825,34.48275862068966,-0.362,-0.52,0.778
44892,1755586207542,20.27,-33.88,-11.97,775,766,771,749,820,34.48275862068966,-0.364,-0.521,0.778
44922,1755586207571,20.28,-33.86,-11.94,766,768,770,753,820,33.333333333333336,-0.36,-0.52,0.78
44952,1755586207601,20.26,-33.82,-11.94,775,773,764,758,846,33.333333333333336,-0.357,-0.518,0.78
44981,1755586207631,20.21,-33.81,-11.96,769,772,765,755,817,34.48275862068966,-0.36,-0.518,0.778
45001,1755586207651,20.22,-33.82,-11.95,770,775,763,746,818,50.0,-0.362,-0.52,0.778
45031,1755586207680,20.3,-33.82,-11.9,771,774,768,753,807,33.333333333333336,-0.362,-0.52,0.781
45060,1755586207710,20.29,-33.81,-11.91,765,771,766,754,821,34.48275862068966,-0.361,-0.516,0.78
45090,1755586207739,20.3,-33.85,-11.92,764,770,773,754,812,33.333333333333336,-0.364,-0.518,0.776
45120,1755586207769,20.35,-33.86,-11.88,770,771,768,755,823,33.333333333333336,-0.363,-0.518,0.78
45149,1755586207799,20.39,-33.85,-11.87,764,762,771,749,837,34.48275862068966,-0.362,-0.517,0.782
45179,1755586207828,20.4,-33.8,-11.87,772,770,769,748,820,33.333333333333336,-0.364,-0.518,0.782
45208,1755586207858,20.38,-33.76,-11.87,769,761,772,755,821,34.48275862068966,-0.363,-0.516,0.781
45238,1755586207888,20.41,-33.74,-11.87,769,772,768,756,816,33.333333333333336,-0.366,-0.517,0.782
45258,1755586207907,20.38,-33.74,-11.87,768,773,768,753,813,50.0,-0.372,-0.521,0.781
45288,1755586207937,20.43,-33.71,-11.79,771,769,774,754,806,33.333333333333336,-0.371,-0.52,0.778
45317,1755586207967,20.5,-33.68,-11.76,770,778,769,755,816,34.48275862068966,-0.365,-0.516,0.781
45338,1755586207987,20.47,-33.65,-11.77,768,774,769,747,813,47.61904761904762,-0.363,-0.514,0.783
45367,1755586208017,20.46,-33.63,-11.77,773,766,777,753,818,34.48275862068966,-0.366,-0.516,0.781
45397,1755586208047,20.54,-33.65,-11.69,768,773,768,749,820,33.333333333333336,-0.369,-0.515,0.78
45427,1755586208076,20.59,-33.61,-11.62,767,769,769,753,817,33.333333333333336,-0.37,-0.515,0.781
45456,1755586208105,20.55,-33.59,-11.62,772,764,769,756,816,34.48275862068966,-0.364,-0.511,0.779
45486,1755586208135,20.61,-33.61,-11.64,771,780,761,753,826,33.333333333333336,-0.365,-0.511,0.782
45515,1755586208164,20.53,-33.57,-11.64,769,770,768,756,822,34.48275862068966,-0.368,-0.513,0.781
45544,1755586208194,20.62,-33.55,-11.6,770,772,772,753,815,34.48275862068966,-0.369,-0.513,0.781
45574,1755586208224,20.57,-33.54,-11.61,766,769,770,759,820,33.333333333333336,-0.369,-0.513,0.782
45594,1755586208244,20.54,-33.51,-11.61,770,780,773,754,824,50.0,-0.37,-0.515,0.781
45624,1755586208274,20.5,-33.47,-11.58,774,774,771,751,818,33.333333333333336,-0.368,-0.513,0.78
45654,1755586208304,20.54,-33.49,-11.57,770,777,772,754,816,33.333333333333336,-0.369,-0.51,0.78
45684,1755586208333,20.52,-33.49,-11.57,764,779,766,754,813,33.333333333333336,-0.37,-0.51,0.783
45713,1755586208363,20.52,-33.46,-11.55,770,774,767,757,821,34.48275862068966,-0.368,-0.511,0.784
45743,1755586208392,20.59,-33.41,-11.52,772,777,771,754,819,33.333333333333336,-0.369,-0.513,0.783
45772,1755586208422,20.54,-33.4,-11.52,769,766,766,747,851,34.48275862068966,-0.365,-0.51,0.778
45802,1755586208452,20.5,-33.38,-11.55,775,773,775,757,806,33.333333333333336,-0.36,-0.507,0.781
45832,1755586208481,20.51,-33.42,-11.62,766,765,774,750,816,33.333333333333336,-0.356,-0.503,0.785
45861,1755586208511,20.59,-33.56,-11.77,768,776,775,764,826,34.48275862068966,-0.357,-0.498,0.784
45891,1755586208540,20.56,-33.82,-11.94,771,771,779,753,820,33.333333333333336,-0.363,-0.502,0.78
45920,1755586208570,20.81,-34.07,-11.99,771,767,769,755,814,34.48275862068966,-0.374,-0.514,0.781
45950,1755586208599,20.99,-34.03,-11.94,772,767,772,751,818,33.333333333333336,-0.379,-0.523,0.784
45979,1755586208629,20.98,-33.8,-11.89,771,774,768,757,821,34.48275862068966,-0.377,-0.52,0.779
46009,1755586208659,21.15,-33.71,-11.88,766,770,771,755,813,33.333333333333336,-0.377,-0.519,0.778
46039,1755586208688,21.11,-33.64,-11.86,771,773,773,755,814,33.333333333333336,-0.379,-0.519,0.778
46068,1755586208718,21.12,-33.56,-11.84,773,771,773,755,814,34.48275862068966,-0.377,-0.516,0.777
46098,1755586208747,21.16,-33.47,-11.79,770,778,762,754,813,33.333333333333336,-0.379,-0.516,0.774
46128,1755586208777,21.2,-33.45,-11.77,770,771,771,748,820,33.333333333333336,-0.38,-0.515,0.773
46157,1755586208806,21.15,-33.53,-11.77,767,771,768,757,820,34.48275862068966,-0.376,-0.515,0.771
46187,1755586208836,21.13,-33.55,-11.75,776,770,767,761,822,33.333333333333336,-0.373,-0.515,0.775
46216,1755586208865,21.14,-33.54,-11.75,771,765,775,753,821,34.48275862068966,-0.374,-0.512,0.778
46246,1755586208895,21.12,-33.54,-11.77,773,775,771,755,818,33.333333333333336,-0.38,-0.511,0.776
46275,1755586208925,21.09,-33.56,-11.71,773,772,773,757,820,34.48275862068966,-0.385,-0.516,0.771
46305,1755586208955,21.16,-33.61,-11.59,773,765,770,747,818,33.333333333333336,-0.38,-0.516,0.77
46325,1755586208974,21.2,-33.65,-11.56,769,774,781,748,824,50.0,-0.373,-0.514,0.775
46355,1755586209004,21.11,-33.58,-11.58,770,776,774,748,817,33.333333333333336,-0.372,-0.514,0.78
46384,1755586209034,21.07,-33.5,-11.58,775,776,777,751,814,34.48275862068966,-0.373,-0.511,0.778
46414,1755586209063,21.14,-33.49,-11.58,771,777,770,749,815,33.333333333333336,-0.381,-0.512,0.776
46443,1755586209093,21.09,-33.48,-11.54,765,779,774,757,821,34.48275862068966,-0.38,-0.513,0.772
46473,1755586209122,21.13,-33.54,-11.51,772,779,772,754,817,33.333333333333336,-0.374,-0.509,0.774
46502,1755586209152,21.11,-33.53,-11.56,773,774,772,757,821,34.48275862068966,-0.376,-0.51,0.78
46532,1755586209182,21.02,-33.48,-11.55,776,768,772,759,817,33.333333333333336,-0.38,-0.514,0.777
46562,1755586209211,21.15,-33.49,-11.46,772,777,769,757,817,33.333333333333336,-0.381,-0.513,0.775
46591,1755586209241,21.14,-33.45,-11.42,774,770,768,753,816,34.48275862068966,-0.377,-0.51,0.778
46621,1755586209271,21.05,-33.39,-11.46,770,770,773,749,813,33.333333333333336,-0.375,-0.51,0.778
46651,1755586209300,21.11,-33.4,-11.45,765,783,779,757,823,33.333333333333336,-0.377,-0.513,0.777
46680,1755586209329,21.09,-33.34,-11.42,770,776,777,753,815,34.48275862068966,-0.378,-0.507,0.775
46710,1755586209359,21.08,-33.36,-11.44,766,762,774,754,814,33.333333333333336,-0.38,-0.506,0.774
46739,1755586209389,21.08,-33.42,-11.43,772,765,764,754,821,34.48275862068966,-0.382,-0.51,0.774
46769,1755586209418,21.12,-33.44,-11.39,771,776,770,747,821,33.333333333333336,-0.378,-0.508,0.776
46798,1755586209448,21.11,-33.42,-11.41,772,770,776,751,818,34.48275862068966,-0.377,-0.509,0.78
46828,1755586209477,21.14,-33.36,-11.41,770,766,767,756,818,33.333333333333336,-0.379,-0.508,0.779
46858,1755586209507,21.24,-33.35,-11.39,768,764,776,755,815,33.333333333333336,-0.379,-0.506,0.776
46887,1755586209537,21.31,-33.39,-11.38,771,771,764,754,808,34.48275862068966,-0.376,-0.506,0.777
46917,1755586209566,21.36,-33.39,-11.41,769,765,777,752,822,33.333333333333336,-0.377,-0.506,0.777
46946,1755586209595,21.52,-33.44,-11.41,765,772,769,755,820,34.48275862068966,-0.385,-0.511,0.776
46976,1755586209625,21.48,-33.4,-11.41,773,775,771,754,814,33.333333333333336,-0.39,-0.511,0.774
47005,1755586209654,21.41,-33.33,-11.42,770,776,768,748,820,34.48275862068966,-0.389,-0.507,0.773
47035,1755586209684,21.49,-33.38,-11.43,771,779,776,756,803,33.333333333333336,-0.388,-0.509,0.776
47064,1755586209713,21.47,-33.36,-11.41,770,770,774,755,819,34.48275862068966,-0.389,-0.509,0.777
47094,1755586209743,21.48,-33.34,-11.42,772,767,772,755,816,33.333333333333336,-0.387,-0.507,0.774
47123,1755586209773,21.52,-33.38,-11.44,770,773,775,754,823,34.48275862068966,-0.386,-0.508,0.774
47153,1755586209802,21.51,-33.37,-11.44,769,769,772,754,815,33.333333333333336,-0.386,-0.509,0.775
47182,1755586209831,21.53,-33.42,-11.48,773,770,771,754,822,34.48275862068966,-0.384,-0.507,0.775
47212,1755586209861,21.5,-33.49,-11.53,775,777,771,751,823,33.333333333333336,-0.381,-0.507,0.771
47241,1755586209891,21.51,-33.64,-11.55,771,773,771,748,817,34.48275862068966,-0.384,-0.508,0.771
47271,1755586209920,21.53,-33.71,-11.54,767,763,769,758,822,33.333333333333336,-0.389,-0.517,0.776
47300,1755586209950,21.56,-33.65,-11.48,771,765,772,760,835,34.48275862068966,-0.385,-0.516,0.776
47330,1755586209979,21.65,-33.58,-11.45,774,775,764,752,811,33.333333333333336,-0.383,-0.511,0.774
