timestamp_ms,recv_timestamp_ms,pitch,roll,yaw,flex1,flex2,flex3,flex4,flex5,sampling_hz,accel_x,accel_y,accel_z
35079,1755587143985,6.75,62.18,54.22,826,897,865,892,893,34.48275862068966,-0.153,0.863,0.483
35109,1755587144015,6.69,62.16,54.26,824,896,855,889,915,33.333333333333336,-0.151,0.871,0.483
35138,1755587144044,6.66,62.23,54.23,819,880,856,883,888,34.48275862068966,-0.148,0.875,0.482
35167,1755587144074,6.62,62.27,54.2,823,881,841,891,888,34.48275862068966,-0.147,0.871,0.476
35197,1755587144103,6.56,62.2,54.19,818,881,853,887,873,33.333333333333336,-0.149,0.868,0.472
35226,1755587144132,6.52,62.08,54.17,817,883,851,889,889,34.48275862068966,-0.156,0.869,0.479
35256,1755587144162,6.46,61.97,54.18,823,898,860,882,926,33.333333333333336,-0.157,0.864,0.488
35285,1755587144191,6.54,61.91,54.21,827,886,869,887,883,34.48275862068966,-0.158,0.863,0.49
35315,1755587144222,6.59,61.86,54.24,825,887,867,885,876,33.333333333333336,-0.152,0.866,0.49
35335,1755587144241,6.62,61.79,54.21,826,890,851,889,887,50.0,-0.147,0.87,0.489
35365,1755587144271,6.61,61.83,54.16,826,889,861,901,894,33.333333333333336,-0.146,0.868,0.49
35394,1755587144300,6.7,61.83,54.02,822,888,858,876,883,34.48275862068966,-0.152,0.864,0.487
35424,1755587144329,6.76,61.79,53.96,843,879,860,874,882,33.333333333333336,-0.157,0.864,0.486
35453,1755587144359,6.75,61.7,53.97,827,878,856,890,888,34.48275862068966,-0.161,0.861,0.489
35483,1755587144389,6.78,61.64,53.93,819,888,853,887,886,33.333333333333336,-0.162,0.864,0.491
35512,1755587144418,6.82,61.57,53.9,818,886,856,884,891,34.48275862068966,-0.162,0.865,0.495
35542,1755587144448,6.84,61.5,53.93,829,886,863,891,890,33.333333333333336,-0.16,0.859,0.493
35571,1755587144477,6.81,61.54,54.03,829,891,857,886,888,34.48275862068966,-0.162,0.862,0.49
35601,1755587144507,6.78,61.52,54.02,826,885,861,892,882,33.333333333333336,-0.161,0.865,0.495
35630,1755587144536,6.84,61.47,53.96,821,886,850,883,888,34.48275862068966,-0.165,0.864,0.495
35660,1755587144565,6.93,61.48,53.96,825,886,857,880,911,33.333333333333336,-0.165,0.858,0.493
35689,1755587144595,6.95,61.42,54.02,827,878,856,887,887,34.48275862068966,-0.165,0.86,0.489
35718,1755587144624,6.96,61.28,53.95,823,885,857,881,889,34.48275862068966,-0.163,0.862,0.491
35748,1755587144654,7.02,61.29,53.87,814,884,847,885,878,33.333333333333336,-0.165,0.86,0.497
35777,1755587144683,7.14,61.27,53.83,826,890,860,882,881,34.48275862068966,-0.169,0.859,0.488
35807,1755587144712,7.12,61.08,53.89,825,883,862,883,895,33.333333333333336,-0.175,0.857,0.486
35836,1755587144742,7.09,60.9,53.87,820,904,856,884,887,34.48275862068966,-0.169,0.86,0.505
35865,1755587144772,7.32,60.92,53.69,822,887,856,885,889,34.48275862068966,-0.166,0.861,0.513
35886,1755587144792,7.4,60.95,53.64,827,887,863,885,884,47.61904761904762,-0.171,0.855,0.505
35915,1755587144821,7.38,60.92,53.65,823,897,854,882,879,34.48275862068966,-0.173,0.858,0.501
35945,1755587144851,7.44,60.86,53.58,826,889,869,885,880,33.333333333333336,-0.174,0.853,0.506
35974,1755587144880,7.46,60.91,53.66,824,893,859,885,888,34.48275862068966,-0.182,0.853,0.506
36004,1755587144910,7.51,60.95,53.72,830,896,868,886,887,33.333333333333336,-0.185,0.85,0.5
36033,1755587144939,7.54,60.89,53.79,817,887,872,888,896,34.48275862068966,-0.183,0.847,0.5
36063,1755587144969,7.55,60.8,53.86,820,887,857,881,888,33.333333333333336,-0.182,0.85,0.499
36092,1755587144999,7.61,60.76,53.87,826,884,851,884,899,34.48275862068966,-0.177,0.855,0.502
36122,1755587145028,7.63,60.67,53.78,825,893,852,893,889,33.333333333333336,-0.172,0.853,0.512
36152,1755587145058,7.71,60.67,53.66,824,880,859,880,885,33.333333333333336,-0.176,0.849,0.519
36182,1755587145087,7.84,60.72,53.61,830,886,855,887,889,33.333333333333336,-0.182,0.848,0.521
36211,1755587145117,7.89,60.77,53.65,822,890,855,883,891,34.48275862068966,-0.181,0.847,0.51
36241,1755587145146,8.13,60.71,53.36,824,889,885,886,884,33.333333333333336,-0.18,0.849,0.497
36270,1755587145176,8.25,60.72,53.28,825,885,860,887,893,34.48275862068966,-0.19,0.856,0.496
36299,1755587145205,8.34,60.79,53.11,824,886,865,888,885,34.48275862068966,-0.21,0.854,0.501
36329,1755587145235,8.47,60.98,53.11,821,893,863,882,884,33.333333333333336,-0.223,0.849,0.501
36358,1755587145265,8.41,61.12,53.44,828,890,852,882,886,34.48275862068966,-0.214,0.848,0.503
36378,1755587145284,8.3,61.19,53.6,824,879,868,886,889,50.0,-0.187,0.845,0.503
36408,1755587145313,8.4,61.34,53.36,818,888,869,884,891,33.333333333333336,-0.17,0.842,0.491
36437,1755587145343,8.19,61.72,53.49,819,883,854,890,891,34.48275862068966,-0.164,0.855,0.495
36466,1755587145372,8.14,61.77,53.29,827,893,859,884,887,34.48275862068966,-0.177,0.848,0.5
36496,1755587145402,8.35,61.85,53.22,824,891,862,881,881,33.333333333333336,-0.205,0.847,0.498
36525,1755587145431,8.33,61.95,53.51,823,886,855,875,901,34.48275862068966,-0.207,0.849,0.492
36555,1755587145461,8.12,62.18,53.95,825,886,861,888,885,33.333333333333336,-0.193,0.855,0.487
36584,1755587145490,8.49,62.3,53.74,820,889,848,883,880,34.48275862068966,-0.189,0.852,0.481
36614,1755587145519,8.55,62.67,54.13,818,891,859,888,887,33.333333333333336,-0.202,0.871,0.483
36643,1755587145549,8.47,62.59,54.22,822,896,866,886,883,34.48275862068966,-0.188,0.878,0.496
36672,1755587145578,8.89,62.93,53.99,818,886,859,887,885,34.48275862068966,-0.188,0.868,0.49
36702,1755587145608,9.04,63.17,54.24,820,882,846,891,884,33.333333333333336,-0.196,0.848,0.469
36731,1755587145637,8.7,62.98,54.83,819,876,857,882,886,34.48275862068966,-0.194,0.853,0.455
36761,1755587145667,8.57,62.99,54.71,822,885,859,882,892,33.333333333333336,-0.174,0.861,0.456
36791,1755587145696,8.79,63.25,54.36,824,891,873,881,881,33.333333333333336,-0.19,0.872,0.457
36820,1755587145726,8.68,63.36,54.66,817,881,852,874,890,34.48275862068966,-0.201,0.87,0.444
36849,1755587145755,8.48,63.05,54.9,828,888,862,878,882,34.48275862068966,-0.191,0.861,0.445
36879,1755587145784,8.53,62.92,54.88,826,891,872,884,886,33.333333333333336,-0.191,0.869,0.462
36908,1755587145814,8.33,63.06,55.38,823,882,855,887,890,34.48275862068966,-0.184,0.877,0.469
36937,1755587145843,8.31,63.15,55.45,818,877,854,886,886,34.48275862068966,-0.171,0.874,0.46
36967,1755587145873,8.36,63.19,55.39,817,893,869,877,885,33.333333333333336,-0.168,0.866,0.449
36996,1755587145902,8.39,63.17,55.47,822,891,859,879,887,34.48275862068966,-0.174,0.876,0.443
37026,1755587145931,8.29,63.28,55.63,822,887,868,893,888,33.333333333333336,-0.169,0.885,0.456
37055,1755587145961,8.4,63.26,55.45,829,880,844,877,892,34.48275862068966,-0.166,0.878,0.457
37084,1755587145991,8.43,63.44,55.5,821,888,862,886,899,34.48275862068966,-0.175,0.875,0.459
37114,1755587146020,8.4,63.42,55.62,825,884,865,869,892,33.333333333333336,-0.177,0.869,0.456
37144,1755587146049,8.38,63.34,55.69,824,892,860,887,885,33.333333333333336,-0.168,0.869,0.456
37173,1755587146079,8.34,63.42,55.75,822,887,860,887,883,34.48275862068966,-0.164,0.872,0.461
37202,1755587146108,8.36,63.5,55.74,825,881,853,885,887,34.48275862068966,-0.162,0.885,0.454
37232,1755587146138,8.27,63.36,55.6,821,892,854,901,891,33.333333333333336,-0.158,0.883,0.446
37262,1755587146167,8.27,63.3,55.38,824,887,861,889,885,33.333333333333336,-0.16,0.879,0.449
37291,1755587146197,8.28,63.65,55.29,825,888,865,891,895,34.48275862068966,-0.164,0.883,0.456
37320,1755587146226,8.23,63.48,55.38,834,889,862,878,885,34.48275862068966,-0.174,0.886,0.445
37350,1755587146255,7.99,63.28,55.52,829,889,857,896,883,33.333333333333336,-0.166,0.879,0.444
37379,1755587146285,8.18,63.31,55.45,826,884,854,886,889,34.48275862068966,-0.173,0.893,0.453
37408,1755587146314,8.23,63.43,55.46,826,892,861,890,880,34.48275862068966,-0.18,0.889,0.441
37438,1755587146343,7.98,63.25,55.47,823,892,852,883,883,33.333333333333336,-0.182,0.878,0.445
37467,1755587146373,8.01,63.27,55.48,830,901,856,874,884,34.48275862068966,-0.187,0.88,0.458
37496,1755587146402,8.11,63.32,55.51,830,882,858,888,888,34.48275862068966,-0.19,0.876,0.454
37526,1755587146432,8.05,63.18,55.59,838,890,857,887,888,33.333333333333336,-0.191,0.87,0.454
37556,1755587146462,7.97,63.32,55.72,830,888,856,889,881,33.333333333333336,-0.183,0.882,0.465
37585,1755587146492,8.11,63.43,55.6,833,895,862,884,890,34.48275862068966,-0.177,0.887,0.46
37615,1755587146521,8.12,63.37,55.59,831,895,859,888,884,33.333333333333336,-0.18,0.874,0.45
37644,1755587146550,8.09,63.31,55.65,832,890,868,880,882,34.48275862068966,-0.186,0.873,0.456
37674,1755587146580,8.1,63.42,55.67,831,887,872,882,886,33.333333333333336,-0.186,0.883,0.458
37703,1755587146609,8.16,63.29,55.68,821,883,850,892,886,34.48275862068966,-0.184,0.88,0.449
37733,1755587146639,8.1,63.35,55.71,825,891,864,886,887,33.333333333333336,-0.183,0.878,0.454
37762,1755587146668,8.11,63.46,55.87,827,883,865,887,883,34.48275862068966,-0.184,0.884,0.457
37792,1755587146698,8.08,63.44,55.97,825,886,861,889,889,33.333333333333336,-0.18,0.881,0.448
37822,1755587146727,8.06,63.47,56.05,824,886,869,876,907,33.333333333333336,-0.18,0.884,0.454
37851,1755587146757,8.04,63.57,56.07,828,876,858,888,879,34.48275862068966,-0.169,0.884,0.461
37880,1755587146786,8.17,63.66,56.02,825,885,860,880,875,34.48275862068966,-0.172,0.881,0.453
37910,1755587146815,8.19,63.68,56.03,826,886,873,892,898,33.333333333333336,-0.176,0.873,0.453
37939,1755587146845,8.14,63.78,56.11,822,887,863,889,916,34.48275862068966,-0.179,0.884,0.455
37968,1755587146874,8.14,63.83,56.08,827,885,859,886,878,34.48275862068966,-0.177,0.88,0.454
37998,1755587146903,8.18,63.86,56.01,830,884,864,882,888,33.333333333333336,-0.177,0.875,0.452
38027,1755587146933,8.22,64.01,56.07,821,882,868,882,891,34.48275862068966,-0.178,0.878,0.448
38056,1755587146962,8.26,64.04,56.17,827,880,862,887,881,34.48275862068966,-0.179,0.88,0.445
38086,1755587146991,8.29,64.01,56.07,820,887,865,882,880,33.333333333333336,-0.179,0.876,0.446
38115,1755587147021,8.59,63.84,55.61,829,895,862,882,883,34.48275862068966,-0.188,0.873,0.452
38144,1755587147050,8.95,63.81,55.74,827,878,867,882,894,34.48275862068966,-0.212,0.875,0.459
38174,1755587147080,9.1,63.92,56.26,829,877,861,888,888,33.333333333333336,-0.198,0.88,0.452
38204,1755587147110,9.4,63.91,56.1,820,884,858,884,891,33.333333333333336,-0.177,0.881,0.445
38233,1755587147139,9.72,63.86,55.87,825,885,857,879,884,34.48275862068966,-0.178,0.883,0.443
38263,1755587147168,9.67,63.81,56.07,831,886,869,880,889,33.333333333333336,-0.179,0.884,0.443
38292,1755587147198,9.64,63.84,56.11,826,892,850,881,884,34.48275862068966,-0.176,0.888,0.443
38322,1755587147228,9.65,63.9,56.04,827,890,865,882,888,33.333333333333336,-0.178,0.887,0.443
38351,1755587147258,9.6,63.88,56.18,822,881,860,887,883,34.48275862068966,-0.187,0.882,0.437
38381,1755587147287,9.56,63.79,56.21,827,888,874,890,887,33.333333333333336,-0.189,0.881,0.439
38411,1755587147317,9.51,63.8,56.29,826,885,868,888,881,33.333333333333336,-0.191,0.885,0.446
38440,1755587147346,9.59,63.81,56.27,826,898,863,885,890,34.48275862068966,-0.191,0.883,0.447
38469,1755587147375,9.54,63.77,56.36,823,888,850,883,892,34.48275862068966,-0.193,0.879,0.442
38499,1755587147404,9.47,63.47,56.42,823,892,863,887,890,33.333333333333336,-0.193,0.876,0.436
38528,1755587147434,9.43,63.4,56.46,825,875,853,880,883,34.48275862068966,-0.192,0.883,0.439
38557,1755587147463,9.4,63.44,56.5,828,885,865,899,888,34.48275862068966,-0.191,0.884,0.446
38587,1755587147492,9.48,63.39,56.48,831,885,869,888,886,33.333333333333336,-0.193,0.882,0.449
38616,1755587147522,9.48,63.45,56.54,823,891,860,880,894,34.48275862068966,-0.192,0.878,0.449
38645,1755587147551,9.46,63.38,56.67,825,889,866,878,884,34.48275862068966,-0.189,0.875,0.446
38675,1755587147582,9.45,63.22,56.67,831,886,853,887,877,33.333333333333336,-0.186,0.879,0.446
38695,1755587147601,9.4,63.16,56.63,822,883,855,878,890,50.0,-0.185,0.883,0.451
38725,1755587147630,9.39,63.14,56.61,823,888,850,878,880,33.333333333333336,-0.19,0.877,0.462
38754,1755587147660,9.42,63.17,56.64,821,900,852,894,881,34.48275862068966,-0.192,0.873,0.46
38784,1755587147690,9.36,63.06,56.74,822,882,855,888,889,33.333333333333336,-0.191,0.871,0.45
38813,1755587147719,9.23,62.8,56.76,827,887,861,891,881,34.48275862068966,-0.19,0.871,0.453
38843,1755587147748,9.16,62.72,56.74,825,906,845,879,886,33.333333333333336,-0.19,0.874,0.468
38872,1755587147778,9.24,62.87,56.7,821,893,865,878,886,34.48275862068966,-0.194,0.877,0.468
38901,1755587147807,9.21,62.8,56.77,823,891,853,886,897,34.48275862068966,-0.194,0.871,0.456
38931,1755587147837,9.09,62.5,56.82,825,887,856,890,879,33.333333333333336,-0.187,0.87,0.462
38960,1755587147866,9.03,62.45,56.75,830,889,855,878,882,34.48275862068966,-0.185,0.876,0.474
38990,1755587147896,9.09,62.53,56.62,821,890,857,880,879,33.333333333333336,-0.191,0.871,0.47
39019,1755587147925,9.11,62.41,56.65,823,879,868,882,884,34.48275862068966,-0.199,0.862,0.467
39049,1755587147954,9.11,62.37,56.73,829,877,853,889,890,33.333333333333336,-0.201,0.861,0.473
39078,1755587147983,9.16,62.26,56.81,823,879,860,889,890,34.48275862068966,-0.202,0.862,0.471
39107,1755587148013,9.09,62.25,57.0,816,886,863,887,884,34.48275862068966,-0.197,0.865,0.478
39137,1755587148042,9.16,62.22,56.89,827,890,861,882,888,33.333333333333336,-0.193,0.867,0.488
39166,1755587148072,9.32,62.43,56.9,832,888,857,880,891,34.48275862068966,-0.197,0.868,0.49
39196,1755587148101,9.31,62.53,57.11,816,890,853,882,887,33.333333333333336,-0.197,0.867,0.477
39225,1755587148131,9.31,62.47,57.16,822,889,862,880,890,34.48275862068966,-0.19,0.862,0.472
39254,1755587148160,9.38,62.45,57.13,827,888,854,882,880,34.48275862068966,-0.193,0.864,0.472
39284,1755587148190,9.34,62.46,57.24,827,909,867,879,887,33.333333333333336,-0.194,0.869,0.468
39313,1755587148219,9.33,62.36,57.25,822,895,865,885,879,34.48275862068966,-0.192,0.866,0.469
39343,1755587148248,9.35,62.34,57.28,825,881,876,878,889,33.333333333333336,-0.193,0.865,0.47
39372,1755587148278,9.29,62.36,57.36,823,885,855,878,893,34.48275862068966,-0.19,0.867,0.464
39402,1755587148308,9.27,62.18,57.4,826,887,855,878,884,33.333333333333336,-0.192,0.866,0.461
39431,1755587148337,9.18,62.09,57.44,824,885,856,891,891,34.48275862068966,-0.191,0.869,0.472
39461,1755587148367,9.15,62.24,57.5,823,891,857,875,892,33.333333333333336,-0.19,0.871,0.48
39491,1755587148397,9.22,62.31,57.48,821,894,859,883,881,33.333333333333336,-0.19,0.865,0.475
39520,1755587148426,9.16,62.2,57.5,823,889,858,880,882,34.48275862068966,-0.189,0.863,0.477
39550,1755587148455,9.12,62.24,57.51,824,890,863,880,887,33.333333333333336,-0.189,0.863,0.482
39579,1755587148485,9.12,62.28,57.48,823,885,861,884,880,34.48275862068966,-0.191,0.862,0.478
39609,1755587148514,9.11,62.23,57.52,824,886,849,885,878,33.333333333333336,-0.195,0.861,0.473
39638,1755587148544,9.05,62.21,57.64,823,894,864,880,883,34.48275862068966,-0.196,0.862,0.474
39667,1755587148574,9.04,62.28,57.72,826,888,855,884,887,34.48275862068966,-0.192,0.866,0.474
39697,1755587148603,9.04,62.19,57.68,822,890,857,890,892,33.333333333333336,-0.192,0.866,0.471
39726,1755587148632,9.02,62.13,57.77,824,891,852,890,889,34.48275862068966,-0.195,0.863,0.474
39756,1755587148662,9.04,62.06,57.85,825,891,863,887,885,33.333333333333336,-0.192,0.861,0.475
39785,1755587148691,9.07,62.06,57.91,827,879,865,886,884,34.48275862068966,-0.189,0.868,0.478
39815,1755587148721,9.1,62.05,57.9,825,894,863,884,883,33.333333333333336,-0.187,0.867,0.481
39844,1755587148750,9.18,62.11,57.9,825,898,856,894,894,34.48275862068966,-0.188,0.863,0.482
39874,1755587148780,9.29,62.04,57.97,825,888,857,881,880,33.333333333333336,-0.193,0.861,0.476
39904,1755587148809,9.28,61.91,58.01,825,890,854,888,883,33.333333333333336,-0.19,0.86,0.477
39933,1755587148840,9.33,61.87,57.97,821,892,860,880,889,34.48275862068966,-0.194,0.86,0.483
39953,1755587148859,9.36,61.9,58.01,836,887,868,885,886,50.0,-0.194,0.86,0.481
39983,1755587148888,9.35,61.88,58.04,827,892,858,877,885,33.333333333333336,-0.19,0.859,0.48
40012,1755587148918,9.31,61.9,58.05,823,889,856,890,894,34.48275862068966,-0.187,0.862,0.484
40042,1755587148948,9.31,61.84,58.03,824,891,865,878,879,33.333333333333336,-0.187,0.861,0.488
40071,1755587148978,9.32,61.84,58.03,821,893,865,890,890,34.48275862068966,-0.189,0.862,0.486
40091,1755587148997,9.32,61.83,58.02,820,886,851,890,896,50.0,-0.188,0.856,0.487
40121,1755587149026,9.36,61.78,58.04,825,890,857,887,885,33.333333333333336,-0.192,0.857,0.482
40150,1755587149056,9.32,61.84,58.04,826,887,854,880,885,34.48275862068966,-0.194,0.861,0.481
40179,1755587149086,9.33,61.84,58.05,827,884,863,887,894,34.48275862068966,-0.196,0.862,0.482
40209,1755587149115,9.34,61.78,58.09,825,887,864,904,880,33.333333333333336,-0.197,0.859,0.482
40239,1755587149145,9.24,61.73,58.17,826,881,859,885,887,33.333333333333336,-0.195,0.857,0.48
40268,1755587149174,9.17,61.64,58.21,825,885,848,892,888,34.48275862068966,-0.193,0.859,0.48
40298,1755587149204,9.11,61.58,58.18,823,882,861,888,867,33.333333333333336,-0.19,0.861,0.483
40327,1755587149233,9.07,61.58,58.12,819,887,854,885,887,34.48275862068966,-0.192,0.861,0.487
40357,1755587149262,9.0,61.57,58.12,819,885,856,891,886,33.333333333333336,-0.195,0.858,0.482
40386,1755587149292,8.82,61.47,58.26,827,891,862,884,884,34.48275862068966,-0.194,0.856,0.48
40416,1755587149322,8.73,61.32,58.25,820,876,861,891,889,33.333333333333336,-0.198,0.857,0.493
40445,1755587149352,8.74,61.41,58.39,831,893,849,885,884,34.48275862068966,-0.195,0.857,0.502
40475,1755587149381,8.79,61.47,58.41,826,891,856,885,906,33.333333333333336,-0.19,0.858,0.497
40505,1755587149411,8.77,61.5,58.39,829,896,858,886,881,33.333333333333336,-0.184,0.852,0.492
40534,1755587149440,8.76,61.44,58.39,815,888,861,869,891,34.48275862068966,-0.187,0.851,0.496
40564,1755587149470,8.8,61.41,58.39,818,887,860,883,888,33.333333333333336,-0.191,0.853,0.499
40593,1755587149499,8.85,61.4,58.4,824,897,861,888,889,34.48275862068966,-0.192,0.856,0.492
40623,1755587149528,8.76,61.32,58.49,829,893,863,890,885,33.333333333333336,-0.19,0.856,0.489
40652,1755587149558,8.64,61.04,58.44,831,879,857,888,882,34.48275862068966,-0.183,0.851,0.489
40681,1755587149587,8.69,61.08,58.35,820,869,860,877,883,34.48275862068966,-0.191,0.856,0.5
40711,1755587149617,8.73,61.17,58.34,826,890,863,887,876,33.333333333333336,-0.196,0.851,0.504
40740,1755587149646,8.75,61.23,58.51,826,892,862,884,884,34.48275862068966,-0.202,0.851,0.498
40770,1755587149676,8.79,61.12,58.54,822,878,866,882,890,33.333333333333336,-0.197,0.852,0.489
40799,1755587149705,8.75,61.01,58.53,821,887,860,885,889,34.48275862068966,-0.191,0.85,0.493
40829,1755587149734,8.73,61.05,58.6,820,884,843,883,879,33.333333333333336,-0.193,0.853,0.497
40858,1755587149764,8.71,61.08,58.62,826,888,862,889,880,34.48275862068966,-0.19,0.852,0.498
40887,1755587149794,8.77,61.05,58.59,816,873,865,887,885,34.48275862068966,-0.189,0.852,0.499
40917,1755587149823,8.78,61.01,58.52,827,890,855,882,883,33.333333333333336,-0.188,0.848,0.497
40947,1755587149853,8.76,61.03,58.52,825,881,853,891,880,33.333333333333336,-0.187,0.853,0.497
40976,1755587149882,8.74,61.05,58.44,826,890,857,877,888,34.48275862068966,-0.189,0.855,0.496
41006,1755587149912,8.7,61.0,58.38,823,885,862,880,880,33.333333333333336,-0.196,0.847,0.497
41035,1755587149941,8.71,60.93,58.47,828,894,858,877,889,34.48275862068966,-0.203,0.844,0.498
41065,1755587149971,8.66,60.97,58.64,826,888,865,887,887,33.333333333333336,-0.2,0.851,0.501
41094,1755587150000,8.69,60.9,58.61,813,890,858,889,885,34.48275862068966,-0.196,0.85,0.499
41124,1755587150030,8.69,60.9,58.69,820,881,862,884,886,33.333333333333336,-0.198,0.851,0.5
41153,1755587150059,8.67,60.9,58.76,818,888,865,886,882,34.48275862068966,-0.194,0.852,0.5
41183,1755587150089,8.69,60.88,58.8,824,888,847,889,883,33.333333333333336,-0.194,0.851,0.505
41212,1755587150118,8.71,60.98,58.87,820,885,863,888,889,34.48275862068966,-0.194,0.852,0.507
41242,1755587150148,8.71,61.05,58.92,824,886,857,883,887,33.333333333333336,-0.192,0.852,0.497
41271,1755587150177,8.69,60.95,58.91,827,884,855,889,889,34.48275862068966,-0.192,0.847,0.495
41301,1755587150207,8.7,60.82,58.92,824,883,871,883,874,33.333333333333336,-0.194,0.848,0.498
41330,1755587150236,8.71,60.68,58.91,829,894,860,890,882,34.48275862068966,-0.193,0.844,0.5
41360,1755587150266,8.67,60.66,58.95,826,881,849,886,877,33.333333333333336,-0.192,0.847,0.498
41390,1755587150295,8.7,60.57,58.88,824,875,858,887,882,33.333333333333336,-0.192,0.845,0.5
41419,1755587150325,8.74,60.43,58.93,819,889,848,879,886,34.48275862068966,-0.195,0.845,0.504
41448,1755587150354,8.79,60.33,58.93,826,877,857,882,883,34.48275862068966,-0.196,0.846,0.508
41478,1755587150383,8.81,60.36,58.99,831,881,859,880,886,33.333333333333336,-0.195,0.845,0.506
41507,1755587150413,8.85,60.31,58.99,826,877,846,884,883,34.48275862068966,-0.196,0.845,0.506
41536,1755587150442,8.87,60.26,58.99,825,880,865,885,880,34.48275862068966,-0.196,0.843,0.508
41566,1755587150471,8.89,60.22,59.03,823,888,860,884,885,33.333333333333336,-0.194,0.845,0.512
41595,1755587150501,8.99,60.32,59.03,819,887,857,879,882,34.48275862068966,-0.19,0.846,0.518
41624,1755587150530,9.09,60.38,59.1,818,885,851,888,885,34.48275862068966,-0.192,0.842,0.514
41654,1755587150560,9.13,60.28,59.0,824,892,861,883,884,33.333333333333336,-0.195,0.841,0.503
41683,1755587150589,9.06,60.28,59.04,825,886,839,887,894,34.48275862068966,-0.197,0.842,0.505
41713,1755587150618,9.0,60.35,59.03,819,877,866,888,881,33.333333333333336,-0.196,0.846,0.51
41742,1755587150648,9.0,60.33,59.0,822,884,856,879,883,34.48275862068966,-0.2,0.846,0.506
41772,1755587150678,9.02,60.21,59.0,823,883,864,882,885,33.333333333333336,-0.199,0.841,0.508
41801,1755587150707,9.01,60.2,58.97,819,891,871,880,890,34.48275862068966,-0.197,0.844,0.51
41831,1755587150737,9.06,60.21,58.88,828,886,852,892,884,33.333333333333336,-0.2,0.844,0.511
41860,1755587150766,9.14,60.07,58.81,826,885,860,876,886,34.48275862068966,-0.205,0.841,0.513
41890,1755587150795,9.16,60.07,58.86,820,889,857,881,891,33.333333333333336,-0.203,0.845,0.511
41919,1755587150825,9.2,60.01,58.81,818,882,848,884,894,34.48275862068966,-0.204,0.84,0.509
41948,1755587150854,9.2,59.99,58.85,824,887,862,891,885,34.48275862068966,-0.207,0.84,0.509
41977,1755587150883,9.19,59.95,58.85,825,884,853,884,887,34.48275862068966,-0.208,0.843,0.511
42007,1755587150912,9.2,59.93,58.89,828,896,856,879,881,33.333333333333336,-0.209,0.839,0.515
42036,1755587150942,9.21,59.89,58.94,819,894,836,885,889,34.48275862068966,-0.206,0.838,0.518
42065,1755587150972,9.24,59.83,58.93,814,880,865,876,888,34.48275862068966,-0.205,0.838,0.515
42095,1755587151001,9.26,59.73,58.94,824,883,867,874,883,33.333333333333336,-0.206,0.836,0.515
42124,1755587151030,9.21,59.65,58.96,817,886,862,888,881,34.48275862068966,-0.208,0.837,0.516
42154,1755587151060,9.25,59.56,58.95,829,878,858,888,877,33.333333333333336,-0.209,0.836,0.517
42183,1755587151089,9.24,59.62,59.02,824,877,849,891,902,34.48275862068966,-0.211,0.836,0.518
42213,1755587151119,9.24,59.56,59.01,817,890,863,875,876,33.333333333333336,-0.209,0.836,0.513
42242,1755587151149,9.23,59.42,59.03,826,885,861,880,890,34.48275862068966,-0.21,0.834,0.513
42272,1755587151178,9.24,59.39,59.08,826,879,861,891,886,33.333333333333336,-0.211,0.836,0.52
42302,1755587151208,9.26,59.4,59.1,823,880,856,883,884,33.333333333333336,-0.209,0.837,0.525
42331,1755587151237,9.3,59.39,59.09,820,880,856,889,885,34.48275862068966,-0.209,0.833,0.526
42361,1755587151266,9.31,59.38,59.13,820,884,854,888,879,33.333333333333336,-0.21,0.831,0.524
42390,1755587151296,9.31,59.42,59.13,823,889,867,887,879,34.48275862068966,-0.208,0.836,0.52
42419,1755587151325,9.29,59.45,59.11,817,890,858,888,882,34.48275862068966,-0.216,0.835,0.52
42449,1755587151355,9.38,59.37,59.03,819,877,855,885,884,33.333333333333336,-0.221,0.827,0.527
42478,1755587151384,9.57,59.46,59.13,827,885,863,887,885,34.48275862068966,-0.228,0.828,0.537
42508,1755587151414,9.82,59.82,59.44,819,894,863,889,890,33.333333333333336,-0.224,0.832,0.536
42537,1755587151443,9.9,60.2,59.47,825,885,849,896,886,34.48275862068966,-0.21,0.834,0.52
42567,1755587151472,10.08,60.3,59.56,826,883,863,882,884,33.333333333333336,-0.212,0.835,0.511
42596,1755587151502,9.98,60.47,59.77,825,883,872,890,890,34.48275862068966,-0.212,0.839,0.5
42625,1755587151532,9.89,60.56,59.93,827,887,849,871,885,34.48275862068966,-0.213,0.843,0.497
42655,1755587151561,9.88,60.49,60.01,827,878,842,874,886,33.333333333333336,-0.211,0.842,0.496
42685,1755587151590,9.85,60.52,60.07,824,885,876,898,885,33.333333333333336,-0.205,0.84,0.502
42714,1755587151620,9.85,60.67,60.08,820,898,865,877,879,34.48275862068966,-0.205,0.846,0.502
42743,1755587151649,9.89,60.73,60.12,822,888,855,870,887,34.48275862068966,-0.205,0.845,0.5
42773,1755587151679,9.91,60.7,60.13,822,888,852,882,885,33.333333333333336,-0.206,0.846,0.498
42802,1755587151708,9.83,60.88,60.33,825,884,868,887,881,34.48275862068966,-0.203,0.845,0.5
42832,1755587151737,9.94,61.07,60.33,826,890,854,887,881,33.333333333333336,-0.203,0.852,0.493
42861,1755587151767,10.01,61.07,60.3,820,892,858,879,896,34.48275862068966,-0.204,0.849,0.488
42890,1755587151796,9.95,61.14,60.32,824,887,854,884,888,34.48275862068966,-0.202,0.848,0.488
42920,1755587151826,9.92,61.38,60.34,827,887,864,877,887,33.333333333333336,-0.201,0.853,0.486
42949,1755587151855,10.0,61.33,60.24,828,884,851,882,895,34.48275862068966,-0.203,0.854,0.48
42979,1755587151886,9.96,61.17,60.27,825,884,863,884,886,33.333333333333336,-0.201,0.851,0.486
42999,1755587151907,9.89,61.25,60.26,826,887,863,880,895,50.0,-0.199,0.86,0.488
43020,1755587151926,9.92,61.25,60.15,828,883,849,885,879,47.61904761904762,-0.198,0.862,0.486
43050,1755587151955,9.92,61.04,60.08,828,885,853,883,881,33.333333333333336,-0.207,0.857,0.476
43079,1755587151985,9.78,60.81,60.16,825,897,869,886,884,34.48275862068966,-0.212,0.857,0.481
43109,1755587152014,9.74,60.82,60.24,827,893,855,886,882,33.333333333333336,-0.211,0.861,0.492
43138,1755587152044,9.8,60.87,60.2,823,888,869,881,883,34.48275862068966,-0.21,0.859,0.494
43167,1755587152073,9.73,60.72,60.23,823,893,849,878,880,34.48275862068966,-0.206,0.854,0.486
43197,1755587152103,9.6,60.64,60.3,821,880,853,887,909,33.333333333333336,-0.207,0.856,0.485
43226,1755587152132,9.55,60.42,60.25,824,889,856,886,902,34.48275862068966,-0.205,0.841,0.491
43256,1755587152161,9.63,60.42,60.35,824,879,863,888,887,33.333333333333336,-0.218,0.85,0.493
43285,1755587152191,9.61,60.4,60.39,823,884,873,887,878,34.48275862068966,-0.217,0.849,0.485
43314,1755587152220,9.54,60.28,60.43,823,885,861,880,883,34.48275862068966,-0.213,0.85,0.484
43344,1755587152250,9.48,60.12,60.37,827,886,840,874,893,33.333333333333336,-0.211,0.849,0.491
43373,1755587152279,9.42,60.12,60.34,827,893,859,888,883,34.48275862068966,-0.21,0.842,0.509
43403,1755587152308,9.55,60.15,60.28,830,890,854,882,871,33.333333333333336,-0.21,0.838,0.514
43432,1755587152338,9.62,60.12,60.31,833,886,857,885,891,34.48275862068966,-0.203,0.836,0.509
43461,1755587152367,9.58,60.15,59.88,819,886,850,887,880,34.48275862068966,-0.201,0.845,0.502
43491,1755587152397,9.6,60.21,59.84,824,887,857,885,887,33.333333333333336,-0.216,0.851,0.501
43520,1755587152426,9.53,60.41,60.2,829,878,864,889,883,34.48275862068966,-0.243,0.843,0.504
43550,1755587152456,9.24,60.88,61.19,826,888,864,889,883,33.333333333333336,-0.256,0.841,0.5
43579,1755587152485,9.08,61.28,61.96,824,888,859,893,883,34.48275862068966,-0.223,0.839,0.505
43609,1755587152514,9.54,61.35,61.92,823,883,864,883,884,33.333333333333336,-0.195,0.843,0.505
43638,1755587152544,9.53,61.63,62.24,821,888,863,885,884,34.48275862068966,-0.178,0.849,0.501
43667,1755587152573,9.27,61.84,62.56,815,879,859,883,892,34.48275862068966,-0.162,0.855,0.495
43697,1755587152602,9.51,61.9,62.19,822,881,862,885,886,33.333333333333336,-0.168,0.858,0.49
43726,1755587152632,9.85,62.14,61.95,823,890,859,885,883,34.48275862068966,-0.197,0.857,0.478
43755,1755587152661,9.68,62.17,62.41,818,893,876,878,891,34.48275862068966,-0.201,0.857,0.463
43785,1755587152690,9.5,61.84,62.51,827,883,855,879,885,33.333333333333336,-0.183,0.863,0.46
43814,1755587152720,9.55,61.64,62.42,819,883,861,888,879,34.48275862068966,-0.174,0.863,0.479
