timestamp_ms,recv_timestamp_ms,pitch,roll,yaw,flex1,flex2,flex3,flex4,flex5,sampling_hz,accel_x,accel_y,accel_z
93270,1755586366096,12.56,57.09,5.45,824,771,842,874,874,34.48275862068966,-0.215,0.82,0.535
93300,1755586366125,12.51,57.06,5.37,817,770,834,870,872,33.333333333333336,-0.212,0.824,0.537
93329,1755586366155,12.5,57.08,5.3,818,757,822,879,876,34.48275862068966,-0.217,0.821,0.542
93359,1755586366184,12.54,57.1,5.27,815,763,838,876,862,33.333333333333336,-0.225,0.817,0.546
93388,1755586366214,12.54,57.11,5.33,819,765,851,876,874,34.48275862068966,-0.224,0.817,0.541
93417,1755586366243,12.55,57.1,5.35,820,762,849,871,871,34.48275862068966,-0.223,0.819,0.538
93447,1755586366273,12.59,57.15,5.33,820,778,845,876,873,33.333333333333336,-0.221,0.821,0.543
93476,1755586366302,12.6,57.2,5.32,816,767,837,873,865,34.48275862068966,-0.217,0.818,0.535
93506,1755586366332,12.58,57.13,5.31,812,769,838,875,873,33.333333333333336,-0.218,0.817,0.533
93535,1755586366361,12.59,57.12,5.26,822,771,852,879,874,34.48275862068966,-0.222,0.82,0.543
93565,1755586366391,12.66,57.22,5.22,817,770,847,881,869,33.333333333333336,-0.224,0.818,0.545
93594,1755586366420,12.68,57.25,5.25,827,772,839,875,868,34.48275862068966,-0.226,0.817,0.537
93624,1755586366450,12.66,57.18,5.27,819,768,823,884,888,33.333333333333336,-0.224,0.819,0.535
93653,1755586366479,12.66,57.16,5.22,825,762,854,871,876,34.48275862068966,-0.219,0.821,0.538
93683,1755586366508,12.65,57.22,5.21,818,764,853,877,869,33.333333333333336,-0.22,0.822,0.537
93712,1755586366538,12.63,57.19,5.17,814,776,841,879,875,34.48275862068966,-0.221,0.819,0.538
93742,1755586366567,12.65,57.15,5.1,825,768,845,878,874,33.333333333333336,-0.223,0.816,0.54
93771,1755586366597,12.64,57.14,5.17,818,764,857,880,860,34.48275862068966,-0.231,0.816,0.537
93801,1755586366626,12.65,57.1,5.21,818,776,842,880,873,33.333333333333336,-0.23,0.817,0.539
93830,1755586366656,12.73,57.08,5.2,817,774,847,881,879,34.48275862068966,-0.228,0.818,0.544
93860,1755586366686,12.76,57.08,5.24,810,767,846,873,872,33.333333333333336,-0.225,0.817,0.544
93889,1755586366715,12.73,57.08,5.25,816,768,839,881,866,34.48275862068966,-0.216,0.819,0.545
93919,1755586366744,12.77,57.08,5.08,816,777,838,880,878,33.333333333333336,-0.213,0.819,0.532
93948,1755586366774,12.76,57.02,5.0,814,775,853,874,874,34.48275862068966,-0.223,0.819,0.533
93978,1755586366803,12.7,56.96,5.03,817,782,850,874,870,33.333333333333336,-0.225,0.819,0.551
94007,1755586366833,12.82,57.06,4.99,817,763,837,872,869,34.48275862068966,-0.226,0.817,0.553
94036,1755586366862,12.84,57.1,5.03,816,771,853,880,872,34.48275862068966,-0.223,0.816,0.537
94066,1755586366891,12.8,56.98,4.97,823,769,850,873,868,33.333333333333336,-0.219,0.818,0.532
94095,1755586366921,12.79,56.93,4.89,815,770,846,885,868,34.48275862068966,-0.222,0.819,0.54
94125,1755586366950,12.81,56.93,4.86,814,773,840,875,873,33.333333333333336,-0.228,0.819,0.545
94154,1755586366980,12.86,56.99,4.86,821,765,841,877,872,34.48275862068966,-0.226,0.816,0.543
94183,1755586367009,12.9,56.92,4.79,824,774,844,880,876,34.48275862068966,-0.224,0.814,0.536
94213,1755586367039,12.91,56.85,4.76,819,776,836,874,870,33.333333333333336,-0.228,0.816,0.539
94242,1755586367068,12.91,56.87,4.73,822,768,841,877,878,34.48275862068966,-0.226,0.817,0.551
94272,1755586367098,12.95,56.96,4.63,819,772,844,872,871,33.333333333333336,-0.225,0.813,0.549
94301,1755586367127,12.97,56.9,4.54,810,774,845,877,876,34.48275862068966,-0.229,0.811,0.533
94331,1755586367156,12.93,56.76,4.48,821,773,844,866,871,33.333333333333336,-0.233,0.815,0.53
94360,1755586367185,12.94,56.73,4.32,819,772,849,876,873,34.48275862068966,-0.234,0.818,0.539
94389,1755586367216,12.95,56.73,4.27,821,772,834,874,879,34.48275862068966,-0.244,0.812,0.546
94410,1755586367235,12.95,56.72,4.32,822,769,856,873,869,47.61904761904762,-0.247,0.807,0.553
94439,1755586367265,13.0,56.72,4.34,823,773,843,893,872,34.48275862068966,-0.243,0.808,0.554
94468,1755586367294,13.05,56.78,4.37,816,772,836,886,875,34.48275862068966,-0.235,0.812,0.547
94498,1755586367323,13.06,56.76,4.27,821,776,843,881,876,33.333333333333336,-0.227,0.815,0.544
94527,1755586367353,13.07,56.72,4.13,820,779,832,867,872,34.48275862068966,-0.237,0.811,0.542
94557,1755586367383,13.08,56.66,4.15,819,773,851,871,872,33.333333333333336,-0.244,0.809,0.54
94586,1755586367412,13.12,56.42,4.21,820,764,837,884,869,34.48275862068966,-0.249,0.805,0.54
94616,1755586367442,13.14,56.33,4.29,819,774,838,882,870,33.333333333333336,-0.252,0.811,0.545
94645,1755586367471,13.15,56.35,4.29,812,769,844,874,884,34.48275862068966,-0.241,0.81,0.552
94675,1755586367501,13.16,56.37,4.28,815,765,853,881,878,33.333333333333336,-0.241,0.807,0.554
94704,1755586367530,13.16,56.34,4.28,819,764,850,878,862,34.48275862068966,-0.239,0.805,0.556
94734,1755586367560,13.2,56.36,4.27,826,763,836,877,869,33.333333333333336,-0.238,0.808,0.55
94764,1755586367589,13.19,56.36,4.26,822,766,841,873,871,33.333333333333336,-0.24,0.812,0.544
94793,1755586367619,13.23,56.3,4.26,823,773,837,885,869,34.48275862068966,-0.245,0.809,0.547
94822,1755586367648,13.26,56.25,4.28,818,776,855,885,868,34.48275862068966,-0.237,0.807,0.55
94852,1755586367677,13.29,56.23,4.26,817,774,852,879,876,33.333333333333336,-0.232,0.81,0.552
94881,1755586367707,13.29,56.19,4.19,816,769,844,873,877,34.48275862068966,-0.231,0.808,0.555
94911,1755586367737,13.28,56.24,4.19,818,768,841,879,873,33.333333333333336,-0.234,0.806,0.56
94940,1755586367766,13.33,56.32,4.12,821,761,845,879,870,34.48275862068966,-0.237,0.808,0.55
94970,1755586367796,13.35,56.35,4.08,817,764,836,876,871,33.333333333333336,-0.244,0.807,0.542
95000,1755586367825,13.33,56.29,4.12,816,772,846,883,874,33.333333333333336,-0.246,0.805,0.546
95029,1755586367855,13.39,56.25,4.09,818,770,844,882,878,34.48275862068966,-0.246,0.803,0.548
95059,1755586367884,13.36,56.26,4.19,823,789,848,875,870,33.333333333333336,-0.245,0.805,0.551
95088,1755586367914,13.35,56.28,4.16,819,776,859,883,875,34.48275862068966,-0.233,0.809,0.551
95117,1755586367943,13.35,56.28,4.03,821,775,833,880,881,34.48275862068966,-0.231,0.807,0.545
95147,1755586367973,13.32,56.24,4.03,819,767,847,873,874,33.333333333333336,-0.24,0.808,0.545
95177,1755586368003,13.36,56.25,4.03,818,771,842,881,869,33.333333333333336,-0.241,0.81,0.554
95206,1755586368032,13.41,56.3,4.0,818,777,848,875,899,34.48275862068966,-0.236,0.808,0.554
95236,1755586368061,13.4,56.25,3.96,817,779,849,880,866,33.333333333333336,-0.23,0.808,0.551
95265,1755586368091,13.37,56.19,3.88,815,770,837,873,872,34.48275862068966,-0.231,0.808,0.548
95294,1755586368120,13.4,56.1,3.73,815,776,845,875,866,34.48275862068966,-0.237,0.806,0.549
95324,1755586368150,13.39,56.06,3.72,821,775,850,883,882,33.333333333333336,-0.241,0.806,0.556
95354,1755586368180,13.44,56.1,3.66,821,768,842,873,872,33.333333333333336,-0.245,0.804,0.563
95383,1755586368209,13.47,56.17,3.71,819,774,843,882,871,34.48275862068966,-0.249,0.8,0.561
95413,1755586368239,13.46,56.24,3.76,812,767,838,877,868,33.333333333333336,-0.242,0.804,0.557
95443,1755586368268,13.51,56.28,3.7,819,769,848,877,870,33.333333333333336,-0.24,0.806,0.547
95472,1755586368297,13.47,56.2,3.64,819,768,853,879,875,34.48275862068966,-0.237,0.804,0.547
95501,1755586368327,13.47,56.17,3.59,817,762,854,876,872,34.48275862068966,-0.242,0.806,0.55
95531,1755586368356,13.49,56.17,3.53,818,770,842,869,871,33.333333333333336,-0.246,0.804,0.551
95560,1755586368386,13.51,56.15,3.54,814,772,855,874,879,34.48275862068966,-0.252,0.801,0.551
95590,1755586368416,13.52,56.12,3.59,817,760,845,878,873,33.333333333333336,-0.252,0.8,0.554
95619,1755586368445,13.53,56.1,3.58,818,771,840,872,872,34.48275862068966,-0.246,0.803,0.554
95649,1755586368474,13.53,56.1,3.55,822,774,841,879,875,33.333333333333336,-0.243,0.805,0.549
95678,1755586368504,13.47,56.06,3.56,817,772,831,875,876,34.48275862068966,-0.243,0.803,0.554
95707,1755586368533,13.47,56.09,3.51,824,761,843,880,877,34.48275862068966,-0.243,0.803,0.557
95737,1755586368562,13.45,56.11,3.52,818,760,848,870,875,33.333333333333336,-0.245,0.803,0.554
95766,1755586368592,13.44,56.11,3.5,815,774,844,880,861,34.48275862068966,-0.242,0.804,0.558
95795,1755586368621,13.43,56.2,3.44,824,773,838,867,868,34.48275862068966,-0.237,0.804,0.558
95825,1755586368651,13.42,56.2,3.39,817,771,839,877,867,33.333333333333336,-0.245,0.804,0.55
95855,1755586368680,13.4,56.2,3.4,824,773,831,876,882,33.333333333333336,-0.247,0.804,0.55
95884,1755586368710,13.44,56.28,3.36,818,769,833,881,872,34.48275862068966,-0.245,0.802,0.556
95913,1755586368739,13.53,56.37,3.31,822,768,848,877,871,34.48275862068966,-0.249,0.804,0.552
95943,1755586368769,13.64,56.41,3.33,818,769,843,878,877,33.333333333333336,-0.245,0.8,0.559
95972,1755586368798,13.95,56.76,3.24,820,782,849,885,877,34.48275862068966,-0.252,0.802,0.561
96002,1755586368828,14.25,57.16,3.24,819,769,850,877,869,33.333333333333336,-0.257,0.804,0.553
96032,1755586368857,14.41,57.35,3.23,821,773,840,879,869,33.333333333333336,-0.26,0.807,0.552
96061,1755586368887,14.41,57.43,3.34,825,769,858,869,872,34.48275862068966,-0.253,0.807,0.544
96090,1755586368916,14.38,57.38,3.37,818,769,841,873,864,34.48275862068966,-0.248,0.81,0.54
96120,1755586368945,14.39,57.47,3.36,819,768,841,880,867,33.333333333333336,-0.248,0.817,0.535
96149,1755586368975,14.37,57.46,3.33,824,773,843,872,871,34.48275862068966,-0.254,0.817,0.524
96178,1755586369004,14.31,57.31,3.4,831,780,841,881,872,34.48275862068966,-0.259,0.813,0.523
96208,1755586369033,14.35,57.33,3.47,816,774,860,876,874,33.333333333333336,-0.259,0.816,0.53
96237,1755586369063,14.39,57.43,3.48,818,763,843,874,871,34.48275862068966,-0.255,0.821,0.524
96266,1755586369092,14.34,57.32,3.51,821,776,844,876,868,34.48275862068966,-0.252,0.818,0.518
96296,1755586369122,14.36,57.3,3.43,822,771,839,876,867,33.333333333333336,-0.249,0.819,0.534
96325,1755586369151,14.47,57.58,3.42,823,774,851,881,865,34.48275862068966,-0.252,0.821,0.539
96355,1755586369180,14.5,57.64,3.43,821,772,833,883,874,33.333333333333336,-0.253,0.819,0.52
96384,1755586369210,14.42,57.51,3.46,819,774,866,884,868,34.48275862068966,-0.251,0.82,0.516
96413,1755586369239,14.45,57.55,3.42,817,768,843,871,876,34.48275862068966,-0.254,0.822,0.534
96443,1755586369269,14.52,57.71,3.43,819,764,834,880,869,33.333333333333336,-0.254,0.821,0.534
96473,1755586369298,14.5,57.65,3.44,816,759,850,879,868,33.333333333333336,-0.252,0.818,0.526
96502,1755586369328,14.41,57.53,3.44,819,768,846,881,888,34.48275862068966,-0.249,0.822,0.526
96531,1755586369357,14.42,57.53,3.39,820,777,850,875,876,34.48275862068966,-0.255,0.826,0.529
96561,1755586369387,14.42,57.53,3.39,818,777,841,873,872,33.333333333333336,-0.256,0.82,0.532
96590,1755586369416,14.44,57.51,3.43,817,763,836,879,867,34.48275862068966,-0.255,0.817,0.529
96620,1755586369446,14.39,57.48,3.45,820,772,844,879,873,33.333333333333336,-0.249,0.82,0.527
96650,1755586369475,14.36,57.44,3.39,824,771,847,876,876,33.333333333333336,-0.248,0.82,0.53
96679,1755586369505,14.37,57.44,3.34,819,766,843,876,873,34.48275862068966,-0.255,0.817,0.531
96709,1755586369534,14.37,57.42,3.38,817,770,848,876,873,33.333333333333336,-0.258,0.818,0.528
96738,1755586369564,14.33,57.41,3.4,817,766,848,874,865,34.48275862068966,-0.252,0.819,0.53
96768,1755586369593,14.32,57.46,3.36,823,762,850,876,870,33.333333333333336,-0.249,0.819,0.532
96797,1755586369623,14.35,57.5,3.32,819,771,845,869,878,34.48275862068966,-0.252,0.818,0.53
96826,1755586369652,14.36,57.43,3.31,825,772,847,882,872,34.48275862068966,-0.255,0.816,0.527
96856,1755586369681,14.44,57.46,3.26,821,770,837,878,869,33.333333333333336,-0.255,0.819,0.534
96885,1755586369711,14.53,57.59,3.26,824,770,849,879,874,34.48275862068966,-0.256,0.819,0.53
96914,1755586369740,14.48,57.5,3.32,812,772,848,879,875,34.48275862068966,-0.253,0.815,0.52
96944,1755586369769,14.49,57.44,3.26,818,772,840,885,868,33.333333333333336,-0.251,0.819,0.526
96973,1755586369799,14.5,57.48,3.27,813,767,839,892,871,34.48275862068966,-0.256,0.822,0.527
97003,1755586369828,14.45,57.35,3.29,818,768,838,875,869,33.333333333333336,-0.255,0.818,0.525
97032,1755586369858,14.44,57.33,3.3,818,770,847,885,871,34.48275862068966,-0.252,0.821,0.534
97062,1755586369888,14.47,57.44,3.26,820,772,843,893,860,33.333333333333336,-0.253,0.821,0.532
97091,1755586369917,14.48,57.42,3.27,823,773,842,875,867,34.48275862068966,-0.258,0.82,0.524
97121,1755586369946,14.4,57.28,3.31,819,774,828,875,881,33.333333333333336,-0.253,0.818,0.523
97150,1755586369976,14.38,57.32,3.3,820,768,847,887,864,34.48275862068966,-0.247,0.82,0.537
97180,1755586370005,14.48,57.45,3.2,826,777,840,880,867,33.333333333333336,-0.249,0.818,0.532
97209,1755586370035,14.47,57.42,3.2,822,766,841,879,871,34.48275862068966,-0.255,0.814,0.523
97239,1755586370064,14.44,57.38,3.25,822,766,839,880,870,33.333333333333336,-0.256,0.817,0.531
97268,1755586370094,14.48,57.53,3.26,822,772,833,873,870,34.48275862068966,-0.251,0.821,0.54
97297,1755586370123,14.55,57.64,3.2,820,770,852,864,872,34.48275862068966,-0.248,0.82,0.53
97327,1755586370153,14.48,57.54,3.2,817,772,847,873,863,33.333333333333336,-0.248,0.814,0.52
97356,1755586370182,14.46,57.4,3.18,813,772,851,883,869,34.48275862068966,-0.255,0.816,0.524
97386,1755586370211,14.48,57.41,3.22,820,766,835,879,865,33.333333333333336,-0.259,0.819,0.533
97415,1755586370241,14.54,57.51,3.23,818,771,836,884,875,34.48275862068966,-0.256,0.818,0.537
97444,1755586370270,14.56,57.59,3.24,818,770,822,876,872,34.48275862068966,-0.251,0.816,0.525
97474,1755586370300,14.48,57.49,3.25,823,773,839,874,869,33.333333333333336,-0.249,0.819,0.521
97503,1755586370329,14.45,57.45,3.19,823,768,844,878,872,34.48275862068966,-0.249,0.821,0.533
97533,1755586370358,14.5,57.53,3.14,822,773,842,872,874,33.333333333333336,-0.252,0.818,0.53
97562,1755586370388,14.5,57.52,3.17,821,769,862,870,871,34.48275862068966,-0.252,0.818,0.523
97591,1755586370417,14.46,57.46,3.22,819,762,842,876,872,34.48275862068966,-0.249,0.82,0.526
97621,1755586370447,14.47,57.5,3.15,820,773,839,872,881,33.333333333333336,-0.25,0.822,0.531
97650,1755586370476,14.49,57.54,3.13,808,775,836,880,871,34.48275862068966,-0.253,0.817,0.529
97680,1755586370505,14.46,57.51,3.22,825,770,844,879,868,33.333333333333336,-0.253,0.817,0.527
97709,1755586370535,14.46,57.5,3.19,811,768,845,881,867,34.48275862068966,-0.249,0.821,0.529
97738,1755586370564,14.47,57.53,3.14,820,762,847,873,871,34.48275862068966,-0.248,0.819,0.531
97768,1755586370594,14.46,57.51,3.17,823,775,840,875,873,33.333333333333336,-0.254,0.815,0.531
97797,1755586370624,14.46,57.55,3.23,816,769,842,878,851,34.48275862068966,-0.255,0.817,0.531
97818,1755586370643,14.48,57.56,3.24,817,770,838,876,877,47.61904761904762,-0.25,0.821,0.529
97847,1755586370673,14.45,57.51,3.2,819,773,846,880,872,34.48275862068966,-0.245,0.819,0.527
97876,1755586370702,14.46,57.53,3.15,821,775,844,869,866,34.48275862068966,-0.249,0.821,0.527
97906,1755586370732,14.47,57.49,3.14,818,765,844,873,862,33.333333333333336,-0.258,0.815,0.522
97935,1755586370761,14.44,57.39,3.22,819,774,848,875,869,34.48275862068966,-0.259,0.815,0.525
97965,1755586370790,14.45,57.41,3.2,821,768,840,879,861,33.333333333333336,-0.253,0.821,0.538
97994,1755586370820,14.5,57.49,3.16,817,771,842,870,869,34.48275862068966,-0.25,0.817,0.538
98023,1755586370850,14.5,57.5,3.18,818,772,841,888,868,34.48275862068966,-0.25,0.816,0.526
98053,1755586370879,14.44,57.38,3.19,823,769,838,892,866,33.333333333333336,-0.251,0.819,0.531
98083,1755586370909,14.47,57.42,3.15,820,771,837,891,860,33.333333333333336,-0.253,0.821,0.536
98112,1755586370938,14.5,57.42,3.14,813,768,841,872,875,34.48275862068966,-0.253,0.814,0.528
98142,1755586370968,14.46,57.38,3.18,817,766,839,877,871,33.333333333333336,-0.251,0.818,0.528
98172,1755586370998,14.44,57.36,3.13,818,778,848,882,865,33.333333333333336,-0.25,0.818,0.536
98201,1755586371027,14.47,57.43,3.14,819,769,843,876,871,34.48275862068966,-0.251,0.817,0.539
98231,1755586371057,14.49,57.46,3.13,821,775,843,892,870,33.333333333333336,-0.248,0.814,0.534
98260,1755586371086,14.47,57.44,3.09,818,762,847,876,871,34.48275862068966,-0.246,0.816,0.533
98290,1755586371115,14.47,57.48,3.06,818,776,848,879,872,33.333333333333336,-0.25,0.817,0.536
98319,1755586371145,14.5,57.53,3.08,823,763,847,881,870,34.48275862068966,-0.254,0.815,0.532
98348,1755586371174,14.52,57.53,3.11,816,767,840,877,872,34.48275862068966,-0.254,0.816,0.526
98378,1755586371204,14.5,57.47,3.14,820,768,840,880,874,33.333333333333336,-0.252,0.818,0.524
98407,1755586371233,14.5,57.44,3.1,818,774,846,885,870,34.48275862068966,-0.248,0.82,0.529
98437,1755586371263,14.52,57.46,3.04,818,773,841,869,868,33.333333333333336,-0.247,0.818,0.531
98466,1755586371292,14.53,57.42,3.01,813,775,836,881,876,34.48275862068966,-0.25,0.816,0.531
98496,1755586371322,14.51,57.39,3.0,824,771,846,872,867,33.333333333333336,-0.251,0.816,0.533
98526,1755586371352,14.52,57.47,2.98,810,770,819,875,869,33.333333333333336,-0.255,0.817,0.53
98555,1755586371381,14.53,57.46,2.98,818,772,855,877,867,34.48275862068966,-0.258,0.816,0.526
98585,1755586371410,14.51,57.36,3.04,817,770,842,866,870,33.333333333333336,-0.254,0.815,0.53
98614,1755586371440,14.55,57.37,2.98,819,772,845,872,870,34.48275862068966,-0.252,0.817,0.533
98643,1755586371469,14.52,57.39,3.01,807,763,846,873,868,34.48275862068966,-0.252,0.814,0.535
98673,1755586371499,14.53,57.37,3.02,817,774,834,869,859,33.333333333333336,-0.253,0.813,0.537
98703,1755586371528,14.53,57.4,2.95,822,765,845,872,864,33.333333333333336,-0.248,0.813,0.536
98732,1755586371558,14.5,57.41,2.97,811,771,843,877,873,34.48275862068966,-0.25,0.812,0.529
98761,1755586371587,14.47,57.33,2.98,810,765,846,872,875,34.48275862068966,-0.252,0.815,0.529
98791,1755586371616,14.48,57.33,2.95,818,772,840,882,868,33.333333333333336,-0.254,0.818,0.539
98820,1755586371646,14.51,57.43,2.97,820,773,844,869,867,34.48275862068966,-0.253,0.817,0.542
98849,1755586371675,14.5,57.47,2.96,818,770,835,876,870,34.48275862068966,-0.247,0.814,0.535
98879,1755586371704,14.49,57.46,2.92,820,774,854,884,870,33.333333333333336,-0.245,0.814,0.53
98908,1755586371734,14.48,57.44,2.89,820,773,858,879,883,34.48275862068966,-0.25,0.819,0.531
98938,1755586371763,14.54,57.5,2.88,818,780,828,877,871,33.333333333333336,-0.257,0.817,0.53
98967,1755586371793,14.57,57.47,2.91,820,773,840,874,874,34.48275862068966,-0.26,0.813,0.525
98996,1755586371822,14.55,57.36,2.95,814,767,836,883,874,34.48275862068966,-0.256,0.814,0.526
99026,1755586371851,14.55,57.35,2.98,819,777,865,874,866,33.333333333333336,-0.253,0.818,0.532
99055,1755586371881,14.58,57.39,2.97,820,769,840,878,865,34.48275862068966,-0.252,0.817,0.535
99085,1755586371910,14.6,57.38,2.94,820,773,837,871,878,33.333333333333336,-0.249,0.815,0.537
99114,1755586371940,14.6,57.41,2.95,818,773,842,877,869,34.48275862068966,-0.245,0.817,0.535
99144,1755586371969,14.62,57.41,2.88,815,773,837,875,868,33.333333333333336,-0.248,0.817,0.532
99173,1755586371999,14.62,57.39,2.85,816,764,840,872,882,34.48275862068966,-0.252,0.816,0.527
99202,1755586372028,14.59,57.32,2.88,818,776,840,875,875,34.48275862068966,-0.254,0.817,0.53
99232,1755586372057,14.61,57.38,2.86,819,773,841,881,864,33.333333333333336,-0.251,0.818,0.539
99261,1755586372087,14.62,57.45,2.86,811,777,840,879,876,34.48275862068966,-0.25,0.815,0.533
99290,1755586372116,14.61,57.39,2.8,824,773,848,888,863,34.48275862068966,-0.248,0.816,0.528
99320,1755586372146,14.61,57.34,2.74,813,773,846,883,873,33.333333333333336,-0.252,0.817,0.531
99349,1755586372175,14.6,57.35,2.74,820,770,849,877,871,34.48275862068966,-0.256,0.815,0.534
99379,1755586372204,14.64,57.37,2.74,814,771,840,879,865,33.333333333333336,-0.257,0.813,0.534
99408,1755586372234,14.62,57.37,2.73,815,762,861,877,870,34.48275862068966,-0.249,0.815,0.528
99438,1755586372264,14.57,57.28,2.63,819,769,840,884,878,33.333333333333336,-0.25,0.814,0.526
99467,1755586372293,14.53,57.23,2.6,822,767,843,884,863,34.48275862068966,-0.258,0.812,0.536
99497,1755586372323,14.54,57.3,2.64,824,776,846,886,872,33.333333333333336,-0.259,0.814,0.543
99526,1755586372352,14.57,57.41,2.61,814,766,850,881,873,34.48275862068966,-0.253,0.815,0.536
99556,1755586372382,14.56,57.35,2.57,816,771,844,865,875,33.333333333333336,-0.254,0.815,0.523
99586,1755586372411,14.54,57.26,2.56,820,771,835,881,873,33.333333333333336,-0.26,0.815,0.53
99615,1755586372441,14.55,57.27,2.59,812,772,845,876,865,34.48275862068966,-0.263,0.817,0.537
99645,1755586372470,14.6,57.35,2.63,817,775,845,890,869,33.333333333333336,-0.26,0.814,0.537
99674,1755586372500,14.62,57.31,2.67,818,775,836,883,872,34.48275862068966,-0.254,0.811,0.531
99703,1755586372529,14.56,57.2,2.69,815,772,846,879,869,34.48275862068966,-0.248,0.815,0.531
99733,1755586372558,14.52,57.18,2.65,820,768,857,875,866,33.333333333333336,-0.248,0.817,0.54
99762,1755586372588,14.56,57.28,2.62,816,771,842,874,870,34.48275862068966,-0.255,0.813,0.548
99791,1755586372617,14.61,57.34,2.64,820,774,839,883,869,34.48275862068966,-0.256,0.81,0.538
99821,1755586372646,14.62,57.27,2.67,819,764,846,871,872,33.333333333333336,-0.254,0.813,0.526
99850,1755586372676,14.63,57.19,2.63,814,773,830,881,892,34.48275862068966,-0.255,0.815,0.529
99880,1755586372705,14.67,57.18,2.63,817,767,846,874,869,33.333333333333336,-0.258,0.814,0.538
99909,1755586372734,14.71,57.24,2.69,817,767,849,879,878,34.48275862068966,-0.256,0.814,0.542
99938,1755586372764,14.72,57.27,2.71,824,767,843,876,868,34.48275862068966,-0.247,0.814,0.537
99968,1755586372794,14.72,57.28,2.65,818,766,860,882,867,33.333333333333336,-0.248,0.815,0.532
99997,1755586372824,14.72,57.25,2.67,822,759,844,877,875,34.48275862068966,-0.257,0.814,0.531
100017,1755586372843,14.73,57.24,2.7,819,770,842,891,868,50.0,-0.26,0.815,0.532
100047,1755586372872,14.74,57.27,2.74,817,767,845,885,859,33.333333333333336,-0.259,0.816,0.531
100076,1755586372902,14.72,57.25,2.75,820,768,840,880,871,34.48275862068966,-0.255,0.815,0.532
100105,1755586372932,14.7,57.26,2.76,822,769,845,875,868,34.48275862068966,-0.255,0.813,0.538
100135,1755586372961,14.69,57.31,2.86,818,764,843,875,863,33.333333333333336,-0.253,0.812,0.54
100164,1755586372990,14.75,57.35,2.81,818,772,844,879,861,34.48275862068966,-0.253,0.813,0.535
100194,1755586373020,14.75,57.39,2.87,822,775,845,869,860,33.333333333333336,-0.256,0.812,0.525
100224,1755586373049,14.75,57.33,2.84,821,773,834,881,865,33.333333333333336,-0.258,0.815,0.529
100253,1755586373079,14.78,57.37,2.83,815,769,845,872,870,34.48275862068966,-0.259,0.816,0.53
100283,1755586373108,14.78,57.38,2.9,819,771,833,883,877,33.333333333333336,-0.259,0.816,0.529
100312,1755586373138,14.79,57.33,2.94,825,773,844,871,867,34.48275862068966,-0.255,0.816,0.529
100341,1755586373167,14.8,57.3,2.93,822,766,828,879,871,34.48275862068966,-0.251,0.817,0.529
100371,1755586373197,14.79,57.28,2.93,815,769,840,865,869,33.333333333333336,-0.251,0.819,0.533
100401,1755586373226,14.78,57.3,2.92,818,768,855,872,868,33.333333333333336,-0.245,0.818,0.535
100430,1755586373256,14.77,57.32,2.89,820,774,844,876,869,34.48275862068966,-0.246,0.817,0.531
100459,1755586373285,14.71,57.29,2.93,816,775,843,871,870,34.48275862068966,-0.248,0.818,0.53
100489,1755586373315,14.69,57.28,2.88,822,770,845,873,870,33.333333333333336,-0.245,0.819,0.536
100518,1755586373344,14.69,57.35,2.85,817,773,868,867,871,34.48275862068966,-0.247,0.818,0.534
100548,1755586373374,14.67,57.28,2.85,824,771,838,886,865,33.333333333333336,-0.251,0.815,0.528
100577,1755586373403,14.68,57.24,2.88,816,765,840,876,869,34.48275862068966,-0.253,0.817,0.531
100607,1755586373432,14.67,57.25,2.89,820,770,844,877,865,33.333333333333336,-0.25,0.818,0.535
100636,1755586373462,14.68,57.28,2.87,813,762,839,870,868,34.48275862068966,-0.252,0.816,0.537
100666,1755586373492,14.69,57.32,2.9,816,774,841,872,881,33.333333333333336,-0.249,0.813,0.533
100696,1755586373521,14.65,57.26,2.92,815,766,856,869,873,33.333333333333336,-0.247,0.815,0.53
100725,1755586373551,14.62,57.2,2.86,815,768,831,879,857,34.48275862068966,-0.247,0.816,0.533
100755,1755586373580,14.62,57.2,2.82,811,769,844,883,870,33.333333333333336,-0.254,0.813,0.537
100784,1755586373610,14.62,57.23,2.85,820,769,840,888,862,34.48275862068966,-0.256,0.813,0.534
100813,1755586373639,14.57,57.22,2.9,817,774,837,873,871,34.48275862068966,-0.251,0.815,0.53
100843,1755586373669,14.52,57.17,2.88,819,772,851,870,869,33.333333333333336,-0.247,0.814,0.537
100872,1755586373698,14.54,57.21,2.86,818,766,847,869,872,34.48275862068966,-0.25,0.816,0.543
100902,1755586373728,14.56,57.29,2.89,814,765,837,879,868,33.333333333333336,-0.247,0.816,0.542
100931,1755586373757,14.58,57.34,2.86,818,765,840,866,867,34.48275862068966,-0.243,0.818,0.538
100961,1755586373787,14.58,57.35,2.8,818,776,833,878,872,33.333333333333336,-0.24,0.817,0.532
100990,1755586373816,14.58,57.37,2.78,823,767,845,878,873,34.48275862068966,-0.246,0.815,0.533
101020,1755586373845,14.58,57.36,2.8,817,770,846,877,864,33.333333333333336,-0.251,0.815,0.535
101049,1755586373875,14.6,57.31,2.78,817,770,844,878,860,34.48275862068966,-0.25,0.812,0.535
101079,1755586373904,14.61,57.3,2.8,819,776,839,876,869,33.333333333333336,-0.25,0.813,0.534
101108,1755586373934,14.59,57.31,2.77,817,775,840,891,873,34.48275862068966,-0.247,0.816,0.535
101137,1755586373964,14.59,57.36,2.73,824,776,845,876,868,34.48275862068966,-0.25,0.815,0.533
101167,1755586373993,14.58,57.34,2.72,820,759,847,879,875,33.333333333333336,-0.253,0.812,0.534
101197,1755586374023,14.61,57.41,2.76,816,766,843,874,870,33.333333333333336,-0.256,0.814,0.537
101226,1755586374052,14.62,57.48,2.79,817,768,850,882,866,34.48275862068966,-0.253,0.816,0.535
101256,1755586374082,14.64,57.49,2.82,819,772,844,874,870,33.333333333333336,-0.253,0.815,0.533
101286,1755586374111,14.62,57.47,2.94,815,762,851,881,874,33.333333333333336,-0.254,0.815,0.534
101315,1755586374140,14.66,57.42,2.97,819,765,846,871,887,34.48275862068966,-0.248,0.815,0.534
101344,1755586374170,14.79,57.44,2.96,818,770,846,874,873,34.48275862068966,-0.253,0.817,0.531
101374,1755586374200,14.84,57.39,3.07,822,772,845,880,877,33.333333333333336,-0.254,0.819,0.526
101403,1755586374229,14.89,57.28,3.06,823,775,836,870,875,34.48275862068966,-0.247,0.82,0.526
101433,1755586374258,14.91,57.29,3.03,820,771,838,876,866,33.333333333333336,-0.244,0.821,0.531
101462,1755586374288,14.91,57.29,3.08,822,772,840,873,875,34.48275862068966,-0.245,0.818,0.535
101491,1755586374317,14.92,57.32,3.1,820,766,844,879,877,34.48275862068966,-0.243,0.819,0.533
101521,1755586374347,14.89,57.31,3.07,819,765,843,873,876,33.333333333333336,-0.242,0.82,0.531
101550,1755586374376,14.88,57.27,3.05,816,766,844,873,872,34.48275862068966,-0.247,0.817,0.534
101579,1755586374406,14.91,57.33,3.1,818,771,840,880,874,34.48275862068966,-0.252,0.817,0.537
101609,1755586374435,14.95,57.39,3.13,822,771,842,875,897,33.333333333333336,-0.25,0.817,0.535
101638,1755586374464,14.96,57.41,3.14,821,776,840,872,872,34.48275862068966,-0.246,0.82,0.529
101668,1755586374494,14.95,57.37,3.13,819,770,849,878,868,33.333333333333336,-0.245,0.819,0.53
101688,1755586374514,14.96,57.34,3.12,815,766,838,876,874,50.0,-0.247,0.817,0.531
101717,1755586374543,15.01,57.35,3.11,819,772,850,872,877,34.48275862068966,-0.252,0.819,0.53
101747,1755586374573,15.06,57.38,3.15,820,765,846,872,865,33.333333333333336,-0.253,0.817,0.53
101776,1755586374602,15.09,57.38,3.18,818,769,853,868,857,34.48275862068966,-0.252,0.818,0.529
101806,1755586374632,15.08,57.36,3.22,820,766,843,880,867,33.333333333333336,-0.248,0.818,0.526
101835,1755586374661,15.03,57.33,3.2,819,770,835,876,868,34.48275862068966,-0.245,0.82,0.525
101865,1755586374691,15.0,57.29,3.15,812,770,840,871,876,33.333333333333336,-0.247,0.82,0.529
101894,1755586374720,14.97,57.25,3.13,823,770,859,873,874,34.48275862068966,-0.249,0.818,0.53
101924,1755586374750,14.92,57.19,3.09,820,772,841,867,873,33.333333333333336,-0.246,0.818,0.529
101953,1755586374779,14.78,57.11,3.06,814,758,830,872,893,34.48275862068966,-0.244,0.82,0.528
101983,1755586374808,14.58,56.99,2.96,814,772,843,883,887,33.333333333333336,-0.242,0.816,0.534
102012,1755586374838,14.55,57.07,2.97,814,768,838,878,870,34.48275862068966,-0.249,0.815,0.54
102042,1755586374868,14.52,57.09,3.0,819,768,842,877,868,33.333333333333336,-0.252,0.815,0.533
