timestamp_ms,recv_timestamp_ms,pitch,roll,yaw,flex1,flex2,flex3,flex4,flex5,sampling_hz,accel_x,accel_y,accel_z
71992,1755586900059,13.14,62.18,27.82,803,825,795,819,812,34.48275862068966,-0.23,0.863,0.458
72022,1755586900088,13.12,62.13,27.79,801,833,790,822,808,33.333333333333336,-0.227,0.863,0.461
72051,1755586900118,13.09,62.09,27.79,802,828,795,820,812,34.48275862068966,-0.226,0.862,0.464
72081,1755586900148,13.09,62.08,27.83,797,832,795,820,810,33.333333333333336,-0.226,0.86,0.467
72110,1755586900177,13.07,62.07,27.87,800,832,794,824,804,34.48275862068966,-0.225,0.86,0.463
72140,1755586900207,13.05,62.04,27.86,798,838,788,825,819,33.333333333333336,-0.226,0.861,0.462
72170,1755586900237,13.03,62.03,27.91,800,842,794,812,805,33.333333333333336,-0.229,0.863,0.464
72199,1755586900266,13.01,62.03,27.94,801,839,788,820,836,34.48275862068966,-0.225,0.864,0.466
72229,1755586900296,13.03,62.06,27.97,805,838,803,826,810,33.333333333333336,-0.221,0.864,0.469
72258,1755586900325,13.05,62.08,27.98,799,839,788,819,813,34.48275862068966,-0.22,0.864,0.47
72288,1755586900355,13.02,62.11,27.97,802,825,784,816,813,33.333333333333336,-0.216,0.864,0.466
72318,1755586900384,13.01,62.1,27.94,790,836,792,817,810,33.333333333333336,-0.222,0.863,0.462
72347,1755586900414,12.99,62.09,27.98,800,835,780,819,807,34.48275862068966,-0.227,0.864,0.462
72377,1755586900444,13.0,62.11,27.98,807,845,787,821,815,33.333333333333336,-0.227,0.863,0.464
72406,1755586900473,13.0,62.13,28.05,797,832,792,819,808,34.48275862068966,-0.228,0.864,0.463
72435,1755586900503,12.98,62.08,28.1,803,844,794,828,818,34.48275862068966,-0.223,0.861,0.461
72465,1755586900532,12.94,62.05,28.11,802,834,789,822,802,33.333333333333336,-0.218,0.862,0.46
72494,1755586900562,12.89,62.02,28.1,799,834,797,825,830,34.48275862068966,-0.217,0.865,0.464
72524,1755586900591,12.84,62.0,28.08,802,837,791,820,810,33.333333333333336,-0.218,0.862,0.467
72554,1755586900621,12.85,62.0,28.02,798,826,795,817,807,33.333333333333336,-0.219,0.861,0.466
72583,1755586900650,12.86,61.95,27.97,798,827,797,818,809,34.48275862068966,-0.22,0.863,0.458
72612,1755586900679,12.85,61.8,27.87,799,832,783,824,811,34.48275862068966,-0.218,0.864,0.459
72642,1755586900709,12.89,61.81,27.72,795,833,780,812,822,33.333333333333336,-0.221,0.865,0.471
72671,1755586900738,12.89,61.93,27.73,798,835,798,821,812,34.48275862068966,-0.224,0.863,0.472
72700,1755586900767,12.86,61.94,27.77,803,834,783,821,828,34.48275862068966,-0.223,0.859,0.468
72730,1755586900797,12.85,61.94,27.77,801,828,795,821,809,33.333333333333336,-0.226,0.859,0.469
72759,1755586900826,12.87,61.97,27.83,804,829,787,824,812,34.48275862068966,-0.231,0.859,0.473
72789,1755586900856,12.87,62.04,27.9,797,828,789,819,810,33.333333333333336,-0.227,0.861,0.469
72818,1755586900885,12.86,62.06,27.92,797,830,789,828,809,34.48275862068966,-0.224,0.861,0.469
72848,1755586900915,12.87,62.09,27.93,800,828,785,823,797,33.333333333333336,-0.224,0.861,0.472
72877,1755586900944,12.9,62.14,27.91,800,833,785,820,807,34.48275862068966,-0.225,0.861,0.468
72907,1755586900973,12.92,62.19,27.9,799,832,786,828,809,33.333333333333336,-0.226,0.865,0.462
72936,1755586901003,12.94,62.14,27.89,801,826,794,820,805,34.48275862068966,-0.225,0.864,0.461
72965,1755586901033,12.96,62.22,27.89,799,834,791,823,813,34.48275862068966,-0.225,0.864,0.465
72986,1755586901052,12.98,62.26,27.89,794,833,791,823,809,47.61904761904762,-0.228,0.865,0.465
73015,1755586901082,12.98,62.28,27.92,790,832,794,821,802,34.48275862068966,-0.23,0.865,0.46
73044,1755586901111,13.0,62.26,27.93,794,836,794,822,808,34.48275862068966,-0.226,0.863,0.462
73074,1755586901140,13.03,62.28,27.91,798,834,795,822,797,33.333333333333336,-0.227,0.867,0.459
73103,1755586901170,13.02,62.27,27.89,793,833,785,831,804,34.48275862068966,-0.227,0.865,0.459
73132,1755586901200,13.06,62.26,27.9,796,834,788,819,798,34.48275862068966,-0.23,0.865,0.46
73152,1755586901220,13.1,62.26,27.9,798,835,792,827,808,50.0,-0.232,0.865,0.46
73182,1755586901249,13.12,62.23,27.95,798,830,789,819,809,33.333333333333336,-0.234,0.864,0.456
73212,1755586901278,13.08,62.2,28.0,794,831,789,818,808,33.333333333333336,-0.227,0.865,0.456
73241,1755586901308,13.06,62.17,27.97,797,832,787,818,812,34.48275862068966,-0.223,0.865,0.461
73270,1755586901338,13.06,62.19,27.94,795,837,798,816,795,34.48275862068966,-0.224,0.865,0.464
73300,1755586901367,13.03,62.17,27.97,802,838,793,819,811,33.333333333333336,-0.224,0.863,0.461
73330,1755586901397,13.04,62.14,28.0,800,838,797,825,804,33.333333333333336,-0.227,0.867,0.461
73359,1755586901426,13.03,62.17,27.95,794,826,789,819,810,34.48275862068966,-0.223,0.868,0.462
73389,1755586901456,13.01,62.14,27.88,800,834,793,818,807,33.333333333333336,-0.223,0.864,0.46
73418,1755586901485,13.01,62.09,27.89,795,837,801,829,808,34.48275862068966,-0.226,0.863,0.459
73447,1755586901514,12.97,62.06,27.87,794,835,791,817,802,34.48275862068966,-0.224,0.866,0.458
73477,1755586901544,12.97,62.05,27.79,795,834,775,820,816,33.333333333333336,-0.226,0.864,0.459
73506,1755586901573,12.94,62.02,27.81,802,827,785,823,815,34.48275862068966,-0.231,0.864,0.458
73536,1755586901603,12.92,61.94,27.8,793,829,795,826,804,33.333333333333336,-0.232,0.862,0.461
73566,1755586901632,12.91,61.97,27.83,801,832,790,829,803,33.333333333333336,-0.232,0.863,0.467
73595,1755586901662,12.92,61.97,27.83,795,833,780,815,802,34.48275862068966,-0.23,0.863,0.47
73624,1755586901692,12.94,61.97,27.82,795,826,793,812,821,34.48275862068966,-0.228,0.862,0.471
73644,1755586901711,12.97,61.95,27.82,797,843,790,820,815,50.0,-0.229,0.862,0.469
73674,1755586901741,12.98,61.94,27.84,797,830,785,826,819,33.333333333333336,-0.229,0.862,0.467
73703,1755586901770,13.03,61.92,27.78,799,839,785,820,823,34.48275862068966,-0.224,0.861,0.466
73733,1755586901799,13.07,61.92,27.64,795,837,788,817,812,33.333333333333336,-0.225,0.863,0.463
73762,1755586901829,13.13,61.88,27.56,798,830,794,824,809,34.48275862068966,-0.233,0.861,0.461
73791,1755586901858,13.11,61.88,27.67,809,833,796,819,806,34.48275862068966,-0.236,0.859,0.461
73821,1755586901888,13.12,61.88,27.71,799,830,783,821,806,33.333333333333336,-0.239,0.86,0.46
73850,1755586901917,13.15,61.87,27.77,797,835,797,824,812,34.48275862068966,-0.241,0.859,0.459
73879,1755586901946,13.13,61.84,27.84,798,819,786,822,811,34.48275862068966,-0.235,0.858,0.46
73909,1755586901975,13.12,61.81,27.81,802,826,805,822,799,33.333333333333336,-0.23,0.858,0.46
73938,1755586902005,13.04,61.73,27.85,800,827,792,820,804,34.48275862068966,-0.226,0.858,0.464
73967,1755586902034,13.06,61.55,27.67,794,836,792,823,815,34.48275862068966,-0.222,0.859,0.472
73997,1755586902063,13.13,61.55,27.54,795,836,793,819,813,33.333333333333336,-0.227,0.857,0.479
74026,1755586902093,13.14,61.59,27.54,795,835,789,824,814,34.48275862068966,-0.235,0.857,0.469
74055,1755586902122,13.12,61.53,27.58,806,839,797,826,806,34.48275862068966,-0.239,0.857,0.469
74085,1755586902152,13.2,61.58,27.53,798,835,781,824,808,33.333333333333336,-0.24,0.858,0.479
74114,1755586902181,13.27,61.69,27.57,802,833,791,824,816,34.48275862068966,-0.245,0.854,0.474
74144,1755586902211,13.35,61.63,27.68,793,831,796,825,805,33.333333333333336,-0.245,0.852,0.467
74173,1755586902240,13.37,61.55,27.7,796,835,790,819,808,34.48275862068966,-0.235,0.856,0.468
74203,1755586902270,13.37,61.61,27.71,795,832,799,825,811,33.333333333333336,-0.231,0.862,0.468
74232,1755586902299,13.37,61.61,27.64,796,827,790,816,813,34.48275862068966,-0.229,0.861,0.468
74262,1755586902329,13.39,61.61,27.5,802,831,791,821,808,33.333333333333336,-0.234,0.857,0.469
74291,1755586902358,13.37,61.59,27.47,797,839,800,821,813,34.48275862068966,-0.242,0.852,0.463
74321,1755586902388,13.32,61.48,27.5,802,835,796,817,814,33.333333333333336,-0.245,0.852,0.462
74350,1755586902417,13.32,61.44,27.4,797,834,793,817,800,34.48275862068966,-0.242,0.857,0.47
74380,1755586902447,13.3,61.5,27.36,798,832,788,825,807,33.333333333333336,-0.241,0.855,0.47
74409,1755586902476,13.25,61.51,27.38,798,828,794,822,810,34.48275862068966,-0.236,0.854,0.472
74438,1755586902505,13.22,61.51,27.22,800,834,786,816,807,34.48275862068966,-0.231,0.855,0.472
74468,1755586902535,13.17,61.57,27.14,795,846,792,816,806,33.333333333333336,-0.237,0.853,0.466
74497,1755586902564,13.11,61.49,27.17,803,838,783,822,805,34.48275862068966,-0.248,0.851,0.463
74526,1755586902593,13.21,61.32,27.02,789,836,790,817,808,34.48275862068966,-0.25,0.848,0.465
74556,1755586902623,13.29,61.33,27.07,800,835,795,821,806,33.333333333333336,-0.259,0.849,0.473
74585,1755586902652,13.37,61.34,27.15,793,835,791,835,810,34.48275862068966,-0.256,0.848,0.472
74615,1755586902683,13.41,61.37,27.27,795,836,793,820,800,33.333333333333336,-0.25,0.848,0.47
74645,1755586902712,13.43,61.52,27.46,791,825,791,820,804,33.333333333333336,-0.247,0.849,0.48
74674,1755586902741,13.44,61.72,27.53,803,836,796,816,815,34.48275862068966,-0.246,0.853,0.476
74704,1755586902771,13.49,61.89,27.58,801,835,787,818,813,33.333333333333336,-0.251,0.853,0.476
74733,1755586902800,13.46,62.05,27.79,801,835,789,825,815,34.48275862068966,-0.25,0.856,0.482
74763,1755586902830,13.51,62.39,27.84,799,844,790,823,809,33.333333333333336,-0.24,0.857,0.481
74792,1755586902859,13.59,62.74,27.87,794,836,780,815,812,34.48275862068966,-0.236,0.858,0.469
74821,1755586902889,13.56,62.9,27.96,798,836,789,825,804,34.48275862068966,-0.232,0.859,0.462
74851,1755586902918,13.48,63.09,27.81,800,836,791,822,810,33.333333333333336,-0.226,0.866,0.456
74881,1755586902948,13.45,63.24,27.62,800,833,786,823,806,33.333333333333336,-0.231,0.868,0.445
74911,1755586902977,13.42,63.18,27.71,800,817,796,817,803,33.333333333333336,-0.236,0.866,0.443
74940,1755586903007,13.36,63.28,27.79,800,834,788,820,799,34.48275862068966,-0.239,0.868,0.451
74969,1755586903036,13.34,63.51,27.76,791,833,789,819,807,34.48275862068966,-0.239,0.872,0.449
74999,1755586903066,13.37,63.5,27.79,794,818,808,822,804,33.333333333333336,-0.242,0.868,0.44
75028,1755586903095,13.31,63.54,27.97,799,834,794,824,806,34.48275862068966,-0.24,0.868,0.439
75058,1755586903125,13.26,63.61,28.09,793,844,806,823,814,33.333333333333336,-0.238,0.873,0.439
75088,1755586903155,13.19,63.65,28.09,798,828,787,821,808,33.333333333333336,-0.229,0.876,0.438
75117,1755586903184,13.16,63.65,27.96,796,835,791,819,807,34.48275862068966,-0.229,0.876,0.435
75146,1755586903213,13.08,63.68,28.07,802,828,791,823,813,34.48275862068966,-0.23,0.872,0.435
75176,1755586903243,13.06,63.67,28.13,794,836,790,827,796,33.333333333333336,-0.228,0.877,0.436
75205,1755586903272,13.06,63.71,28.08,800,834,790,813,817,34.48275862068966,-0.227,0.878,0.436
75235,1755586903301,13.07,63.75,28.08,795,832,791,809,816,33.333333333333336,-0.23,0.876,0.435
75264,1755586903331,13.05,63.82,28.1,801,828,787,821,810,34.48275862068966,-0.228,0.876,0.434
75293,1755586903360,13.06,63.78,28.1,801,821,794,824,801,34.48275862068966,-0.231,0.874,0.431
75323,1755586903390,13.05,63.72,28.2,798,834,792,819,809,33.333333333333336,-0.235,0.875,0.431
75352,1755586903420,13.02,63.8,28.23,802,841,788,816,808,34.48275862068966,-0.229,0.879,0.438
75373,1755586903439,12.97,63.89,28.18,798,826,789,826,827,47.61904761904762,-0.226,0.878,0.438
75402,1755586903469,12.86,64.05,28.11,799,829,801,829,811,34.48275862068966,-0.226,0.88,0.43
75431,1755586903499,12.79,63.98,28.08,795,828,791,818,809,34.48275862068966,-0.224,0.879,0.426
75452,1755586903518,12.75,63.9,28.03,799,833,814,818,809,47.61904761904762,-0.226,0.877,0.426
75481,1755586903548,12.65,63.98,28.12,802,827,789,822,815,34.48275862068966,-0.228,0.879,0.432
75511,1755586903577,12.68,63.96,28.08,799,837,793,818,808,33.333333333333336,-0.225,0.882,0.432
75540,1755586903607,12.71,63.99,28.08,801,834,788,813,799,34.48275862068966,-0.227,0.876,0.431
75569,1755586903636,12.7,63.94,28.11,799,827,790,817,814,34.48275862068966,-0.226,0.875,0.428
75599,1755586903666,12.68,63.97,28.17,799,837,795,818,809,33.333333333333336,-0.225,0.878,0.43
75628,1755586903695,12.69,63.96,28.12,800,829,783,813,809,34.48275862068966,-0.226,0.88,0.428
75658,1755586903724,12.69,63.94,28.18,799,832,801,822,809,33.333333333333336,-0.228,0.877,0.432
75687,1755586903754,12.72,64.0,28.2,800,822,792,826,810,34.48275862068966,-0.226,0.88,0.436
75717,1755586903783,12.72,64.06,28.24,795,826,795,824,794,33.333333333333336,-0.225,0.879,0.429
75746,1755586903813,12.7,63.98,28.31,795,835,791,820,802,34.48275862068966,-0.223,0.878,0.425
75775,1755586903842,12.67,63.91,28.33,800,837,799,818,811,34.48275862068966,-0.222,0.879,0.429
75805,1755586903872,12.63,64.0,28.37,800,829,791,822,805,33.333333333333336,-0.223,0.884,0.433
75834,1755586903901,12.63,64.03,28.33,799,841,791,818,812,34.48275862068966,-0.224,0.881,0.432
75864,1755586903931,12.63,63.98,28.35,797,823,787,822,812,33.333333333333336,-0.225,0.877,0.43
75893,1755586903960,12.62,63.95,28.44,803,827,797,823,805,34.48275862068966,-0.224,0.88,0.433
75922,1755586903989,12.6,64.02,28.43,799,839,790,817,807,34.48275862068966,-0.219,0.884,0.433
75952,1755586904019,12.63,64.0,28.39,797,825,785,821,818,33.333333333333336,-0.222,0.88,0.431
75981,1755586904048,12.64,64.04,28.44,797,832,786,821,815,34.48275862068966,-0.223,0.879,0.43
76011,1755586904078,12.63,64.03,28.5,803,837,793,820,808,33.333333333333336,-0.221,0.88,0.428
76041,1755586904107,12.64,64.02,28.53,797,823,791,821,806,33.333333333333336,-0.22,0.882,0.433
76070,1755586904137,12.69,64.08,28.5,796,836,793,814,816,34.48275862068966,-0.219,0.882,0.437
76099,1755586904166,12.72,64.1,28.48,797,843,793,818,823,34.48275862068966,-0.219,0.88,0.431
76129,1755586904196,12.67,64.04,28.51,798,845,800,821,810,33.333333333333336,-0.218,0.878,0.429
76158,1755586904225,12.66,64.06,28.55,797,831,790,822,801,34.48275862068966,-0.22,0.882,0.431
76187,1755586904254,12.72,64.06,28.53,801,833,796,818,811,34.48275862068966,-0.223,0.882,0.429
76217,1755586904284,12.69,64.07,28.57,798,834,789,824,802,33.333333333333336,-0.221,0.883,0.429
76246,1755586904313,12.65,64.07,28.55,800,833,786,820,800,34.48275862068966,-0.217,0.883,0.43
76276,1755586904343,12.67,64.08,28.53,801,829,785,817,803,33.333333333333336,-0.219,0.88,0.434
76306,1755586904373,12.66,64.12,28.58,796,829,788,820,805,33.333333333333336,-0.22,0.881,0.432
76336,1755586904403,12.63,64.1,28.56,801,836,793,816,807,33.333333333333336,-0.219,0.882,0.428
76365,1755586904432,12.63,64.06,28.52,796,840,784,809,800,34.48275862068966,-0.222,0.882,0.434
76395,1755586904462,12.65,64.11,28.56,804,830,797,818,806,33.333333333333336,-0.224,0.88,0.434
76424,1755586904491,12.68,64.1,28.56,799,837,790,813,804,34.48275862068966,-0.223,0.881,0.428
76454,1755586904520,12.67,64.03,28.55,798,830,800,820,808,33.333333333333336,-0.219,0.881,0.427
76483,1755586904550,12.67,64.03,28.59,799,851,792,813,815,34.48275862068966,-0.221,0.882,0.431
76512,1755586904579,12.69,64.01,28.6,802,832,790,822,810,34.48275862068966,-0.222,0.881,0.431
76542,1755586904609,12.7,64.01,28.61,800,842,790,818,810,33.333333333333336,-0.222,0.882,0.432
76571,1755586904638,12.71,64.02,28.65,797,833,790,815,809,34.48275862068966,-0.224,0.882,0.432
76600,1755586904668,12.75,63.99,28.64,798,828,792,815,804,34.48275862068966,-0.223,0.882,0.431
76630,1755586904697,12.72,64.0,28.67,799,836,786,824,808,33.333333333333336,-0.218,0.881,0.431
76660,1755586904727,12.65,64.0,28.64,799,836,793,819,809,33.333333333333336,-0.217,0.881,0.433
76689,1755586904756,12.63,64.02,28.63,799,826,787,812,807,34.48275862068966,-0.224,0.878,0.435
76718,1755586904786,12.62,64.04,28.7,801,841,788,825,798,34.48275862068966,-0.227,0.878,0.435
76748,1755586904815,12.61,64.1,28.74,800,839,790,821,806,33.333333333333336,-0.22,0.88,0.433
76778,1755586904845,12.59,64.14,28.73,796,827,797,821,806,33.333333333333336,-0.218,0.883,0.429
76808,1755586904875,12.58,64.1,28.74,795,827,789,817,803,33.333333333333336,-0.218,0.882,0.428
76837,1755586904904,12.53,64.1,28.74,801,828,786,814,812,34.48275862068966,-0.218,0.882,0.431
76867,1755586904934,12.5,64.14,28.73,801,824,787,820,809,33.333333333333336,-0.22,0.883,0.429
76896,1755586904963,12.49,64.09,28.72,796,831,795,819,817,34.48275862068966,-0.221,0.88,0.428
76926,1755586904993,12.47,64.11,28.76,801,836,792,818,811,33.333333333333336,-0.219,0.88,0.432
76955,1755586905022,12.49,64.15,28.74,799,836,786,819,812,34.48275862068966,-0.218,0.881,0.432
76984,1755586905051,12.49,64.12,28.76,797,838,795,821,810,34.48275862068966,-0.219,0.88,0.429
77014,1755586905081,12.47,64.1,28.77,790,846,787,817,803,33.333333333333336,-0.218,0.881,0.43
77043,1755586905110,12.49,64.15,28.8,794,841,788,826,804,34.48275862068966,-0.22,0.882,0.432
77073,1755586905140,12.52,64.16,28.81,794,838,791,817,808,33.333333333333336,-0.22,0.88,0.43
77102,1755586905169,12.51,64.15,28.81,795,836,793,818,803,34.48275862068966,-0.217,0.881,0.428
77131,1755586905198,12.44,64.16,28.81,795,825,797,817,814,34.48275862068966,-0.215,0.881,0.429
77161,1755586905228,12.41,64.14,28.77,798,840,785,819,807,33.333333333333336,-0.219,0.881,0.429
77190,1755586905258,12.38,64.15,28.82,797,837,788,815,811,34.48275862068966,-0.222,0.88,0.43
77220,1755586905287,12.38,64.15,28.85,801,842,798,822,811,33.333333333333336,-0.221,0.881,0.431
77250,1755586905317,12.39,64.19,28.85,794,823,788,821,806,33.333333333333336,-0.217,0.882,0.431
77279,1755586905346,12.39,64.2,28.83,797,840,789,824,804,34.48275862068966,-0.216,0.881,0.429
77309,1755586905376,12.33,64.22,28.89,804,836,791,814,817,33.333333333333336,-0.216,0.88,0.428
77338,1755586905405,12.29,64.21,28.93,802,839,784,816,805,34.48275862068966,-0.215,0.881,0.43
77368,1755586905435,12.29,64.2,28.86,803,839,789,820,802,33.333333333333336,-0.216,0.882,0.432
77397,1755586905465,12.27,64.25,28.89,804,834,796,820,808,34.48275862068966,-0.218,0.881,0.432
77417,1755586905484,12.28,64.22,28.91,797,823,787,820,801,50.0,-0.219,0.881,0.426
77447,1755586905514,12.25,64.18,28.95,802,838,793,819,805,33.333333333333336,-0.217,0.881,0.425
77476,1755586905543,12.22,64.15,28.95,802,830,784,817,809,34.48275862068966,-0.212,0.881,0.432
77506,1755586905573,12.23,64.21,28.96,798,836,791,816,806,33.333333333333336,-0.216,0.88,0.434
77535,1755586905602,12.25,64.19,29.01,796,836,803,819,802,34.48275862068966,-0.219,0.878,0.43
77565,1755586905632,12.27,64.17,29.08,803,835,791,816,802,33.333333333333336,-0.218,0.879,0.433
77594,1755586905661,12.29,64.22,29.11,791,833,785,818,810,34.48275862068966,-0.215,0.883,0.431
77624,1755586905691,12.27,64.2,29.1,797,839,791,818,808,33.333333333333336,-0.211,0.883,0.428
77653,1755586905720,12.26,64.15,29.05,801,822,797,814,799,34.48275862068966,-0.211,0.882,0.43
77683,1755586905750,12.26,64.21,29.08,791,838,790,820,809,33.333333333333336,-0.214,0.881,0.435
77712,1755586905779,12.27,64.23,29.1,805,835,792,818,808,34.48275862068966,-0.216,0.881,0.433
77742,1755586905808,12.27,64.21,29.11,801,836,796,819,809,33.333333333333336,-0.213,0.882,0.431
77771,1755586905838,12.28,64.24,29.12,796,835,798,817,805,34.48275862068966,-0.211,0.884,0.432
77800,1755586905867,12.31,64.26,29.09,798,836,798,819,805,34.48275862068966,-0.211,0.883,0.431
77830,1755586905897,12.31,64.27,29.09,796,826,797,817,805,33.333333333333336,-0.214,0.882,0.428
77859,1755586905926,12.28,64.24,29.14,796,835,789,817,805,34.48275862068966,-0.212,0.881,0.429
77888,1755586905955,12.29,64.23,29.14,800,840,786,822,816,34.48275862068966,-0.213,0.883,0.431
77918,1755586905985,12.29,64.24,29.14,802,833,789,828,818,33.333333333333336,-0.213,0.883,0.432
77947,1755586906014,12.28,64.22,29.14,802,831,794,814,803,34.48275862068966,-0.212,0.881,0.433
77977,1755586906044,12.29,64.2,29.14,801,830,787,823,812,33.333333333333336,-0.212,0.881,0.43
78006,1755586906073,12.28,64.16,29.13,799,837,790,819,808,34.48275862068966,-0.214,0.881,0.43
78035,1755586906102,12.29,64.15,29.14,798,837,791,821,817,34.48275862068966,-0.216,0.882,0.432
78065,1755586906132,12.31,64.17,29.17,800,825,790,815,803,33.333333333333336,-0.216,0.881,0.433
78095,1755586906162,12.29,64.17,29.19,799,832,788,813,811,33.333333333333336,-0.213,0.882,0.431
78124,1755586906191,12.28,64.16,29.15,799,831,788,818,819,34.48275862068966,-0.212,0.882,0.429
78154,1755586906221,12.25,64.18,29.18,805,828,787,819,807,33.333333333333336,-0.212,0.881,0.432
78183,1755586906251,12.25,64.14,29.17,797,833,786,816,814,34.48275862068966,-0.214,0.881,0.431
78213,1755586906280,12.24,64.21,29.15,801,836,792,818,815,33.333333333333336,-0.216,0.883,0.433
78242,1755586906309,12.26,64.21,29.18,802,830,791,822,805,34.48275862068966,-0.214,0.88,0.43
78272,1755586906338,12.25,64.15,29.19,798,822,789,822,805,33.333333333333336,-0.213,0.881,0.428
78301,1755586906368,12.23,64.11,29.16,806,845,789,815,819,34.48275862068966,-0.211,0.884,0.429
78331,1755586906398,12.19,64.05,29.14,802,831,792,822,804,33.333333333333336,-0.215,0.879,0.435
78360,1755586906427,12.2,64.06,29.13,798,832,799,821,803,34.48275862068966,-0.216,0.879,0.435
78389,1755586906457,12.2,64.06,29.14,799,827,785,818,808,34.48275862068966,-0.215,0.878,0.431
78419,1755586906486,12.2,64.05,29.16,802,835,794,820,805,33.333333333333336,-0.215,0.881,0.434
78449,1755586906516,12.23,64.09,29.17,797,828,792,821,804,33.333333333333336,-0.216,0.881,0.436
78478,1755586906545,12.23,64.07,29.17,798,824,783,817,806,34.48275862068966,-0.216,0.88,0.433
78507,1755586906575,12.24,64.02,29.18,801,834,792,822,808,34.48275862068966,-0.216,0.879,0.433
78537,1755586906604,12.25,64.04,29.2,802,829,796,819,811,33.333333333333336,-0.217,0.879,0.436
78566,1755586906633,12.25,64.06,29.21,795,839,791,822,809,34.48275862068966,-0.216,0.88,0.436
78596,1755586906663,12.25,64.04,29.21,797,824,796,820,806,33.333333333333336,-0.217,0.88,0.434
78625,1755586906693,12.27,63.99,29.21,799,842,788,822,817,34.48275862068966,-0.216,0.878,0.435
78655,1755586906722,12.26,63.98,29.24,795,830,795,822,804,33.333333333333336,-0.214,0.878,0.433
78685,1755586906752,12.28,63.96,29.23,804,834,793,820,799,33.333333333333336,-0.214,0.88,0.434
78714,1755586906781,12.3,63.95,29.22,797,835,784,813,804,34.48275862068966,-0.216,0.881,0.436
78743,1755586906810,12.27,63.89,29.26,795,832,795,811,815,34.48275862068966,-0.215,0.878,0.435
78773,1755586906840,12.27,63.86,29.23,799,837,792,817,803,33.333333333333336,-0.216,0.879,0.433
78802,1755586906869,12.27,63.85,29.24,801,827,783,819,813,34.48275862068966,-0.218,0.878,0.433
78831,1755586906898,12.29,63.81,29.27,795,830,790,817,811,34.48275862068966,-0.22,0.877,0.437
78861,1755586906928,12.3,63.82,29.32,804,827,790,817,804,33.333333333333336,-0.218,0.879,0.439
78891,1755586906958,12.3,63.82,29.31,800,839,799,817,808,33.333333333333336,-0.215,0.879,0.436
78920,1755586906987,12.29,63.81,29.28,799,832,783,819,809,34.48275862068966,-0.214,0.879,0.437
78950,1755586907017,12.3,63.82,29.29,801,832,793,821,808,33.333333333333336,-0.215,0.878,0.438
78979,1755586907046,12.29,63.81,29.3,803,836,789,822,804,34.48275862068966,-0.217,0.878,0.435
79009,1755586907076,12.27,63.79,29.31,796,830,791,817,805,33.333333333333336,-0.215,0.878,0.437
79038,1755586907105,12.27,63.81,29.31,796,824,794,820,800,34.48275862068966,-0.216,0.879,0.441
79068,1755586907135,12.3,63.81,29.27,800,837,787,817,802,33.333333333333336,-0.217,0.877,0.44
79097,1755586907164,12.3,63.81,29.29,795,831,788,819,796,34.48275862068966,-0.215,0.877,0.439
79127,1755586907194,12.3,63.8,29.26,802,842,787,819,806,33.333333333333336,-0.213,0.879,0.438
79156,1755586907223,12.27,63.8,29.23,801,826,786,814,811,34.48275862068966,-0.212,0.877,0.438
79186,1755586907253,12.28,63.78,29.24,797,833,790,813,808,33.333333333333336,-0.217,0.877,0.441
79215,1755586907282,12.31,63.81,29.26,800,838,789,821,799,34.48275862068966,-0.219,0.876,0.441
79245,1755586907312,12.32,63.82,29.26,798,832,794,816,801,33.333333333333336,-0.217,0.878,0.437
79274,1755586907341,12.32,63.76,29.21,796,823,788,815,807,34.48275862068966,-0.215,0.878,0.434
79304,1755586907371,12.3,63.75,29.25,805,841,789,819,807,33.333333333333336,-0.218,0.879,0.436
79333,1755586907401,12.31,63.74,29.21,798,831,795,825,800,34.48275862068966,-0.219,0.88,0.437
79363,1755586907430,12.34,63.73,29.22,798,832,792,817,809,33.333333333333336,-0.22,0.877,0.44
79392,1755586907459,12.35,63.74,29.25,797,832,790,809,806,34.48275862068966,-0.221,0.879,0.438
79422,1755586907489,12.36,63.73,29.25,802,827,795,812,810,33.333333333333336,-0.22,0.876,0.436
79451,1755586907518,12.37,63.69,29.27,801,839,789,819,807,34.48275862068966,-0.221,0.876,0.436
79480,1755586907547,12.35,63.67,29.29,796,831,802,821,814,34.48275862068966,-0.217,0.879,0.438
79510,1755586907577,12.36,63.66,29.24,813,838,792,819,812,33.333333333333336,-0.217,0.878,0.439
79539,1755586907606,12.36,63.65,29.26,798,833,796,819,811,34.48275862068966,-0.221,0.875,0.44
79568,1755586907636,12.36,63.63,29.3,793,827,793,824,811,34.48275862068966,-0.221,0.875,0.44
79598,1755586907665,12.37,63.65,29.35,799,833,780,813,801,33.333333333333336,-0.223,0.877,0.439
79627,1755586907694,12.37,63.63,29.38,803,844,787,818,807,34.48275862068966,-0.22,0.876,0.437
79657,1755586907724,12.36,63.6,29.38,801,821,794,816,800,33.333333333333336,-0.218,0.876,0.438
79686,1755586907753,12.37,63.61,29.37,804,830,790,813,803,34.48275862068966,-0.219,0.877,0.442
79715,1755586907782,12.39,63.63,29.36,797,833,799,816,809,34.48275862068966,-0.218,0.876,0.438
79745,1755586907812,12.37,63.59,29.39,799,830,790,822,805,33.333333333333336,-0.219,0.874,0.436
79774,1755586907841,12.35,63.56,29.4,799,836,782,821,804,34.48275862068966,-0.216,0.878,0.44
79804,1755586907871,12.36,63.6,29.39,799,833,791,820,807,33.333333333333336,-0.217,0.878,0.444
79824,1755586907890,12.38,63.62,29.37,798,828,797,812,812,50.0,-0.22,0.877,0.441
79853,1755586907920,12.37,63.62,29.41,802,826,796,820,804,34.48275862068966,-0.221,0.874,0.439
79883,1755586907950,12.38,63.61,29.44,799,838,783,821,805,33.333333333333336,-0.221,0.876,0.441
79903,1755586907970,12.38,63.62,29.45,797,835,795,821,807,50.0,-0.22,0.877,0.441
79932,1755586907999,12.36,63.63,29.49,793,834,786,815,813,34.48275862068966,-0.218,0.876,0.439
79962,1755586908029,12.36,63.58,29.48,801,837,788,819,811,33.333333333333336,-0.217,0.876,0.439
79991,1755586908058,12.33,63.63,29.49,800,839,786,820,808,34.48275862068966,-0.216,0.877,0.444
80021,1755586908088,12.35,63.67,29.48,800,839,792,817,815,33.333333333333336,-0.217,0.876,0.445
80050,1755586908117,12.38,63.67,29.51,799,823,791,822,812,34.48275862068966,-0.218,0.874,0.439
80079,1755586908146,12.38,63.62,29.54,798,837,791,818,798,34.48275862068966,-0.217,0.875,0.436
80109,1755586908176,12.37,63.58,29.53,797,829,792,822,810,33.333333333333336,-0.217,0.877,0.439
80139,1755586908205,12.4,63.62,29.55,793,824,791,817,807,33.333333333333336,-0.22,0.877,0.442
80168,1755586908235,12.45,63.66,29.56,803,836,789,821,809,34.48275862068966,-0.219,0.876,0.441
80197,1755586908264,12.47,63.64,29.58,796,823,789,818,809,34.48275862068966,-0.216,0.876,0.436
80227,1755586908294,12.47,63.59,29.61,797,827,793,815,808,33.333333333333336,-0.216,0.876,0.435
80256,1755586908323,12.48,63.59,29.64,796,829,789,821,801,34.48275862068966,-0.218,0.879,0.44
80286,1755586908353,12.5,63.65,29.63,798,832,797,810,810,33.333333333333336,-0.217,0.879,0.442
80315,1755586908382,12.51,63.66,29.63,798,838,792,809,810,34.48275862068966,-0.216,0.877,0.438
80345,1755586908412,12.51,63.62,29.66,798,842,794,821,810,33.333333333333336,-0.218,0.876,0.437
80375,1755586908442,12.5,63.59,29.67,798,836,790,822,798,33.333333333333336,-0.219,0.878,0.439
80404,1755586908471,12.52,63.61,29.66,801,839,788,820,813,34.48275862068966,-0.22,0.879,0.438
80434,1755586908501,12.53,63.63,29.69,799,828,795,819,807,33.333333333333336,-0.219,0.877,0.438
80463,1755586908530,12.52,63.6,29.68,799,838,790,818,801,34.48275862068966,-0.217,0.876,0.439
80493,1755586908560,12.48,63.6,29.69,800,837,795,816,804,33.333333333333336,-0.217,0.878,0.439
80522,1755586908589,12.48,63.61,29.67,797,825,805,824,811,34.48275862068966,-0.219,0.878,0.44
80552,1755586908619,12.51,63.59,29.66,802,830,793,832,805,33.333333333333336,-0.22,0.877,0.438
80581,1755586908648,12.51,63.57,29.67,800,827,791,821,806,34.48275862068966,-0.22,0.876,0.436
80611,1755586908678,12.49,63.54,29.69,798,833,796,820,804,33.333333333333336,-0.219,0.877,0.436
80640,1755586908707,12.46,63.49,29.71,795,829,786,819,805,34.48275862068966,-0.219,0.879,0.437
80670,1755586908737,12.44,63.46,29.72,798,834,791,817,803,33.333333333333336,-0.216,0.874,0.439
80699,1755586908766,12.44,63.47,29.73,796,838,796,819,814,34.48275862068966,-0.215,0.876,0.442
80728,1755586908795,12.45,63.52,29.71,805,834,800,820,811,34.48275862068966,-0.215,0.876,0.444
