timestamp_ms,recv_timestamp_ms,pitch,roll,yaw,flex1,flex2,flex3,flex4,flex5,sampling_hz,accel_x,accel_y,accel_z
50141,1755587237386,50.2,-20.46,41.51,780,892,828,873,886,33.333333333333336,-0.991,-0.075,0.162
50171,1755587237416,50.22,-20.45,41.79,780,889,828,891,883,33.333333333333336,-0.992,-0.075,0.163
50201,1755587237446,50.2,-20.48,42.07,784,890,821,863,882,33.333333333333336,-0.988,-0.073,0.163
50230,1755587237476,50.15,-20.48,42.33,787,891,819,868,892,34.48275862068966,-0.986,-0.072,0.161
50260,1755587237505,50.09,-20.49,42.58,782,880,819,874,888,33.333333333333336,-0.99,-0.074,0.161
50290,1755587237535,50.04,-20.53,42.86,787,896,828,868,890,33.333333333333336,-0.993,-0.075,0.161
50320,1755587237565,50.03,-20.53,43.15,780,879,818,873,886,33.333333333333336,-0.989,-0.074,0.162
50349,1755587237595,49.96,-20.53,43.41,781,885,822,870,882,34.48275862068966,-0.986,-0.07,0.163
50379,1755587237625,49.87,-20.5,43.67,776,889,830,872,871,33.333333333333336,-0.987,-0.071,0.166
50409,1755587237655,49.88,-20.41,43.95,789,886,819,870,889,33.333333333333336,-0.991,-0.073,0.165
50439,1755587237685,49.88,-20.44,44.22,788,886,823,876,878,33.333333333333336,-0.99,-0.073,0.163
50459,1755587237704,50.07,-20.46,44.43,792,887,836,869,875,50.0,-0.987,-0.073,0.162
50489,1755587237735,50.03,-20.44,44.68,789,885,832,871,882,33.333333333333336,-0.987,-0.072,0.161
50509,1755587237754,50.2,-20.45,44.85,791,890,818,879,876,50.0,-0.989,-0.071,0.158
50539,1755587237784,50.14,-20.53,45.12,787,883,824,868,878,33.333333333333336,-0.991,-0.075,0.158
50559,1755587237804,50.34,-20.59,45.31,790,884,819,874,905,50.0,-0.993,-0.076,0.163
50589,1755587237834,50.28,-20.57,45.6,784,880,817,870,883,33.333333333333336,-0.988,-0.073,0.166
50619,1755587237864,50.24,-20.51,45.84,787,885,815,865,889,33.333333333333336,-0.983,-0.071,0.168
50648,1755587237894,50.22,-20.51,46.08,787,885,815,863,884,34.48275862068966,-0.988,-0.074,0.166
50678,1755587237924,50.21,-20.52,46.37,789,883,820,876,886,33.333333333333336,-0.995,-0.076,0.162
50698,1755587237944,50.36,-20.57,46.58,786,881,822,866,888,50.0,-0.992,-0.076,0.161
50728,1755587237973,50.35,-20.54,46.85,788,886,821,873,891,33.333333333333336,-0.985,-0.071,0.163
50758,1755587238003,50.33,-20.58,47.05,788,878,819,875,880,33.333333333333336,-0.984,-0.071,0.164
50788,1755587238033,50.28,-20.57,47.32,782,888,829,870,882,33.333333333333336,-0.992,-0.075,0.163
50818,1755587238063,50.22,-20.61,47.62,783,888,825,872,887,33.333333333333336,-0.993,-0.077,0.162
50847,1755587238093,50.23,-20.62,47.89,781,892,811,862,883,34.48275862068966,-0.987,-0.076,0.165
50877,1755587238123,50.2,-20.65,48.13,785,886,825,866,886,33.333333333333336,-0.987,-0.077,0.165
50897,1755587238142,50.37,-20.69,48.3,786,891,819,876,882,50.0,-0.99,-0.077,0.163
50927,1755587238172,50.38,-20.67,48.59,787,880,819,867,890,33.333333333333336,-0.994,-0.075,0.164
50957,1755587238202,50.37,-20.74,48.86,785,878,817,865,878,33.333333333333336,-0.99,-0.077,0.165
50987,1755587238232,50.33,-20.75,49.12,791,890,845,870,882,33.333333333333336,-0.987,-0.077,0.162
51017,1755587238262,50.32,-20.79,49.38,787,887,825,877,921,33.333333333333336,-0.99,-0.076,0.161
51046,1755587238292,50.31,-20.84,49.67,776,893,826,864,889,34.48275862068966,-0.994,-0.077,0.163
51076,1755587238321,50.33,-20.84,50.0,789,885,833,870,883,33.333333333333336,-0.995,-0.077,0.164
51106,1755587238351,50.34,-20.83,50.29,771,883,816,868,878,33.333333333333336,-0.989,-0.074,0.163
51136,1755587238381,50.32,-20.9,50.54,788,886,820,866,897,33.333333333333336,-0.988,-0.075,0.158
51166,1755587238411,50.29,-20.96,50.81,782,891,828,865,882,33.333333333333336,-0.989,-0.075,0.156
51195,1755587238441,50.3,-21.04,51.12,785,880,825,875,888,34.48275862068966,-0.992,-0.076,0.16
51225,1755587238471,50.31,-21.1,51.38,784,890,819,866,886,33.333333333333336,-0.99,-0.076,0.161
51255,1755587238500,50.25,-21.1,51.65,783,885,818,875,887,33.333333333333336,-0.985,-0.075,0.161
51285,1755587238530,50.22,-21.13,51.88,788,884,819,869,883,33.333333333333336,-0.987,-0.075,0.158
51315,1755587238560,50.23,-21.16,52.14,789,892,813,869,880,33.333333333333336,-0.994,-0.077,0.157
51345,1755587238590,50.18,-21.19,52.48,782,886,827,863,887,33.333333333333336,-0.994,-0.078,0.157
51375,1755587238620,50.21,-21.17,52.77,785,890,824,871,881,33.333333333333336,-0.989,-0.075,0.156
51404,1755587238650,50.13,-21.2,53.01,781,895,834,864,881,34.48275862068966,-0.98,-0.07,0.154
51434,1755587238680,50.05,-21.16,53.24,780,891,822,870,886,33.333333333333336,-0.984,-0.071,0.155
51464,1755587238710,50.05,-21.18,53.51,789,890,830,881,890,33.333333333333336,-0.994,-0.076,0.157
51484,1755587238730,50.26,-21.21,53.72,782,887,823,864,877,50.0,-0.992,-0.076,0.154
51504,1755587238750,50.48,-21.28,53.91,784,887,817,877,882,50.0,-0.987,-0.072,0.15
51524,1755587238770,50.72,-21.31,54.06,785,883,833,869,880,50.0,-0.984,-0.073,0.155
51554,1755587238800,50.57,-21.32,54.29,789,889,833,861,901,33.333333333333336,-0.982,-0.075,0.156
51584,1755587238829,50.63,-21.28,54.55,787,887,842,877,884,33.333333333333336,-0.988,-0.076,0.157
51614,1755587238859,50.66,-21.2,54.84,786,890,821,862,882,33.333333333333336,-0.994,-0.073,0.157
51644,1755587238889,50.58,-21.22,55.14,790,881,824,870,894,33.333333333333336,-0.988,-0.074,0.155
51664,1755587238909,50.8,-21.27,55.33,781,889,828,874,892,50.0,-0.98,-0.075,0.152
51694,1755587238939,50.86,-21.22,55.56,779,888,821,871,882,33.333333333333336,-0.987,-0.073,0.149
51723,1755587238969,50.73,-21.31,55.82,782,896,810,869,871,34.48275862068966,-0.988,-0.073,0.146
51753,1755587238999,50.74,-21.4,56.08,788,883,820,874,879,33.333333333333336,-0.992,-0.078,0.146
51783,1755587239028,50.7,-21.39,56.4,771,886,831,870,883,33.333333333333336,-0.991,-0.076,0.148
51813,1755587239058,50.67,-21.37,56.65,784,882,830,865,895,33.333333333333336,-0.983,-0.071,0.146
51843,1755587239088,50.59,-21.45,56.85,783,885,825,863,899,33.333333333333336,-0.984,-0.073,0.147
51872,1755587239118,50.56,-21.48,57.11,782,893,835,873,894,34.48275862068966,-0.992,-0.076,0.149
51902,1755587239147,50.57,-21.48,57.43,784,890,816,870,876,33.333333333333336,-0.995,-0.076,0.149
51932,1755587239177,50.5,-21.52,57.71,787,888,817,869,887,33.333333333333336,-0.986,-0.075,0.148
51962,1755587239207,50.5,-21.58,57.95,778,891,834,857,869,33.333333333333336,-0.985,-0.076,0.146
51982,1755587239227,50.67,-21.66,58.1,783,882,822,867,891,50.0,-0.99,-0.078,0.148
52002,1755587239247,50.81,-21.75,58.29,788,886,823,867,884,50.0,-0.996,-0.079,0.149
52032,1755587239277,50.78,-21.8,58.58,781,887,834,875,880,33.333333333333336,-0.995,-0.079,0.15
52061,1755587239307,50.81,-21.81,58.87,782,895,832,873,879,34.48275862068966,-0.992,-0.075,0.151
52081,1755587239327,50.98,-21.84,59.05,788,886,836,878,884,50.0,-0.989,-0.074,0.15
52111,1755587239357,50.88,-21.9,59.29,781,878,818,869,882,33.333333333333336,-0.99,-0.077,0.149
52141,1755587239386,50.86,-21.97,59.57,781,879,814,872,881,33.333333333333336,-0.995,-0.079,0.149
52171,1755587239416,50.82,-22.0,59.86,784,876,817,875,873,33.333333333333336,-0.993,-0.077,0.15
52201,1755587239446,50.73,-21.99,60.14,785,892,817,869,886,33.333333333333336,-0.988,-0.074,0.152
52231,1755587239476,50.71,-21.98,60.37,772,872,826,867,882,33.333333333333336,-0.989,-0.075,0.154
52261,1755587239506,50.68,-22.0,60.65,781,891,822,883,882,33.333333333333336,-0.993,-0.078,0.152
52291,1755587239536,50.65,-21.99,60.95,785,883,822,875,881,33.333333333333336,-0.992,-0.078,0.15
52311,1755587239556,50.81,-22.03,61.13,785,889,825,866,886,50.0,-0.988,-0.075,0.149
52340,1755587239586,50.76,-22.08,61.36,779,883,818,863,883,34.48275862068966,-0.985,-0.074,0.149
52361,1755587239606,50.91,-22.1,61.51,783,894,834,866,881,47.61904761904762,-0.988,-0.073,0.15
52390,1755587239636,50.79,-22.12,61.77,784,892,823,870,892,34.48275862068966,-0.992,-0.077,0.152
52420,1755587239665,50.79,-22.11,62.07,776,892,829,854,892,33.333333333333336,-0.992,-0.079,0.153
52450,1755587239695,50.79,-22.12,62.36,786,888,817,872,879,33.333333333333336,-0.988,-0.077,0.152
52480,1755587239725,50.72,-22.09,62.61,778,893,827,868,886,33.333333333333336,-0.985,-0.074,0.152
52510,1755587239755,50.64,-22.1,62.85,782,888,819,874,881,33.333333333333336,-0.989,-0.076,0.152
52540,1755587239785,50.63,-22.11,63.15,777,892,836,876,879,33.333333333333336,-0.995,-0.078,0.153
52560,1755587239805,50.8,-22.15,63.36,789,885,825,880,887,50.0,-0.996,-0.078,0.153
52589,1755587239835,50.76,-22.18,63.64,784,896,836,872,890,34.48275862068966,-0.987,-0.076,0.153
52619,1755587239864,50.75,-22.12,63.88,780,889,835,875,886,33.333333333333336,-0.985,-0.075,0.154
52649,1755587239895,50.65,-22.19,64.12,781,885,820,866,881,33.333333333333336,-0.99,-0.076,0.152
52669,1755587239915,50.82,-22.26,64.3,786,889,819,871,888,50.0,-0.996,-0.08,0.153
52699,1755587239945,50.77,-22.27,64.61,788,876,826,871,877,33.333333333333336,-0.992,-0.079,0.154
52719,1755587239965,50.94,-22.26,64.81,784,882,823,874,887,50.0,-0.985,-0.076,0.155
52739,1755587239985,51.09,-22.25,64.98,782,885,831,861,877,50.0,-0.982,-0.074,0.156
52769,1755587240015,51.02,-22.28,65.22,778,883,827,872,885,33.333333333333336,-0.987,-0.077,0.154
52799,1755587240044,50.99,-22.29,65.52,782,883,821,867,880,33.333333333333336,-0.993,-0.079,0.154
52829,1755587240074,50.98,-22.29,65.84,783,886,820,871,887,33.333333333333336,-0.991,-0.077,0.155
52859,1755587240104,50.91,-22.23,66.12,782,890,826,875,878,33.333333333333336,-0.985,-0.074,0.156
52889,1755587240134,50.81,-22.24,66.34,781,885,817,874,877,33.333333333333336,-0.983,-0.074,0.154
52918,1755587240164,50.76,-22.22,66.6,781,885,822,880,882,34.48275862068966,-0.992,-0.078,0.155
52948,1755587240193,50.74,-22.27,66.92,776,875,817,880,881,33.333333333333336,-0.995,-0.08,0.155
52978,1755587240223,50.73,-22.22,67.24,779,876,823,867,884,33.333333333333336,-0.987,-0.076,0.157
53008,1755587240253,50.67,-22.17,67.5,784,880,830,867,887,33.333333333333336,-0.983,-0.073,0.155
53037,1755587240283,50.62,-22.19,67.73,784,885,826,873,882,34.48275862068966,-0.988,-0.075,0.154
53067,1755587240312,50.58,-22.18,68.03,789,890,824,868,887,33.333333333333336,-0.994,-0.078,0.155
53097,1755587240342,50.55,-22.17,68.34,779,883,825,872,882,33.333333333333336,-0.991,-0.078,0.155
53127,1755587240372,50.53,-22.11,68.6,781,882,823,863,889,33.333333333333336,-0.985,-0.073,0.157
53156,1755587240402,50.47,-22.11,68.82,781,885,811,862,892,34.48275862068966,-0.985,-0.073,0.157
53186,1755587240431,50.43,-22.11,69.06,778,890,821,872,887,33.333333333333336,-0.992,-0.077,0.156
53216,1755587240461,50.36,-22.15,69.37,782,889,828,869,886,33.333333333333336,-0.996,-0.081,0.156
53246,1755587240491,50.38,-22.13,69.67,777,886,817,869,883,33.333333333333336,-0.991,-0.079,0.158
53266,1755587240511,50.56,-22.13,69.86,785,875,825,880,883,50.0,-0.983,-0.075,0.159
53296,1755587240541,50.51,-22.15,70.06,781,880,821,871,883,33.333333333333336,-0.981,-0.079,0.156
53326,1755587240571,50.45,-22.19,70.29,782,887,832,866,881,33.333333333333336,-0.992,-0.083,0.157
53346,1755587240591,50.61,-22.27,70.51,774,885,833,868,903,50.0,-0.997,-0.087,0.158
53375,1755587240621,50.62,-22.26,70.84,782,901,820,867,893,34.48275862068966,-0.991,-0.084,0.159
53405,1755587240650,50.59,-22.27,71.1,784,879,828,871,880,33.333333333333336,-0.984,-0.079,0.16
53435,1755587240680,50.54,-22.27,71.31,781,895,820,877,890,33.333333333333336,-0.985,-0.078,0.158
53465,1755587240710,50.52,-22.28,71.58,784,889,824,877,875,33.333333333333336,-0.996,-0.081,0.157
53495,1755587240740,50.53,-22.28,71.93,781,873,830,881,870,33.333333333333336,-1.001,-0.081,0.157
53524,1755587240770,50.51,-22.29,72.24,783,873,817,872,890,34.48275862068966,-0.991,-0.077,0.157
53554,1755587240800,50.5,-22.25,72.48,782,885,831,876,885,33.333333333333336,-0.984,-0.074,0.154
53574,1755587240820,50.66,-22.26,72.63,781,891,807,875,884,50.0,-0.986,-0.072,0.152
53604,1755587240849,50.58,-22.28,72.87,781,892,831,867,894,33.333333333333336,-0.992,-0.075,0.152
53634,1755587240880,50.56,-22.29,73.15,786,886,816,868,884,33.333333333333336,-0.992,-0.077,0.154
53654,1755587240900,50.72,-22.31,73.34,784,893,818,880,894,50.0,-0.988,-0.076,0.154
53684,1755587240929,50.7,-22.33,73.59,786,888,828,871,877,33.333333333333336,-0.988,-0.076,0.157
53714,1755587240959,50.63,-22.34,73.82,786,887,816,877,898,33.333333333333336,-0.987,-0.075,0.156
53734,1755587240979,50.77,-22.35,73.97,780,894,828,866,881,50.0,-0.988,-0.075,0.154
53764,1755587241009,50.74,-22.39,74.26,782,886,822,882,878,33.333333333333336,-0.996,-0.081,0.156
53794,1755587241039,50.76,-22.4,74.57,781,890,811,872,885,33.333333333333336,-0.993,-0.081,0.157
53814,1755587241060,50.95,-22.39,74.76,785,884,833,865,884,50.0,-0.986,-0.077,0.156
53834,1755587241080,51.1,-22.41,74.93,784,875,823,875,884,50.0,-0.981,-0.075,0.156
53864,1755587241109,51.02,-22.39,75.18,786,882,818,867,892,33.333333333333336,-0.985,-0.075,0.154
53894,1755587241139,51.04,-22.36,75.44,790,889,808,877,885,33.333333333333336,-0.989,-0.076,0.155
53924,1755587241169,50.95,-22.36,75.74,778,893,823,881,881,33.333333333333336,-0.986,-0.076,0.154
53953,1755587241199,50.92,-22.35,75.98,785,889,821,865,887,34.48275862068966,-0.984,-0.076,0.154
53983,1755587241228,50.87,-22.35,76.22,782,882,826,875,885,33.333333333333336,-0.986,-0.076,0.156
54013,1755587241258,50.83,-22.37,76.46,786,881,828,871,879,33.333333333333336,-0.987,-0.078,0.155
54043,1755587241288,50.83,-22.31,76.74,784,887,830,871,881,33.333333333333336,-0.991,-0.078,0.157
54073,1755587241318,50.75,-22.28,77.02,775,891,831,868,896,33.333333333333336,-0.986,-0.076,0.158
54103,1755587241348,50.76,-22.22,77.22,782,887,814,880,887,33.333333333333336,-0.983,-0.076,0.158
54132,1755587241378,50.7,-22.19,77.43,786,886,820,876,867,34.48275862068966,-0.987,-0.077,0.157
54162,1755587241407,50.64,-22.17,77.69,783,888,825,893,888,33.333333333333336,-0.991,-0.079,0.156
54192,1755587241437,50.6,-22.17,77.94,784,883,812,881,876,33.333333333333336,-0.991,-0.08,0.154
54222,1755587241467,50.57,-22.19,78.19,783,886,817,872,880,33.333333333333336,-0.989,-0.08,0.151
54252,1755587241497,50.5,-22.28,78.44,781,878,818,871,880,33.333333333333336,-0.991,-0.081,0.15
54281,1755587241527,50.41,-22.39,78.72,782,889,832,868,886,34.48275862068966,-0.992,-0.083,0.15
54311,1755587241556,50.39,-22.48,78.99,778,883,830,869,919,33.333333333333336,-0.993,-0.085,0.151
54341,1755587241586,50.36,-22.59,79.31,777,890,835,867,885,33.333333333333336,-0.994,-0.086,0.153
54371,1755587241616,50.33,-22.63,79.62,784,886,830,864,883,33.333333333333336,-0.991,-0.083,0.156
54400,1755587241646,50.21,-22.64,79.91,783,888,805,870,884,34.48275862068966,-0.986,-0.078,0.156
54430,1755587241676,50.16,-22.66,80.14,784,895,824,870,881,33.333333333333336,-0.988,-0.078,0.158
54460,1755587241705,50.09,-22.67,80.41,786,880,802,893,886,33.333333333333336,-0.992,-0.079,0.158
54490,1755587241735,49.93,-22.63,80.73,785,894,828,879,883,33.333333333333336,-0.99,-0.081,0.158
54520,1755587241765,49.87,-22.63,81.0,785,890,813,867,883,33.333333333333336,-0.986,-0.079,0.158
54550,1755587241795,49.87,-22.58,81.24,780,886,817,873,881,33.333333333333336,-0.988,-0.079,0.161
54579,1755587241825,49.82,-22.58,81.52,782,888,821,874,887,34.48275862068966,-0.992,-0.08,0.161
54609,1755587241855,49.83,-22.58,81.8,781,877,815,861,885,33.333333333333336,-0.991,-0.082,0.162
54630,1755587241875,50.0,-22.58,82.01,783,879,831,879,895,47.61904761904762,-0.99,-0.081,0.163
54659,1755587241905,49.98,-22.61,82.26,785,890,826,871,888,34.48275862068966,-0.985,-0.079,0.161
54680,1755587241925,50.18,-22.6,82.42,780,887,813,875,881,47.61904761904762,-0.987,-0.078,0.16
54709,1755587241955,50.07,-22.62,82.71,780,885,827,871,886,34.48275862068966,-0.99,-0.078,0.161
54739,1755587241985,50.04,-22.6,82.99,784,889,816,862,887,33.333333333333336,-0.99,-0.08,0.16
54769,1755587242014,50.04,-22.58,83.25,779,884,822,873,881,33.333333333333336,-0.988,-0.08,0.161
54799,1755587242045,49.96,-22.58,83.51,778,890,819,886,888,33.333333333333336,-0.984,-0.078,0.161
54819,1755587242064,50.11,-22.6,83.67,786,877,821,884,874,50.0,-0.987,-0.079,0.162
54849,1755587242094,50.06,-22.61,83.96,781,893,825,871,876,33.333333333333336,-0.993,-0.082,0.164
54879,1755587242124,50.03,-22.56,84.28,782,890,829,871,877,33.333333333333336,-0.992,-0.081,0.164
54909,1755587242154,50.01,-22.52,84.56,784,876,825,868,887,33.333333333333336,-0.985,-0.078,0.163
54938,1755587242184,49.96,-22.54,84.79,784,887,827,870,883,34.48275862068966,-0.984,-0.078,0.163
54968,1755587242214,49.93,-22.51,85.07,785,893,820,873,882,33.333333333333336,-0.992,-0.081,0.164
54998,1755587242243,49.89,-22.53,85.37,779,883,812,876,917,33.333333333333336,-0.992,-0.082,0.163
55018,1755587242263,50.09,-22.54,85.58,783,885,825,871,883,50.0,-0.99,-0.082,0.163
55048,1755587242293,50.03,-22.55,85.85,781,885,817,869,880,33.333333333333336,-0.984,-0.079,0.161
55077,1755587242323,49.99,-22.57,86.07,782,891,816,869,879,34.48275862068966,-0.985,-0.079,0.161
55107,1755587242352,49.9,-22.56,86.36,787,877,824,867,896,33.333333333333336,-0.992,-0.082,0.163
55137,1755587242382,49.88,-22.55,86.69,785,884,823,867,874,33.333333333333336,-0.99,-0.081,0.165
55167,1755587242412,49.86,-22.52,86.96,782,883,811,866,884,33.333333333333336,-0.981,-0.077,0.165
55197,1755587242442,49.83,-22.49,87.19,779,892,828,867,878,33.333333333333336,-0.983,-0.077,0.163
55227,1755587242472,49.81,-22.45,87.46,781,886,816,871,884,33.333333333333336,-0.992,-0.08,0.164
55256,1755587242502,49.78,-22.44,87.77,783,885,815,875,885,34.48275862068966,-0.991,-0.08,0.163
55286,1755587242531,49.79,-22.4,88.04,783,874,815,869,885,33.333333333333336,-0.986,-0.079,0.162
55316,1755587242561,49.73,-22.43,88.26,780,876,823,863,887,33.333333333333336,-0.983,-0.076,0.159
55346,1755587242591,49.67,-22.44,88.5,779,882,824,869,884,33.333333333333336,-0.986,-0.078,0.161
55376,1755587242621,49.64,-22.42,88.8,785,883,817,872,883,33.333333333333336,-0.994,-0.082,0.164
55405,1755587242651,49.62,-22.41,89.14,780,888,822,865,885,34.48275862068966,-0.992,-0.082,0.166
55435,1755587242681,49.65,-22.38,89.41,779,887,827,874,887,33.333333333333336,-0.984,-0.079,0.165
55465,1755587242710,49.6,-22.39,89.64,782,886,823,870,886,33.333333333333336,-0.988,-0.08,0.162
55495,1755587242740,49.59,-22.41,89.94,787,877,814,869,884,33.333333333333336,-0.996,-0.082,0.161
55525,1755587242770,49.6,-22.41,90.27,782,879,818,870,884,33.333333333333336,-0.994,-0.08,0.163
55554,1755587242800,49.54,-22.37,90.56,777,890,823,866,881,34.48275862068966,-0.983,-0.076,0.164
55584,1755587242830,49.54,-22.36,90.76,776,876,826,880,882,33.333333333333336,-0.983,-0.077,0.165
55604,1755587242850,49.73,-22.39,90.91,775,879,820,870,890,50.0,-0.99,-0.08,0.164
55634,1755587242879,49.68,-22.4,91.22,778,878,824,872,889,33.333333333333336,-0.996,-0.082,0.163
55664,1755587242910,49.7,-22.38,91.52,778,887,818,875,877,33.333333333333336,-0.99,-0.08,0.162
55684,1755587242929,49.89,-22.38,91.7,782,883,816,857,874,50.0,-0.984,-0.077,0.163
55714,1755587242959,49.84,-22.42,91.93,779,884,805,875,882,33.333333333333336,-0.984,-0.077,0.163
55744,1755587242989,49.83,-22.39,92.21,776,890,826,864,887,33.333333333333336,-0.992,-0.08,0.163
55774,1755587243019,49.8,-22.4,92.52,774,895,813,875,880,33.333333333333336,-0.989,-0.078,0.161
55804,1755587243049,49.74,-22.35,92.8,783,884,837,869,889,33.333333333333336,-0.983,-0.074,0.163
55833,1755587243079,49.68,-22.33,93.04,779,879,823,875,878,34.48275862068966,-0.983,-0.075,0.163
55863,1755587243109,49.72,-22.31,93.3,785,886,823,869,892,33.333333333333336,-0.989,-0.078,0.163
55884,1755587243129,49.9,-22.35,93.5,774,891,818,870,890,47.61904761904762,-0.991,-0.079,0.162
55904,1755587243149,50.07,-22.39,93.69,776,887,821,866,888,50.0,-0.986,-0.078,0.161
55934,1755587243179,50.04,-22.34,93.94,781,889,825,878,880,33.333333333333336,-0.985,-0.075,0.161
55963,1755587243209,49.98,-22.33,94.17,781,878,817,869,873,34.48275862068966,-0.985,-0.075,0.162
55993,1755587243239,50.0,-22.29,94.42,784,882,811,875,884,33.333333333333336,-0.99,-0.078,0.161
56023,1755587243268,49.94,-22.3,94.72,788,886,808,867,883,33.333333333333336,-0.992,-0.08,0.161
56053,1755587243298,49.94,-22.28,95.0,779,886,827,879,869,33.333333333333336,-0.985,-0.078,0.16
56083,1755587243328,49.86,-22.28,95.22,786,876,818,874,872,33.333333333333336,-0.983,-0.075,0.159
56113,1755587243358,49.81,-22.35,95.44,779,899,823,866,891,33.333333333333336,-0.991,-0.081,0.159
56142,1755587243388,49.82,-22.36,95.76,778,884,812,871,886,34.48275862068966,-0.998,-0.085,0.16
56172,1755587243417,49.77,-22.33,96.08,783,877,822,868,877,33.333333333333336,-0.99,-0.082,0.163
56202,1755587243447,49.78,-22.27,96.35,784,893,821,859,882,33.333333333333336,-0.983,-0.078,0.164
56232,1755587243477,49.72,-22.3,96.59,777,880,827,872,884,33.333333333333336,-0.987,-0.078,0.162
56262,1755587243507,49.73,-22.28,96.88,784,878,817,872,879,33.333333333333336,-0.996,-0.082,0.163
56291,1755587243537,49.72,-22.28,97.23,785,900,819,864,883,34.48275862068966,-0.994,-0.082,0.162
56311,1755587243557,49.89,-22.32,97.44,786,884,836,874,888,50.0,-0.985,-0.078,0.16
56331,1755587243577,50.06,-22.34,97.62,779,890,825,869,883,50.0,-0.979,-0.077,0.16
56361,1755587243607,49.97,-22.36,97.89,776,885,815,879,895,33.333333333333336,-0.986,-0.078,0.162
56391,1755587243636,49.96,-22.31,98.2,781,886,834,866,872,33.333333333333336,-0.989,-0.078,0.163
56421,1755587243666,49.92,-22.26,98.51,779,893,826,866,894,33.333333333333336,-0.987,-0.076,0.163
56451,1755587243696,49.88,-22.25,98.79,779,894,829,869,883,33.333333333333336,-0.984,-0.075,0.164
56480,1755587243726,49.84,-22.18,99.06,784,879,833,874,882,34.48275862068966,-0.984,-0.077,0.165
56510,1755587243756,49.8,-22.12,99.35,787,882,827,864,879,33.333333333333336,-0.989,-0.077,0.163
56540,1755587243786,49.77,-22.11,99.66,782,883,828,869,881,33.333333333333336,-0.989,-0.077,0.162
56570,1755587243815,49.75,-22.11,99.93,781,878,823,873,884,33.333333333333336,-0.984,-0.077,0.161
56600,1755587243845,49.71,-22.09,100.19,780,889,820,873,886,33.333333333333336,-0.986,-0.076,0.161
56630,1755587243875,49.64,-22.08,100.49,785,882,832,856,879,33.333333333333336,-0.989,-0.076,0.162
56660,1755587243905,49.63,-22.06,100.78,781,899,831,871,883,33.333333333333336,-0.988,-0.075,0.161
56689,1755587243935,49.58,-22.08,101.06,786,881,821,871,891,34.48275862068966,-0.986,-0.076,0.163
56719,1755587243965,49.53,-22.08,101.33,784,886,810,872,885,33.333333333333336,-0.987,-0.076,0.163
56749,1755587243994,49.53,-22.07,101.62,785,887,818,871,890,33.333333333333336,-0.989,-0.076,0.165
56779,1755587244024,49.51,-22.02,101.89,785,891,827,873,885,33.333333333333336,-0.987,-0.074,0.165
56809,1755587244054,49.47,-22.02,102.13,790,879,831,869,878,33.333333333333336,-0.984,-0.074,0.164
56839,1755587244084,49.46,-21.99,102.4,782,884,826,876,879,33.333333333333336,-0.99,-0.077,0.164
56869,1755587244114,49.45,-21.97,102.7,780,879,834,867,889,33.333333333333336,-0.991,-0.077,0.162
56889,1755587244134,49.65,-21.94,102.9,786,886,817,882,885,50.0,-0.988,-0.074,0.162
56919,1755587244164,49.6,-21.9,103.15,782,884,828,873,884,33.333333333333336,-0.983,-0.072,0.163
56948,1755587244194,49.56,-21.87,103.37,783,884,818,873,884,34.48275862068966,-0.986,-0.075,0.163
56978,1755587244224,49.55,-21.87,103.63,781,883,815,869,885,33.333333333333336,-0.99,-0.076,0.164
57008,1755587244254,49.5,-21.81,103.91,786,885,824,871,880,33.333333333333336,-0.986,-0.073,0.166
57028,1755587244273,49.66,-21.8,104.07,780,895,820,866,887,50.0,-0.982,-0.072,0.166
57058,1755587244303,49.65,-21.74,104.32,785,887,819,865,883,33.333333333333336,-0.986,-0.075,0.167
57088,1755587244333,49.66,-21.7,104.62,777,886,818,866,886,33.333333333333336,-0.991,-0.078,0.164
57117,1755587244363,49.64,-21.67,104.91,784,890,814,864,882,34.48275862068966,-0.986,-0.073,0.161
57147,1755587244392,49.57,-21.68,105.14,787,875,822,878,882,33.333333333333336,-0.982,-0.072,0.161
57177,1755587244422,49.54,-21.69,105.37,774,879,823,864,880,33.333333333333336,-0.988,-0.077,0.162
57207,1755587244452,49.53,-21.67,105.68,780,876,818,885,865,33.333333333333336,-0.993,-0.08,0.164
57236,1755587244482,49.52,-21.65,105.98,778,879,823,874,877,34.48275862068966,-0.988,-0.078,0.166
57266,1755587244511,49.52,-21.6,106.21,784,884,820,864,881,33.333333333333336,-0.983,-0.073,0.168
57296,1755587244541,49.48,-21.55,106.45,788,879,825,870,876,33.333333333333336,-0.987,-0.076,0.166
57326,1755587244571,49.5,-21.53,106.72,785,888,829,874,895,33.333333333333336,-0.993,-0.078,0.165
57355,1755587244601,49.47,-21.51,107.03,782,876,813,858,895,34.48275862068966,-0.99,-0.077,0.163
57385,1755587244630,49.42,-21.49,107.27,781,891,823,871,884,33.333333333333336,-0.983,-0.075,0.161
57415,1755587244660,49.4,-21.53,107.49,785,875,807,872,879,33.333333333333336,-0.987,-0.078,0.161
57445,1755587244690,49.35,-21.54,107.79,778,891,818,869,891,33.333333333333336,-0.992,-0.08,0.163
57474,1755587244720,49.37,-21.56,108.07,785,880,824,882,883,34.48275862068966,-0.99,-0.08,0.164
57495,1755587244740,49.59,-21.56,108.26,783,884,833,873,889,47.61904761904762,-0.988,-0.079,0.165
57524,1755587244770,49.54,-21.55,108.54,792,883,819,874,884,34.48275862068966,-0.984,-0.077,0.166
57554,1755587244800,49.53,-21.51,108.77,782,881,816,866,884,33.333333333333336,-0.985,-0.077,0.164
57584,1755587244829,49.51,-21.54,109.02,776,886,817,877,883,33.333333333333336,-0.99,-0.079,0.161
57614,1755587244860,49.47,-21.58,109.3,780,881,819,854,880,33.333333333333336,-0.989,-0.079,0.162
57634,1755587244879,49.63,-21.62,109.5,783,884,822,875,884,50.0,-0.987,-0.078,0.164
57664,1755587244909,49.6,-21.64,109.76,779,884,821,870,893,33.333333333333336,-0.986,-0.079,0.164
57694,1755587244939,49.6,-21.63,110.05,784,883,830,863,890,33.333333333333336,-0.989,-0.079,0.163
57723,1755587244969,49.56,-21.66,110.34,785,885,825,856,877,34.48275862068966,-0.989,-0.078,0.163
57753,1755587244999,49.53,-21.63,110.62,783,884,817,875,876,33.333333333333336,-0.986,-0.077,0.164
57783,1755587245028,49.5,-21.62,110.89,780,880,826,877,888,33.333333333333336,-0.987,-0.077,0.164
57813,1755587245058,49.49,-21.63,111.16,785,893,826,859,888,33.333333333333336,-0.986,-0.077,0.163
57833,1755587245078,49.66,-21.64,111.34,777,888,822,870,894,50.0,-0.987,-0.077,0.162
57863,1755587245108,49.62,-21.65,111.61,780,880,822,872,882,33.333333333333336,-0.989,-0.078,0.163
57893,1755587245139,49.6,-21.63,111.91,780,897,836,868,890,33.333333333333336,-0.991,-0.079,0.164
57913,1755587245159,49.8,-21.65,112.11,778,886,834,877,880,50.0,-0.987,-0.078,0.164
57943,1755587245189,49.78,-21.65,112.37,775,878,828,876,897,33.333333333333336,-0.984,-0.076,0.163
57973,1755587245218,49.73,-21.63,112.61,785,887,824,865,885,33.333333333333336,-0.986,-0.075,0.163
58003,1755587245248,49.71,-21.58,112.86,770,890,833,869,888,33.333333333333336,-0.989,-0.074,0.163
58033,1755587245278,49.66,-21.58,113.12,773,876,819,877,882,33.333333333333336,-0.987,-0.077,0.164
58062,1755587245308,49.65,-21.56,113.38,778,881,822,871,886,34.48275862068966,-0.989,-0.081,0.163
58092,1755587245338,49.66,-21.6,113.68,785,883,801,861,876,33.333333333333336,-0.99,-0.082,0.162
58122,1755587245367,49.63,-21.57,113.97,779,881,826,871,879,33.333333333333336,-0.985,-0.077,0.162
58152,1755587245397,49.58,-21.55,114.19,793,885,815,877,884,33.333333333333336,-0.984,-0.075,0.161
58181,1755587245427,49.59,-21.54,114.45,783,881,830,866,881,34.48275862068966,-0.99,-0.079,0.161
58211,1755587245457,49.56,-21.56,114.75,780,888,816,872,880,33.333333333333336,-0.989,-0.079,0.162
58241,1755587245487,49.54,-21.55,115.02,779,880,834,872,887,33.333333333333336,-0.984,-0.077,0.163
58271,1755587245517,49.5,-21.53,115.26,782,886,817,874,887,33.333333333333336,-0.983,-0.075,0.163
58291,1755587245536,49.67,-21.57,115.41,779,888,814,875,880,50.0,-0.985,-0.075,0.16
58321,1755587245566,49.63,-21.61,115.68,788,892,821,877,884,33.333333333333336,-0.991,-0.079,0.159
58350,1755587245596,49.61,-21.61,116.0,783,895,826,873,892,34.48275862068966,-0.992,-0.081,0.163
58380,1755587245626,49.59,-21.6,116.28,779,887,827,886,877,33.333333333333336,-0.985,-0.079,0.164
58410,1755587245655,49.57,-21.59,116.51,780,878,832,865,888,33.333333333333336,-0.983,-0.078,0.165
58440,1755587245685,49.56,-21.6,116.77,785,887,829,874,881,33.333333333333336,-0.991,-0.08,0.163
58470,1755587245715,49.55,-21.62,117.08,781,889,822,874,885,33.333333333333336,-0.993,-0.08,0.161
58490,1755587245735,49.74,-21.66,117.28,786,884,831,871,890,50.0,-0.99,-0.08,0.162
58520,1755587245765,49.72,-21.64,117.55,780,886,835,870,885,33.333333333333336,-0.984,-0.077,0.164
58550,1755587245795,49.7,-21.63,117.77,783,866,823,870,889,33.333333333333336,-0.988,-0.077,0.163
58579,1755587245825,49.67,-21.61,118.07,784,878,829,864,883,34.48275862068966,-0.994,-0.079,0.162
58600,1755587245845,49.87,-21.66,118.28,780,885,819,869,884,47.61904761904762,-0.995,-0.081,0.161
58620,1755587245865,50.07,-21.71,118.49,789,887,826,864,887,50.0,-0.991,-0.08,0.159
