timestamp_ms,recv_timestamp_ms,pitch,roll,yaw,flex1,flex2,flex3,flex4,flex5,sampling_hz,accel_x,accel_y,accel_z
67859,1755585150980,24.3,-89.82,-55.32,830,864,838,833,844,33.333333333333336,-0.403,-0.911,-0.001
67888,1755585151010,24.29,-89.84,-55.33,832,873,835,838,850,34.48275862068966,-0.403,-0.911,0.002
67918,1755585151040,24.33,-89.84,-55.31,832,864,826,849,835,33.333333333333336,-0.404,-0.911,0.002
67948,1755585151069,24.32,-89.83,-55.29,831,873,821,828,843,33.333333333333336,-0.404,-0.91,-0.0
67977,1755585151099,24.31,-89.83,-55.31,830,869,835,829,844,34.48275862068966,-0.405,-0.909,-0.0
68007,1755585151128,24.31,-89.84,-55.31,838,870,831,830,843,33.333333333333336,-0.404,-0.911,0.002
68036,1755585151158,24.32,-89.83,-55.29,832,867,832,834,850,34.48275862068966,-0.403,-0.911,0.001
68066,1755585151188,24.32,-89.82,-55.28,825,871,832,833,846,33.333333333333336,-0.404,-0.91,-0.0
68096,1755585151217,24.31,-89.83,-55.29,827,861,835,822,849,33.333333333333336,-0.406,-0.908,0.001
68125,1755585151247,24.28,-89.85,-55.31,833,886,842,840,848,34.48275862068966,-0.404,-0.908,0.0
68155,1755585151276,24.32,-89.84,-55.3,832,863,837,837,846,33.333333333333336,-0.405,-0.909,0.001
68184,1755585151306,24.32,-89.82,-55.31,832,857,836,832,841,34.48275862068966,-0.405,-0.909,0.003
68214,1755585151335,24.27,-89.78,-55.33,828,862,834,836,849,33.333333333333336,-0.405,-0.909,0.002
68243,1755585151365,24.29,-89.75,-55.33,825,862,832,834,848,34.48275862068966,-0.406,-0.909,-0.0
68273,1755585151395,24.28,-89.8,-55.34,830,865,828,831,842,33.333333333333336,-0.406,-0.909,0.002
68303,1755585151424,24.25,-89.76,-55.36,828,865,828,836,846,33.333333333333336,-0.405,-0.909,0.005
68332,1755585151454,24.31,-89.71,-55.34,831,865,829,835,836,34.48275862068966,-0.406,-0.909,0.004
68362,1755585151483,24.3,-89.75,-55.34,837,868,833,831,855,33.333333333333336,-0.405,-0.908,0.0
68391,1755585151513,24.3,-89.72,-55.33,832,858,841,838,842,34.48275862068966,-0.407,-0.909,0.001
68421,1755585151543,24.31,-89.73,-55.3,830,876,836,832,851,33.333333333333336,-0.406,-0.91,0.003
68451,1755585151572,24.32,-89.69,-55.25,832,870,831,830,849,33.333333333333336,-0.405,-0.911,0.004
68480,1755585151601,24.41,-89.66,-55.17,831,864,842,826,842,34.48275862068966,-0.406,-0.91,0.002
68509,1755585151631,24.37,-89.64,-55.19,834,864,831,831,850,34.48275862068966,-0.405,-0.907,0.001
68539,1755585151660,24.31,-89.61,-55.21,830,870,823,831,856,33.333333333333336,-0.407,-0.907,0.003
68568,1755585151690,24.37,-89.6,-55.18,829,863,830,833,845,34.48275862068966,-0.407,-0.909,0.004
68598,1755585151719,24.38,-89.6,-55.15,831,866,821,833,845,33.333333333333336,-0.405,-0.909,0.004
68627,1755585151749,24.35,-89.58,-55.16,830,862,826,839,849,34.48275862068966,-0.405,-0.908,0.007
68657,1755585151778,24.34,-89.53,-55.18,828,868,828,827,846,33.333333333333336,-0.407,-0.907,0.006
68686,1755585151808,24.37,-89.55,-55.17,827,862,826,835,849,34.48275862068966,-0.41,-0.907,0.004
68716,1755585151838,24.38,-89.6,-55.16,829,866,825,836,842,33.333333333333336,-0.409,-0.908,0.005
68745,1755585151867,24.38,-89.6,-55.17,829,866,831,834,845,34.48275862068966,-0.407,-0.908,0.008
68775,1755585151897,24.37,-89.56,-55.18,835,871,833,834,843,33.333333333333336,-0.407,-0.908,0.008
68805,1755585151927,24.4,-89.58,-55.15,826,877,820,838,840,33.333333333333336,-0.409,-0.908,0.003
68835,1755585151956,24.39,-89.63,-55.16,835,873,829,835,852,33.333333333333336,-0.409,-0.906,0.001
68864,1755585151986,24.32,-89.63,-55.2,828,866,827,838,839,34.48275862068966,-0.409,-0.905,0.005
68894,1755585152016,24.34,-89.58,-55.19,828,871,831,837,874,33.333333333333336,-0.409,-0.907,0.01
68924,1755585152045,24.36,-89.59,-55.19,828,869,827,828,856,33.333333333333336,-0.405,-0.91,0.008
68953,1755585152075,24.29,-89.52,-55.2,828,859,836,835,835,34.48275862068966,-0.405,-0.909,0.005
68983,1755585152104,24.26,-89.53,-55.21,833,860,833,835,842,33.333333333333336,-0.407,-0.908,0.007
69012,1755585152134,24.3,-89.49,-55.19,825,869,830,839,860,34.48275862068966,-0.41,-0.909,0.012
69042,1755585152163,24.28,-89.47,-55.16,832,861,838,835,847,33.333333333333336,-0.406,-0.909,0.009
69071,1755585152193,24.29,-89.41,-55.14,833,859,845,822,851,34.48275862068966,-0.405,-0.912,0.009
69101,1755585152223,24.28,-89.38,-55.13,837,864,835,834,842,33.333333333333336,-0.405,-0.909,0.009
69131,1755585152252,24.27,-89.35,-55.11,830,862,826,840,852,33.333333333333336,-0.41,-0.909,0.011
69160,1755585152281,24.29,-89.3,-55.08,834,873,844,830,843,34.48275862068966,-0.412,-0.909,0.01
69190,1755585152311,24.27,-89.28,-55.06,831,862,835,833,848,33.333333333333336,-0.411,-0.904,0.008
69219,1755585152341,24.28,-89.33,-55.09,830,871,830,837,846,34.48275862068966,-0.413,-0.904,0.01
69249,1755585152370,24.28,-89.28,-55.1,831,862,826,825,844,33.333333333333336,-0.414,-0.906,0.013
69278,1755585152400,24.26,-89.25,-55.1,829,866,824,831,842,34.48275862068966,-0.41,-0.907,0.01
69308,1755585152429,24.24,-89.25,-55.14,837,857,834,835,850,33.333333333333336,-0.41,-0.908,0.01
69337,1755585152459,24.17,-89.13,-55.16,827,865,822,832,844,34.48275862068966,-0.408,-0.906,0.013
69367,1755585152488,24.2,-89.12,-55.16,825,860,836,834,841,33.333333333333336,-0.409,-0.909,0.014
69396,1755585152518,24.24,-89.11,-55.13,830,870,839,832,840,34.48275862068966,-0.407,-0.908,0.012
69426,1755585152548,24.2,-89.1,-55.16,829,863,831,837,851,33.333333333333336,-0.408,-0.907,0.014
69456,1755585152578,24.23,-89.06,-55.17,831,862,830,834,845,33.333333333333336,-0.413,-0.907,0.019
69486,1755585152607,24.28,-89.02,-55.13,828,870,821,834,844,33.333333333333336,-0.412,-0.908,0.02
69515,1755585152637,24.28,-89.0,-55.12,828,861,826,837,844,34.48275862068966,-0.408,-0.906,0.017
69545,1755585152666,24.28,-89.03,-55.16,836,867,831,832,852,33.333333333333336,-0.41,-0.906,0.016
69574,1755585152696,24.28,-89.01,-55.17,834,862,830,850,844,34.48275862068966,-0.412,-0.906,0.018
69604,1755585152726,24.75,-89.02,-55.17,830,863,820,827,848,33.333333333333336,-0.412,-0.908,0.021
69634,1755585152755,24.71,-88.9,-55.15,830,861,843,838,845,33.333333333333336,-0.409,-0.908,0.021
69663,1755585152785,24.67,-88.9,-55.17,825,878,833,836,850,34.48275862068966,-0.408,-0.907,0.018
69693,1755585152814,24.63,-88.74,-55.05,824,873,826,833,849,33.333333333333336,-0.407,-0.908,0.021
69722,1755585152844,24.59,-88.74,-55.03,825,868,825,837,845,34.48275862068966,-0.407,-0.906,0.017
69752,1755585152874,24.61,-88.84,-55.03,831,869,835,833,850,33.333333333333336,-0.407,-0.906,0.019
69782,1755585152903,24.59,-88.83,-55.03,826,856,836,831,854,33.333333333333336,-0.406,-0.909,0.022
69811,1755585152933,24.54,-88.79,-55.03,830,865,832,845,839,34.48275862068966,-0.406,-0.906,0.023
69841,1755585152962,24.58,-88.79,-55.05,835,860,827,838,844,33.333333333333336,-0.411,-0.904,0.022
69870,1755585152992,24.55,-88.79,-55.07,829,868,823,828,844,34.48275862068966,-0.413,-0.904,0.022
69900,1755585153022,24.5,-88.78,-55.08,828,873,824,834,836,33.333333333333336,-0.411,-0.907,0.022
69930,1755585153051,24.54,-88.78,-55.06,829,861,833,824,844,33.333333333333336,-0.41,-0.908,0.024
69959,1755585153081,24.56,-88.81,-55.07,832,864,831,835,835,34.48275862068966,-0.409,-0.905,0.024
69989,1755585153111,24.54,-88.79,-55.11,834,846,829,839,848,33.333333333333336,-0.413,-0.904,0.022
70019,1755585153140,24.53,-88.82,-55.12,836,873,835,835,839,33.333333333333336,-0.413,-0.905,0.021
70048,1755585153169,24.57,-88.82,-55.1,835,862,826,841,840,34.48275862068966,-0.411,-0.906,0.024
70077,1755585153199,24.56,-88.8,-55.13,830,864,827,840,844,34.48275862068966,-0.409,-0.904,0.025
70107,1755585153229,24.56,-88.8,-55.16,825,871,840,836,855,33.333333333333336,-0.412,-0.904,0.023
70137,1755585153258,24.59,-88.79,-55.15,834,872,815,842,843,33.333333333333336,-0.415,-0.904,0.021
70166,1755585153288,24.6,-88.82,-55.13,831,860,830,836,841,34.48275862068966,-0.412,-0.907,0.019
70186,1755585153308,24.59,-88.85,-55.13,831,866,838,833,848,50.0,-0.408,-0.907,0.021
70216,1755585153337,24.6,-88.82,-55.14,835,860,829,832,847,33.333333333333336,-0.408,-0.906,0.026
70245,1755585153367,24.62,-88.76,-55.16,826,867,830,841,837,34.48275862068966,-0.412,-0.906,0.026
70275,1755585153397,24.63,-88.72,-55.16,833,862,831,836,842,33.333333333333336,-0.413,-0.905,0.021
70305,1755585153426,24.65,-88.73,-55.15,831,867,830,831,851,33.333333333333336,-0.412,-0.905,0.018
70334,1755585153456,24.66,-88.83,-55.16,829,864,826,834,850,34.48275862068966,-0.412,-0.904,0.02
70364,1755585153485,24.69,-88.82,-55.18,832,864,825,829,849,33.333333333333336,-0.413,-0.904,0.025
70393,1755585153515,24.69,-88.73,-55.19,830,865,823,841,831,34.48275862068966,-0.412,-0.905,0.021
70423,1755585153545,24.7,-88.77,-55.18,830,859,823,835,853,33.333333333333336,-0.412,-0.905,0.016
70453,1755585153575,24.73,-88.82,-55.17,832,869,829,829,832,33.333333333333336,-0.411,-0.905,0.018
70482,1755585153604,24.71,-88.78,-55.21,842,867,834,841,851,34.48275862068966,-0.411,-0.904,0.022
70512,1755585153634,24.69,-88.72,-55.23,827,872,838,856,846,33.333333333333336,-0.413,-0.905,0.021
70542,1755585153664,24.71,-88.71,-55.21,838,859,830,832,846,33.333333333333336,-0.414,-0.907,0.02
70571,1755585153693,24.74,-88.74,-55.19,835,877,814,832,843,34.48275862068966,-0.411,-0.905,0.018
70601,1755585153723,24.74,-88.74,-55.21,825,858,825,832,843,33.333333333333336,-0.412,-0.904,0.019
70631,1755585153752,24.72,-88.75,-55.23,833,863,837,832,852,33.333333333333336,-0.414,-0.904,0.021
70660,1755585153782,24.72,-88.71,-55.21,833,863,829,836,843,34.48275862068966,-0.413,-0.906,0.022
70690,1755585153811,24.74,-88.69,-55.2,827,870,833,827,844,33.333333333333336,-0.411,-0.905,0.02
70719,1755585153841,24.73,-88.74,-55.22,831,876,841,841,839,34.48275862068966,-0.411,-0.904,0.02
70749,1755585153870,24.76,-88.73,-55.23,830,869,821,838,848,33.333333333333336,-0.414,-0.903,0.023
70778,1755585153900,24.76,-88.7,-55.24,835,862,847,834,840,34.48275862068966,-0.413,-0.904,0.021
70808,1755585153930,24.72,-88.66,-55.24,836,861,839,837,844,33.333333333333336,-0.413,-0.905,0.02
70838,1755585153959,24.76,-88.71,-55.21,832,881,841,846,842,33.333333333333336,-0.411,-0.905,0.021
70867,1755585153989,24.79,-88.7,-55.24,825,867,840,829,841,34.48275862068966,-0.412,-0.901,0.022
70887,1755585154009,24.78,-88.68,-55.27,827,867,824,840,837,50.0,-0.416,-0.901,0.024
70917,1755585154039,24.79,-88.67,-55.29,837,875,828,838,852,33.333333333333336,-0.417,-0.903,0.023
70947,1755585154068,24.83,-88.66,-55.29,826,862,823,836,851,33.333333333333336,-0.413,-0.904,0.021
70976,1755585154098,24.8,-88.64,-55.31,830,876,826,834,837,34.48275862068966,-0.41,-0.906,0.019
71006,1755585154128,24.8,-88.67,-55.32,832,862,833,837,852,33.333333333333336,-0.409,-0.905,0.021
71036,1755585154158,24.87,-88.66,-55.34,830,870,832,835,837,33.333333333333336,-0.412,-0.904,0.024
71066,1755585154187,24.81,-88.59,-55.35,834,863,831,840,841,33.333333333333336,-0.412,-0.907,0.02
71095,1755585154217,24.8,-88.68,-55.34,828,863,831,831,846,34.48275862068966,-0.41,-0.906,0.015
71125,1755585154246,24.82,-88.76,-55.34,836,867,837,843,842,33.333333333333336,-0.412,-0.907,0.02
71154,1755585154276,24.76,-88.7,-55.33,827,863,844,828,839,34.48275862068966,-0.413,-0.907,0.026
71184,1755585154306,24.8,-88.65,-55.31,826,865,831,834,849,33.333333333333336,-0.411,-0.905,0.02
71213,1755585154335,24.81,-88.65,-55.32,837,876,826,840,834,34.48275862068966,-0.412,-0.906,0.016
71243,1755585154365,24.82,-88.66,-55.3,828,871,825,827,848,33.333333333333336,-0.413,-0.907,0.021
71273,1755585154394,24.91,-88.64,-55.27,829,852,830,835,854,33.333333333333336,-0.413,-0.905,0.023
71302,1755585154424,24.88,-88.61,-55.3,826,860,819,831,846,34.48275862068966,-0.412,-0.902,0.02
71332,1755585154453,24.83,-88.6,-55.34,848,867,852,833,839,33.333333333333336,-0.412,-0.903,0.017
71361,1755585154483,24.85,-88.6,-55.35,833,864,834,835,851,34.48275862068966,-0.412,-0.905,0.017
71391,1755585154512,24.86,-88.62,-55.35,827,870,834,836,845,33.333333333333336,-0.411,-0.903,0.016
71420,1755585154542,24.87,-88.67,-55.38,827,862,827,835,845,34.48275862068966,-0.412,-0.904,0.019
71450,1755585154571,24.86,-88.64,-55.37,832,868,832,827,841,33.333333333333336,-0.413,-0.906,0.02
71479,1755585154601,24.85,-88.62,-55.35,832,863,837,838,845,34.48275862068966,-0.413,-0.907,0.018
71509,1755585154631,24.85,-88.66,-55.36,834,855,828,837,848,33.333333333333336,-0.41,-0.902,0.02
71539,1755585154661,24.84,-88.65,-55.41,832,857,830,826,855,33.333333333333336,-0.413,-0.902,0.024
71569,1755585154690,24.82,-88.61,-55.42,830,862,818,826,847,33.333333333333336,-0.415,-0.905,0.019
71598,1755585154720,24.83,-88.67,-55.4,843,870,837,833,842,34.48275862068966,-0.41,-0.904,0.018
71628,1755585154750,24.81,-88.63,-55.45,829,868,833,839,839,33.333333333333336,-0.411,-0.905,0.021
71658,1755585154779,24.81,-88.61,-55.44,833,865,826,827,839,33.333333333333336,-0.413,-0.908,0.022
71687,1755585154809,24.89,-88.61,-55.4,831,867,826,827,876,34.48275862068966,-0.412,-0.907,0.023
71717,1755585154839,24.89,-88.57,-55.42,821,863,835,832,834,33.333333333333336,-0.412,-0.904,0.021
71747,1755585154869,24.83,-88.56,-55.45,818,867,835,834,865,33.333333333333336,-0.413,-0.905,0.018
71776,1755585154898,24.88,-88.62,-55.43,830,867,831,835,842,34.48275862068966,-0.414,-0.905,0.019
71806,1755585154927,24.89,-88.67,-55.41,833,866,826,834,842,33.333333333333336,-0.409,-0.905,0.023
71835,1755585154957,24.88,-88.55,-55.43,823,863,836,827,847,34.48275862068966,-0.41,-0.906,0.025
71865,1755585154987,24.86,-88.49,-55.43,822,874,809,836,841,33.333333333333336,-0.411,-0.907,0.017
71895,1755585155016,24.9,-88.63,-55.37,822,871,832,841,843,33.333333333333336,-0.413,-0.904,0.008
71924,1755585155046,24.96,-88.79,-55.37,828,867,833,835,846,34.48275862068966,-0.413,-0.903,0.015
71954,1755585155075,24.89,-88.68,-55.41,830,865,828,842,849,33.333333333333336,-0.412,-0.905,0.025
71983,1755585155105,24.87,-88.62,-55.43,833,875,836,840,871,34.48275862068966,-0.411,-0.906,0.019
72013,1755585155134,24.98,-88.7,-55.39,835,873,833,837,851,33.333333333333336,-0.413,-0.905,0.017
72042,1755585155164,24.94,-88.74,-55.39,830,858,831,834,841,34.48275862068966,-0.412,-0.903,0.019
72072,1755585155194,24.92,-88.74,-55.4,836,870,839,828,852,33.333333333333336,-0.415,-0.904,0.018
72102,1755585155224,24.91,-88.77,-55.39,827,863,833,839,840,33.333333333333336,-0.415,-0.907,0.017
72132,1755585155253,24.82,-88.76,-55.37,832,867,833,843,840,33.333333333333336,-0.411,-0.908,0.015
72161,1755585155284,24.83,-88.82,-55.36,823,861,814,839,841,34.48275862068966,-0.412,-0.906,0.015
72191,1755585155313,24.83,-88.84,-55.35,834,867,832,842,847,33.333333333333336,-0.414,-0.907,0.018
72221,1755585155342,24.79,-88.85,-55.31,827,881,829,837,845,33.333333333333336,-0.412,-0.907,0.017
72250,1755585155372,24.78,-88.85,-55.32,831,858,827,834,842,34.48275862068966,-0.414,-0.905,0.017
72280,1755585155402,24.7,-88.87,-55.33,824,866,835,841,838,33.333333333333336,-0.417,-0.904,0.017
72309,1755585155431,24.72,-88.88,-55.29,831,857,819,842,848,34.48275862068966,-0.416,-0.905,0.017
72339,1755585155461,24.73,-88.93,-55.29,827,872,834,839,842,33.333333333333336,-0.414,-0.904,0.016
72369,1755585155490,24.66,-88.91,-55.32,828,870,832,816,868,33.333333333333336,-0.415,-0.904,0.015
72398,1755585155520,24.69,-88.96,-55.32,830,870,834,836,844,34.48275862068966,-0.416,-0.903,0.015
72428,1755585155549,24.72,-89.02,-55.33,830,862,825,836,847,33.333333333333336,-0.415,-0.903,0.016
72457,1755585155579,24.68,-89.01,-55.37,831,868,832,836,837,34.48275862068966,-0.414,-0.904,0.016
72487,1755585155609,24.71,-89.04,-55.4,826,862,843,843,843,33.333333333333336,-0.412,-0.905,0.016
72516,1755585155638,24.71,-89.05,-55.44,835,863,822,832,840,34.48275862068966,-0.413,-0.906,0.015
72546,1755585155668,24.71,-88.99,-55.56,830,861,832,827,848,33.333333333333336,-0.41,-0.906,0.016
72576,1755585155697,24.7,-88.97,-55.62,825,864,835,841,841,33.333333333333336,-0.409,-0.907,0.016
72605,1755585155727,24.7,-88.97,-55.63,836,870,838,828,845,34.48275862068966,-0.411,-0.908,0.015
72635,1755585155756,24.73,-88.98,-55.66,836,873,830,831,848,33.333333333333336,-0.41,-0.905,0.015
72664,1755585155787,24.71,-88.97,-55.77,830,862,827,833,847,34.48275862068966,-0.409,-0.905,0.014
72694,1755585155816,24.65,-89.0,-55.84,831,876,818,849,836,33.333333333333336,-0.41,-0.908,0.012
72724,1755585155845,24.61,-89.08,-55.9,820,859,837,836,851,33.333333333333336,-0.407,-0.907,0.012
72753,1755585155875,24.57,-89.12,-55.93,832,862,835,833,844,34.48275862068966,-0.406,-0.91,0.018
72783,1755585155905,24.55,-89.1,-55.93,829,863,837,842,845,33.333333333333336,-0.404,-0.911,0.018
72812,1755585155934,24.59,-89.1,-55.92,829,876,832,826,857,34.48275862068966,-0.409,-0.911,0.015
72842,1755585155964,24.63,-89.06,-55.89,834,865,829,826,853,33.333333333333336,-0.406,-0.91,0.015
72872,1755585155993,24.65,-89.14,-55.89,825,877,826,837,838,33.333333333333336,-0.404,-0.908,0.017
72901,1755585156023,24.68,-89.11,-55.91,831,866,827,832,840,34.48275862068966,-0.409,-0.907,0.018
72931,1755585156053,24.64,-89.09,-55.9,827,868,831,837,843,33.333333333333336,-0.41,-0.908,0.014
72961,1755585156082,24.69,-89.17,-55.88,831,860,833,845,854,33.333333333333336,-0.408,-0.907,0.01
72990,1755585156112,24.67,-89.27,-55.91,827,865,837,833,846,34.48275862068966,-0.408,-0.906,0.011
73020,1755585156142,24.58,-89.38,-55.94,830,861,828,826,841,33.333333333333336,-0.412,-0.906,0.013
73049,1755585156171,24.64,-89.38,-55.93,827,869,822,842,842,34.48275862068966,-0.41,-0.906,0.017
73079,1755585156200,24.64,-89.34,-55.92,835,869,819,843,846,33.333333333333336,-0.407,-0.908,0.013
73108,1755585156230,24.63,-89.4,-55.92,831,871,826,836,847,34.48275862068966,-0.404,-0.906,0.005
73138,1755585156260,24.67,-89.51,-55.94,833,866,837,834,845,33.333333333333336,-0.407,-0.906,0.008
73168,1755585156289,24.67,-89.44,-55.95,827,860,828,837,837,33.333333333333336,-0.409,-0.908,0.011
73197,1755585156319,24.64,-89.44,-55.93,834,866,823,832,839,34.48275862068966,-0.406,-0.91,0.005
73227,1755585156348,24.69,-89.51,-55.92,830,862,823,840,844,33.333333333333336,-0.406,-0.907,0.005
73256,1755585156378,24.7,-89.55,-55.96,831,879,832,835,837,34.48275862068966,-0.412,-0.906,0.006
73286,1755585156408,24.68,-89.52,-55.97,830,866,835,835,844,33.333333333333336,-0.413,-0.908,0.005
73315,1755585156437,24.67,-89.59,-55.95,831,874,835,842,848,34.48275862068966,-0.407,-0.908,0.003
73345,1755585156466,24.65,-89.67,-55.92,833,865,827,834,846,33.333333333333336,-0.405,-0.91,0.002
73374,1755585156496,24.62,-89.69,-55.92,826,862,823,829,844,34.48275862068966,-0.404,-0.91,0.005
73404,1755585156526,24.62,-89.62,-55.94,832,866,828,837,845,33.333333333333336,-0.406,-0.907,0.007
73434,1755585156556,24.57,-89.62,-55.98,826,870,827,828,839,33.333333333333336,-0.41,-0.906,0.007
73463,1755585156585,24.54,-89.62,-55.96,826,865,830,834,846,34.48275862068966,-0.411,-0.909,0.004
73493,1755585156615,24.55,-89.73,-55.93,833,868,829,825,851,33.333333333333336,-0.407,-0.907,0.0
73523,1755585156645,24.6,-89.8,-55.9,833,859,843,835,842,33.333333333333336,-0.407,-0.909,0.005
73553,1755585156674,24.55,-89.76,-55.91,828,872,831,827,843,33.333333333333336,-0.404,-0.906,0.005
73582,1755585156704,24.54,-89.73,-55.93,826,867,836,833,853,34.48275862068966,-0.406,-0.906,0.004
73612,1755585156734,24.61,-89.77,-55.93,837,864,829,827,874,33.333333333333336,-0.409,-0.907,0.002
73642,1755585156763,24.6,-89.82,-55.92,832,863,833,827,844,33.333333333333336,-0.407,-0.906,0.004
73671,1755585156793,24.61,-89.79,-55.94,829,862,821,829,842,34.48275862068966,-0.408,-0.907,0.006
73701,1755585156822,24.61,-89.76,-55.93,825,866,832,828,842,33.333333333333336,-0.41,-0.908,0.003
73730,1755585156852,24.64,-89.78,-55.9,827,867,822,831,842,34.48275862068966,-0.407,-0.907,-0.002
73760,1755585156882,24.65,-89.86,-55.93,831,867,818,844,852,33.333333333333336,-0.406,-0.905,-0.003
73790,1755585156911,24.63,-89.88,-55.96,837,855,838,840,852,33.333333333333336,-0.411,-0.908,0.002
73819,1755585156941,24.66,-89.83,-55.93,829,863,836,837,834,34.48275862068966,-0.41,-0.908,0.001
73849,1755585156970,24.68,-89.82,-55.94,828,868,838,833,849,33.333333333333336,-0.407,-0.907,-0.002
73878,1755585157000,24.64,-89.81,-55.96,836,860,830,836,845,34.48275862068966,-0.407,-0.907,-0.003
73908,1755585157030,24.65,-89.89,-55.96,829,859,828,829,838,33.333333333333336,-0.408,-0.908,-0.003
73938,1755585157059,24.72,-89.88,-55.94,831,864,835,816,847,33.333333333333336,-0.408,-0.908,0.001
73967,1755585157089,24.72,-89.86,-55.95,831,865,834,844,838,34.48275862068966,-0.407,-0.908,0.002
73997,1755585157119,24.68,-89.86,-55.99,830,858,835,833,868,33.333333333333336,-0.408,-0.906,-0.003
74027,1755585157148,24.67,-89.88,-56.02,832,865,822,834,846,33.333333333333336,-0.411,-0.906,-0.005
74056,1755585157178,24.68,-89.92,-56.03,830,858,833,839,857,34.48275862068966,-0.408,-0.907,-0.001
74086,1755585157208,24.67,-89.86,-56.05,825,863,841,837,846,33.333333333333336,-0.405,-0.91,0.002
74116,1755585157237,24.66,-89.82,-56.02,830,870,841,831,829,33.333333333333336,-0.406,-0.911,-0.003
74145,1755585157267,24.69,-89.88,-56.01,833,861,828,849,847,34.48275862068966,-0.406,-0.907,-0.006
74175,1755585157297,24.69,-89.9,-56.01,824,872,836,834,839,33.333333333333336,-0.409,-0.908,-0.002
74204,1755585157326,24.66,-89.83,-55.99,823,858,828,839,858,34.48275862068966,-0.408,-0.909,-0.001
74234,1755585157356,24.67,-89.86,-55.98,828,864,838,827,845,33.333333333333336,-0.407,-0.907,-0.001
74264,1755585157386,24.68,-89.85,-55.97,826,852,818,837,847,33.333333333333336,-0.408,-0.908,-0.001
74293,1755585157415,24.64,-89.86,-55.98,825,865,833,825,855,34.48275862068966,-0.409,-0.907,-0.006
74323,1755585157445,24.65,-89.9,-55.98,834,867,826,835,860,33.333333333333336,-0.41,-0.906,-0.006
74353,1755585157474,24.64,-89.94,-55.97,825,865,837,837,851,33.333333333333336,-0.409,-0.906,-0.002
74382,1755585157504,24.63,-89.97,-55.99,828,863,823,838,847,34.48275862068966,-0.407,-0.906,-0.002
74412,1755585157533,24.63,-89.98,-55.99,838,854,823,835,846,33.333333333333336,-0.409,-0.907,-0.003
74441,1755585157563,24.61,-89.99,-55.98,831,871,819,834,849,34.48275862068966,-0.409,-0.906,-0.004
74471,1755585157592,24.64,-90.03,-55.99,830,876,827,829,833,33.333333333333336,-0.408,-0.906,-0.002
74500,1755585157622,24.63,-89.98,-56.0,830,860,824,839,851,34.48275862068966,-0.408,-0.907,-0.002
74530,1755585157652,24.64,-89.95,-55.99,830,868,829,832,847,33.333333333333336,-0.41,-0.908,-0.005
74560,1755585157681,24.67,-90.03,-55.98,826,865,821,839,846,33.333333333333336,-0.41,-0.905,-0.007
74589,1755585157711,24.68,-90.08,-55.99,833,873,829,839,849,34.48275862068966,-0.411,-0.905,-0.004
74619,1755585157741,24.68,-90.07,-56.0,830,866,831,834,838,33.333333333333336,-0.411,-0.906,-0.004
74649,1755585157770,24.67,-90.04,-55.98,832,866,832,828,843,33.333333333333336,-0.41,-0.908,-0.006
74678,1755585157800,24.69,-90.07,-55.99,832,852,836,830,855,34.48275862068966,-0.408,-0.907,-0.006
74708,1755585157830,24.68,-90.08,-56.01,834,866,834,828,840,33.333333333333336,-0.409,-0.906,-0.006
74738,1755585157860,24.67,-90.07,-56.02,821,869,820,837,847,33.333333333333336,-0.41,-0.907,-0.007
74768,1755585157889,24.69,-90.09,-56.0,829,866,841,828,846,33.333333333333336,-0.411,-0.907,-0.007
74797,1755585157919,24.68,-90.11,-56.01,833,872,828,840,843,34.48275862068966,-0.412,-0.908,-0.008
74827,1755585157949,24.63,-90.12,-56.01,821,855,819,845,845,33.333333333333336,-0.413,-0.908,-0.008
74857,1755585157979,24.67,-90.15,-56.0,833,866,831,835,845,33.333333333333336,-0.411,-0.909,-0.005
74877,1755585157999,24.69,-90.14,-56.0,831,870,827,832,850,50.0,-0.409,-0.908,-0.003
74907,1755585158028,24.69,-90.12,-56.01,826,861,829,835,846,33.333333333333336,-0.411,-0.908,-0.005
74936,1755585158058,24.71,-90.09,-56.01,832,858,837,840,840,34.48275862068966,-0.412,-0.907,-0.007
74966,1755585158087,24.69,-90.12,-56.02,833,869,838,834,846,33.333333333333336,-0.408,-0.908,-0.009
74995,1755585158117,24.68,-90.11,-56.03,830,865,832,839,839,34.48275862068966,-0.408,-0.908,-0.008
75025,1755585158147,24.69,-90.14,-56.04,827,866,832,834,839,33.333333333333336,-0.41,-0.909,-0.006
75055,1755585158176,24.7,-90.13,-56.02,833,859,832,836,844,33.333333333333336,-0.411,-0.907,-0.005
75084,1755585158206,24.7,-90.11,-56.04,832,876,832,834,849,34.48275862068966,-0.41,-0.906,-0.006
75114,1755585158235,24.67,-90.14,-56.05,826,861,825,830,842,33.333333333333336,-0.41,-0.908,-0.008
75143,1755585158265,24.7,-90.15,-56.03,830,872,840,827,841,34.48275862068966,-0.41,-0.907,-0.006
75173,1755585158295,24.71,-90.16,-56.04,830,865,823,830,844,33.333333333333336,-0.409,-0.907,-0.005
75203,1755585158324,24.69,-90.14,-56.04,830,877,852,839,832,33.333333333333336,-0.411,-0.906,-0.006
75232,1755585158354,24.71,-90.14,-56.04,826,859,831,836,843,34.48275862068966,-0.411,-0.907,-0.007
75262,1755585158384,24.67,-90.16,-56.05,838,867,833,832,844,33.333333333333336,-0.41,-0.907,-0.007
75292,1755585158413,24.66,-90.18,-56.06,831,870,825,834,838,33.333333333333336,-0.41,-0.907,-0.006
75321,1755585158443,24.66,-90.19,-56.05,826,860,836,840,848,34.48275862068966,-0.411,-0.907,-0.006
75351,1755585158472,24.66,-90.2,-56.04,832,871,831,828,841,33.333333333333336,-0.41,-0.907,-0.006
75380,1755585158502,24.68,-90.22,-56.05,835,867,835,837,846,34.48275862068966,-0.411,-0.908,-0.004
75410,1755585158532,24.65,-90.19,-56.05,832,871,821,827,860,33.333333333333336,-0.411,-0.906,-0.005
75440,1755585158561,24.66,-90.2,-56.05,823,855,828,833,839,33.333333333333336,-0.413,-0.906,-0.006
75469,1755585158591,24.66,-90.27,-56.06,845,857,832,838,840,34.48275862068966,-0.412,-0.905,-0.007
75499,1755585158621,24.63,-90.29,-56.08,832,871,824,846,850,33.333333333333336,-0.409,-0.907,-0.004
75529,1755585158651,24.63,-90.2,-56.1,832,866,837,831,841,33.333333333333336,-0.408,-0.908,-0.003
75558,1755585158680,24.57,-90.19,-56.12,833,864,827,826,845,34.48275862068966,-0.408,-0.906,-0.007
75588,1755585158710,24.52,-90.29,-56.18,835,879,841,842,848,33.333333333333336,-0.408,-0.904,-0.01
75617,1755585158739,24.5,-90.43,-56.25,823,862,831,830,843,34.48275862068966,-0.41,-0.907,-0.008
75647,1755585158769,24.46,-90.41,-56.29,832,869,832,827,843,33.333333333333336,-0.412,-0.909,-0.003
75677,1755585158798,24.47,-90.37,-56.31,832,858,823,842,839,33.333333333333336,-0.411,-0.91,-0.002
75706,1755585158828,24.41,-90.36,-56.33,832,868,824,835,844,34.48275862068966,-0.409,-0.908,-0.004
75736,1755585158858,24.45,-90.38,-56.34,831,866,839,834,847,33.333333333333336,-0.408,-0.909,-0.006
75765,1755585158887,24.41,-90.32,-56.39,832,864,833,853,845,34.48275862068966,-0.405,-0.911,-0.005
75795,1755585158917,24.34,-90.2,-56.43,829,868,842,829,838,33.333333333333336,-0.406,-0.912,-0.003
75825,1755585158946,24.37,-90.17,-56.46,822,862,834,839,846,33.333333333333336,-0.406,-0.908,-0.005
75854,1755585158976,24.36,-90.22,-56.46,835,869,830,836,853,34.48275862068966,-0.41,-0.907,-0.008
75884,1755585159005,24.27,-90.32,-56.51,832,869,834,832,846,33.333333333333336,-0.408,-0.907,-0.009
75913,1755585159035,24.18,-90.31,-56.6,835,869,833,839,845,34.48275862068966,-0.403,-0.908,-0.004
75943,1755585159065,24.1,-90.28,-56.67,828,867,830,824,849,33.333333333333336,-0.401,-0.91,-0.001
75973,1755585159095,24.1,-90.23,-56.68,833,854,832,837,833,33.333333333333336,-0.403,-0.908,-0.005
76002,1755585159124,24.11,-90.32,-56.7,834,872,828,833,874,34.48275862068966,-0.403,-0.906,-0.006
76032,1755585159154,24.04,-90.37,-56.74,832,867,835,830,843,33.333333333333336,-0.403,-0.909,-0.003
76062,1755585159184,24.01,-90.35,-56.79,839,868,831,834,847,33.333333333333336,-0.398,-0.91,-0.002
76082,1755585159203,24.03,-90.32,-56.8,824,858,839,834,845,50.0,-0.398,-0.911,-0.001
76111,1755585159233,24.09,-90.28,-56.81,822,870,835,843,847,34.48275862068966,-0.401,-0.91,-0.001
76141,1755585159263,24.06,-90.3,-56.85,825,858,832,835,848,33.333333333333336,-0.4,-0.909,-0.005
76171,1755585159292,24.04,-90.37,-56.94,826,851,827,833,846,33.333333333333336,-0.397,-0.909,-0.009
76200,1755585159322,24.02,-90.37,-57.02,828,863,826,832,857,34.48275862068966,-0.395,-0.912,-0.005
76230,1755585159352,24.1,-90.24,-57.06,826,861,842,839,845,33.333333333333336,-0.396,-0.913,0.001
76260,1755585159382,24.16,-90.12,-57.14,823,863,834,846,852,33.333333333333336,-0.391,-0.909,-0.004
76289,1755585159411,24.1,-90.28,-57.21,828,861,826,829,843,34.48275862068966,-0.393,-0.911,-0.012
76319,1755585159441,24.02,-90.63,-57.35,830,859,827,850,867,33.333333333333336,-0.391,-0.907,-0.013
76349,1755585159471,23.89,-90.72,-57.46,828,865,832,835,856,33.333333333333336,-0.393,-0.913,-0.004
76369,1755585159491,23.82,-90.6,-57.52,823,860,845,843,855,50.0,-0.39,-0.917,-0.001
76398,1755585159520,23.81,-90.46,-57.57,835,867,832,840,849,34.48275862068966,-0.387,-0.915,-0.003
76428,1755585159550,23.77,-90.6,-57.66,836,851,841,833,850,33.333333333333336,-0.386,-0.914,-0.006
76458,1755585159580,23.76,-90.62,-57.69,834,869,832,837,845,33.333333333333336,-0.39,-0.918,-0.008
76488,1755585159609,23.74,-90.66,-57.67,826,873,825,828,851,33.333333333333336,-0.39,-0.919,-0.006
76517,1755585159639,23.76,-90.61,-57.64,827,860,835,840,854,34.48275862068966,-0.388,-0.919,-0.003
76547,1755585159668,23.77,-90.58,-57.61,823,867,831,834,857,33.333333333333336,-0.387,-0.917,-0.006
76576,1755585159698,23.81,-90.61,-57.59,832,866,835,839,836,34.48275862068966,-0.389,-0.916,-0.009
76606,1755585159728,23.75,-90.74,-57.59,831,867,842,838,858,33.333333333333336,-0.388,-0.915,-0.011
76636,1755585159757,23.74,-90.79,-57.58,824,873,832,825,843,33.333333333333336,-0.387,-0.915,-0.009
76665,1755585159788,23.78,-90.81,-57.56,824,873,837,825,847,34.48275862068966,-0.386,-0.917,-0.006
