timestamp_ms,recv_timestamp_ms,pitch,roll,yaw,flex1,flex2,flex3,flex4,flex5,sampling_hz,accel_x,accel_y,accel_z
94218,1755585177340,23.7,-93.06,-59.95,826,854,826,832,861,33.333333333333336,-0.395,-0.909,-0.048
94248,1755585177369,23.72,-93.05,-59.94,822,870,817,835,845,33.333333333333336,-0.397,-0.911,-0.049
94277,1755585177399,23.75,-93.06,-59.91,819,849,816,833,828,34.48275862068966,-0.395,-0.912,-0.049
94307,1755585177429,23.74,-93.06,-59.93,823,856,828,829,834,33.333333333333336,-0.393,-0.909,-0.05
94336,1755585177458,23.76,-93.06,-59.98,825,860,814,822,833,34.48275862068966,-0.397,-0.908,-0.049
94366,1755585177488,23.79,-93.06,-59.98,826,860,829,828,845,33.333333333333336,-0.398,-0.912,-0.049
94396,1755585177517,23.82,-93.05,-59.96,820,859,824,836,843,33.333333333333336,-0.395,-0.912,-0.05
94425,1755585177547,23.8,-93.06,-59.97,823,861,823,835,846,34.48275862068966,-0.393,-0.91,-0.051
94455,1755585177577,23.81,-93.05,-59.99,821,863,818,812,854,33.333333333333336,-0.395,-0.91,-0.05
94484,1755585177607,23.86,-93.05,-59.99,824,854,831,830,836,34.48275862068966,-0.396,-0.91,-0.05
94505,1755585177626,23.86,-93.05,-59.99,824,860,821,833,854,47.61904761904762,-0.396,-0.911,-0.051
94534,1755585177656,23.86,-93.07,-59.98,821,862,824,837,845,34.48275862068966,-0.395,-0.912,-0.052
94564,1755585177685,23.87,-93.03,-59.97,825,853,811,838,840,33.333333333333336,-0.395,-0.912,-0.051
94593,1755585177715,23.89,-93.03,-59.97,827,862,808,830,835,34.48275862068966,-0.395,-0.91,-0.052
94623,1755585177745,23.88,-93.02,-59.99,827,856,816,826,845,33.333333333333336,-0.396,-0.909,-0.053
94652,1755585177774,23.87,-93.02,-60.0,821,863,829,839,841,34.48275862068966,-0.396,-0.91,-0.053
94682,1755585177804,23.87,-93.07,-59.99,830,857,824,837,841,33.333333333333336,-0.395,-0.911,-0.053
94711,1755585177834,23.86,-93.05,-60.0,830,853,829,837,831,34.48275862068966,-0.393,-0.911,-0.052
94732,1755585177854,23.84,-93.06,-60.03,820,858,821,826,846,47.61904761904762,-0.394,-0.91,-0.053
94752,1755585177874,23.84,-93.05,-60.03,822,853,820,820,848,50.0,-0.398,-0.912,-0.052
94782,1755585177903,23.86,-93.05,-60.01,815,856,839,834,851,33.333333333333336,-0.398,-0.912,-0.052
94811,1755585177933,23.87,-93.05,-60.01,827,862,830,828,841,34.48275862068966,-0.396,-0.911,-0.052
94841,1755585177963,23.84,-93.08,-60.04,825,853,828,828,841,33.333333333333336,-0.394,-0.912,-0.054
94870,1755585177992,23.84,-93.03,-60.03,822,860,816,831,851,34.48275862068966,-0.396,-0.912,-0.052
94900,1755585178021,23.86,-93.06,-60.02,818,861,817,830,841,33.333333333333336,-0.397,-0.912,-0.051
94929,1755585178051,23.86,-93.06,-60.03,823,872,824,845,845,34.48275862068966,-0.396,-0.911,-0.052
94959,1755585178080,23.87,-93.07,-60.04,822,865,820,829,842,33.333333333333336,-0.396,-0.911,-0.053
94988,1755585178110,23.88,-93.08,-60.03,819,861,827,826,840,34.48275862068966,-0.396,-0.912,-0.052
95018,1755585178139,23.91,-93.05,-60.02,826,851,834,830,850,33.333333333333336,-0.396,-0.911,-0.053
95047,1755585178169,23.93,-93.06,-60.02,825,847,825,833,843,34.48275862068966,-0.397,-0.911,-0.055
95077,1755585178198,23.92,-93.11,-60.03,822,863,813,834,841,33.333333333333336,-0.397,-0.909,-0.054
95106,1755585178228,23.89,-93.13,-60.08,819,861,825,831,837,34.48275862068966,-0.396,-0.909,-0.054
95136,1755585178257,23.89,-93.11,-60.09,826,852,837,828,850,33.333333333333336,-0.398,-0.912,-0.053
95165,1755585178287,23.9,-93.12,-60.06,827,857,825,831,847,34.48275862068966,-0.396,-0.913,-0.053
95195,1755585178317,23.89,-93.14,-60.05,822,853,824,833,839,33.333333333333336,-0.394,-0.91,-0.053
95224,1755585178346,23.87,-93.12,-60.09,821,864,827,833,834,34.48275862068966,-0.397,-0.91,-0.053
95254,1755585178376,23.87,-93.1,-60.08,827,865,823,837,848,33.333333333333336,-0.399,-0.911,-0.054
95284,1755585178405,23.87,-93.12,-60.05,820,869,818,838,843,33.333333333333336,-0.396,-0.912,-0.054
95313,1755585178435,23.83,-93.13,-60.07,826,860,814,823,850,34.48275862068966,-0.394,-0.91,-0.053
95342,1755585178465,23.84,-93.11,-60.1,825,865,839,835,836,34.48275862068966,-0.398,-0.91,-0.051
95372,1755585178494,23.85,-93.11,-60.1,823,857,824,820,837,33.333333333333336,-0.397,-0.91,-0.052
95402,1755585178524,23.84,-93.13,-60.09,824,869,822,837,836,33.333333333333336,-0.396,-0.912,-0.054
95431,1755585178553,23.79,-93.14,-60.08,825,865,825,836,838,34.48275862068966,-0.394,-0.912,-0.053
95461,1755585178583,23.78,-93.14,-60.09,822,850,825,829,840,33.333333333333336,-0.396,-0.911,-0.05
95491,1755585178612,23.78,-93.13,-60.11,817,857,828,829,833,33.333333333333336,-0.397,-0.913,-0.052
95520,1755585178642,23.79,-93.13,-60.07,827,861,815,828,847,34.48275862068966,-0.397,-0.914,-0.053
95550,1755585178672,23.78,-93.12,-60.05,826,850,821,826,848,33.333333333333336,-0.395,-0.911,-0.052
95579,1755585178701,23.79,-93.09,-60.1,820,860,819,812,833,34.48275862068966,-0.396,-0.909,-0.048
95609,1755585178731,23.82,-93.04,-60.11,818,872,822,824,846,33.333333333333336,-0.398,-0.911,-0.052
95638,1755585178760,23.81,-93.09,-60.07,819,864,819,832,847,34.48275862068966,-0.395,-0.913,-0.055
95668,1755585178790,23.77,-93.08,-60.06,818,859,815,833,840,33.333333333333336,-0.394,-0.912,-0.051
95697,1755585178819,23.8,-93.05,-60.07,827,865,826,828,838,34.48275862068966,-0.394,-0.911,-0.046
95727,1755585178849,23.9,-93.01,-60.09,815,855,833,829,842,33.333333333333336,-0.399,-0.91,-0.045
95757,1755585178879,23.95,-92.96,-60.09,819,867,830,833,837,33.333333333333336,-0.398,-0.91,-0.054
95786,1755585178908,23.91,-93.07,-60.09,822,863,838,833,845,34.48275862068966,-0.395,-0.91,-0.056
95816,1755585178938,23.92,-93.09,-60.13,827,851,823,837,841,33.333333333333336,-0.397,-0.91,-0.048
95845,1755585178967,23.96,-93.05,-60.15,819,861,829,829,848,34.48275862068966,-0.398,-0.911,-0.05
95875,1755585178997,23.99,-93.06,-60.12,819,860,823,834,838,33.333333333333336,-0.397,-0.905,-0.054
95904,1755585179026,23.95,-93.1,-60.14,818,866,827,844,850,34.48275862068966,-0.397,-0.906,-0.055
95934,1755585179056,23.94,-93.1,-60.12,826,854,824,833,845,33.333333333333336,-0.396,-0.908,-0.053
95964,1755585179085,23.93,-93.14,-60.11,822,858,831,837,842,33.333333333333336,-0.394,-0.908,-0.051
95993,1755585179115,23.94,-93.17,-60.11,821,860,824,832,833,34.48275862068966,-0.395,-0.909,-0.05
96023,1755585179144,23.95,-93.18,-60.11,820,863,810,839,848,33.333333333333336,-0.397,-0.908,-0.052
96052,1755585179174,23.92,-93.27,-60.16,819,871,817,838,839,34.48275862068966,-0.398,-0.905,-0.056
96082,1755585179204,23.9,-93.24,-60.22,830,859,820,821,845,33.333333333333336,-0.4,-0.906,-0.055
96111,1755585179233,23.85,-93.27,-60.27,831,859,816,834,841,34.48275862068966,-0.399,-0.91,-0.055
96141,1755585179263,23.76,-93.27,-60.25,826,857,813,828,830,33.333333333333336,-0.396,-0.913,-0.06
96170,1755585179292,23.57,-93.39,-60.26,816,866,817,819,840,34.48275862068966,-0.394,-0.911,-0.058
96200,1755585179322,23.55,-93.37,-60.3,821,852,826,829,836,33.333333333333336,-0.396,-0.912,-0.041
96229,1755585179351,23.61,-93.13,-60.32,821,859,826,826,837,34.48275862068966,-0.393,-0.916,-0.041
96259,1755585179381,23.63,-93.16,-60.26,825,860,817,826,847,33.333333333333336,-0.39,-0.916,-0.05
96289,1755585179410,23.69,-93.19,-60.24,827,867,832,835,839,33.333333333333336,-0.393,-0.914,-0.046
96318,1755585179440,23.73,-93.08,-60.26,821,857,829,829,842,34.48275862068966,-0.396,-0.911,-0.055
96347,1755585179469,23.76,-93.1,-60.27,811,856,822,830,842,34.48275862068966,-0.399,-0.91,-0.052
96377,1755585179499,23.8,-93.1,-60.28,824,857,824,834,837,33.333333333333336,-0.397,-0.911,-0.05
96407,1755585179529,23.83,-93.07,-60.29,824,855,828,834,869,33.333333333333336,-0.395,-0.913,-0.052
96436,1755585179558,23.88,-93.08,-60.27,826,867,818,835,843,34.48275862068966,-0.393,-0.914,-0.052
96466,1755585179588,23.9,-93.09,-60.25,822,859,825,823,845,33.333333333333336,-0.394,-0.912,-0.051
96495,1755585179617,23.92,-93.11,-60.26,824,860,824,827,834,34.48275862068966,-0.396,-0.912,-0.05
96525,1755585179647,23.95,-93.1,-60.26,825,862,819,847,840,33.333333333333336,-0.396,-0.912,-0.051
96555,1755585179677,23.93,-93.1,-60.3,817,856,829,832,841,33.333333333333336,-0.395,-0.911,-0.051
96585,1755585179707,23.96,-93.08,-60.31,823,861,822,832,833,33.333333333333336,-0.396,-0.912,-0.05
96615,1755585179736,23.96,-93.1,-60.31,823,857,820,830,846,33.333333333333336,-0.393,-0.913,-0.053
96644,1755585179766,23.91,-93.11,-60.33,831,852,820,837,842,34.48275862068966,-0.392,-0.912,-0.053
96674,1755585179795,23.88,-93.11,-60.36,829,858,817,828,836,33.333333333333336,-0.394,-0.912,-0.05
96703,1755585179825,23.91,-93.1,-60.36,823,861,820,835,821,34.48275862068966,-0.396,-0.912,-0.048
96733,1755585179855,23.92,-93.08,-60.37,824,861,823,826,842,33.333333333333336,-0.396,-0.91,-0.051
96762,1755585179885,23.88,-93.14,-60.41,828,854,827,829,840,34.48275862068966,-0.395,-0.911,-0.05
96792,1755585179914,23.91,-93.13,-60.4,824,853,826,824,836,33.333333333333336,-0.395,-0.913,-0.048
96822,1755585179944,23.94,-93.11,-60.38,823,864,829,830,846,33.333333333333336,-0.395,-0.912,-0.048
96852,1755585179974,23.95,-93.1,-60.43,820,867,826,840,839,33.333333333333336,-0.393,-0.911,-0.049
96881,1755585180003,23.92,-93.1,-60.46,825,843,828,834,846,34.48275862068966,-0.394,-0.912,-0.053
96911,1755585180033,23.9,-93.13,-60.44,822,863,823,835,841,33.333333333333336,-0.395,-0.913,-0.052
96940,1755585180062,23.9,-93.13,-60.43,825,848,832,828,846,34.48275862068966,-0.393,-0.914,-0.047
96970,1755585180092,23.91,-93.07,-60.46,820,860,820,825,837,33.333333333333336,-0.391,-0.912,-0.048
97000,1755585180121,23.89,-93.07,-60.48,827,867,815,829,849,33.333333333333336,-0.395,-0.911,-0.053
97029,1755585180151,23.87,-93.15,-60.47,819,851,815,836,844,34.48275862068966,-0.395,-0.912,-0.051
97059,1755585180181,23.86,-93.16,-60.48,827,847,827,841,857,33.333333333333336,-0.393,-0.914,-0.047
97089,1755585180211,23.91,-93.07,-60.45,823,855,823,828,824,33.333333333333336,-0.393,-0.916,-0.047
97118,1755585180240,23.92,-93.06,-60.45,812,861,825,823,838,34.48275862068966,-0.394,-0.912,-0.052
97148,1755585180270,23.88,-93.13,-60.48,827,859,824,836,833,33.333333333333336,-0.397,-0.911,-0.051
97177,1755585180299,23.88,-93.11,-60.49,822,848,825,838,845,34.48275862068966,-0.395,-0.913,-0.048
97207,1755585180329,23.91,-93.06,-60.48,823,858,824,831,848,33.333333333333336,-0.392,-0.915,-0.05
97236,1755585180358,23.9,-93.1,-60.47,825,858,815,832,842,34.48275862068966,-0.39,-0.915,-0.052
97266,1755585180388,23.89,-93.09,-60.46,826,861,821,827,841,33.333333333333336,-0.393,-0.912,-0.051
97296,1755585180418,23.92,-93.07,-60.47,812,849,820,833,841,33.333333333333336,-0.395,-0.909,-0.052
97325,1755585180448,23.88,-93.13,-60.5,826,865,824,834,848,34.48275862068966,-0.393,-0.91,-0.055
97345,1755585180467,23.84,-93.18,-60.51,823,849,818,829,845,50.0,-0.391,-0.914,-0.056
97375,1755585180497,23.83,-93.16,-60.5,819,861,823,843,815,33.333333333333336,-0.391,-0.914,-0.051
97405,1755585180527,23.84,-93.12,-60.52,819,863,814,838,838,33.333333333333336,-0.392,-0.913,-0.051
97435,1755585180557,23.86,-93.11,-60.53,821,859,827,826,836,33.333333333333336,-0.395,-0.912,-0.054
97464,1755585180587,23.81,-93.15,-60.53,819,865,819,834,846,34.48275862068966,-0.392,-0.912,-0.055
97494,1755585180616,23.77,-93.19,-60.52,828,868,818,832,844,33.333333333333336,-0.39,-0.913,-0.053
97523,1755585180645,23.75,-93.18,-60.51,827,856,821,826,839,34.48275862068966,-0.391,-0.912,-0.052
97553,1755585180675,23.77,-93.17,-60.5,818,854,815,827,845,33.333333333333336,-0.393,-0.91,-0.053
97582,1755585180704,23.73,-93.19,-60.53,830,853,833,833,843,34.48275862068966,-0.393,-0.909,-0.054
97612,1755585180734,23.73,-93.2,-60.53,824,859,824,820,846,33.333333333333336,-0.392,-0.913,-0.05
97642,1755585180763,23.74,-93.18,-60.54,827,862,818,820,839,33.333333333333336,-0.389,-0.913,-0.052
97671,1755585180793,23.74,-93.19,-60.56,823,861,832,833,836,34.48275862068966,-0.393,-0.911,-0.055
97701,1755585180822,23.72,-93.23,-60.59,827,860,839,827,849,33.333333333333336,-0.395,-0.91,-0.054
97730,1755585180852,23.75,-93.19,-60.56,825,876,820,824,839,34.48275862068966,-0.392,-0.913,-0.052
97760,1755585180881,23.77,-93.16,-60.57,824,854,812,830,843,33.333333333333336,-0.39,-0.915,-0.053
97789,1755585180911,23.77,-93.14,-60.57,826,860,834,837,843,34.48275862068966,-0.392,-0.913,-0.056
97809,1755585180931,23.76,-93.17,-60.56,824,865,832,835,844,50.0,-0.395,-0.91,-0.056
97839,1755585180960,23.77,-93.17,-60.57,826,856,829,837,835,33.333333333333336,-0.395,-0.91,-0.054
97868,1755585180990,23.77,-93.14,-60.6,827,862,819,831,831,34.48275862068966,-0.394,-0.913,-0.055
97898,1755585181019,23.76,-93.15,-60.59,829,862,819,833,838,33.333333333333336,-0.392,-0.913,-0.055
97927,1755585181049,23.78,-93.14,-60.58,821,852,820,829,837,34.48275862068966,-0.393,-0.912,-0.053
97957,1755585181079,23.79,-93.13,-60.61,824,861,834,837,849,33.333333333333336,-0.396,-0.912,-0.055
97987,1755585181109,23.76,-93.14,-60.61,824,849,828,826,845,33.333333333333336,-0.395,-0.915,-0.055
98016,1755585181138,23.76,-93.14,-60.58,821,858,822,836,851,34.48275862068966,-0.391,-0.915,-0.052
98046,1755585181168,23.78,-93.12,-60.59,816,856,835,828,842,33.333333333333336,-0.392,-0.912,-0.052
98075,1755585181197,23.8,-93.1,-60.6,821,859,825,828,842,34.48275862068966,-0.397,-0.911,-0.054
98105,1755585181227,23.78,-93.14,-60.59,823,856,825,835,845,33.333333333333336,-0.395,-0.911,-0.055
98134,1755585181256,23.76,-93.12,-60.59,819,862,823,829,834,34.48275862068966,-0.39,-0.913,-0.054
98164,1755585181286,23.77,-93.1,-60.6,831,860,816,830,835,33.333333333333336,-0.391,-0.913,-0.051
98193,1755585181315,23.79,-93.1,-60.59,824,859,822,841,854,34.48275862068966,-0.392,-0.911,-0.052
98223,1755585181345,23.81,-93.08,-60.59,830,852,824,837,838,33.333333333333336,-0.393,-0.911,-0.055
98252,1755585181374,23.77,-93.05,-60.59,819,863,829,825,835,34.48275862068966,-0.393,-0.912,-0.055
98282,1755585181404,23.73,-93.1,-60.6,824,859,821,833,838,33.333333333333336,-0.391,-0.912,-0.053
98311,1755585181433,23.76,-93.13,-60.6,819,852,820,831,850,34.48275862068966,-0.392,-0.913,-0.049
98341,1755585181463,23.83,-93.0,-60.6,819,856,830,830,839,33.333333333333336,-0.394,-0.912,-0.051
98371,1755585181492,23.92,-92.92,-60.56,818,855,821,838,843,33.333333333333336,-0.399,-0.914,-0.052
98400,1755585181522,23.89,-93.0,-60.58,823,858,828,827,834,34.48275862068966,-0.399,-0.914,-0.05
98430,1755585181552,23.88,-92.98,-60.59,828,863,816,834,845,33.333333333333336,-0.398,-0.915,-0.049
98459,1755585181581,23.9,-93.0,-60.58,829,853,844,832,853,34.48275862068966,-0.397,-0.913,-0.051
98489,1755585181611,23.89,-93.04,-60.6,822,863,820,827,831,33.333333333333336,-0.397,-0.913,-0.051
98519,1755585181640,23.9,-93.01,-60.58,828,863,825,842,846,33.333333333333336,-0.398,-0.913,-0.05
98548,1755585181670,23.88,-93.01,-60.6,818,860,832,854,845,34.48275862068966,-0.394,-0.913,-0.051
98578,1755585181700,23.89,-93.03,-60.59,817,862,824,827,842,33.333333333333336,-0.395,-0.913,-0.052
98607,1755585181729,23.9,-93.04,-60.58,820,848,835,835,845,34.48275862068966,-0.396,-0.911,-0.051
98637,1755585181759,23.89,-93.03,-60.61,819,860,822,829,842,33.333333333333336,-0.396,-0.911,-0.051
98667,1755585181788,23.9,-93.02,-60.59,825,858,811,832,844,33.333333333333336,-0.396,-0.913,-0.051
98696,1755585181818,23.87,-93.05,-60.59,827,872,826,839,848,34.48275862068966,-0.394,-0.913,-0.053
98726,1755585181847,23.84,-93.09,-60.6,826,866,818,834,836,33.333333333333336,-0.394,-0.913,-0.051
98755,1755585181877,23.85,-93.07,-60.6,821,855,812,833,833,34.48275862068966,-0.394,-0.911,-0.049
98785,1755585181906,23.88,-93.03,-60.62,827,856,831,831,852,33.333333333333336,-0.395,-0.911,-0.05
98814,1755585181936,23.88,-93.08,-60.61,820,859,810,836,839,34.48275862068966,-0.395,-0.911,-0.051
98844,1755585181966,23.85,-93.14,-60.63,823,864,824,832,837,33.333333333333336,-0.394,-0.912,-0.049
98873,1755585181995,23.86,-93.1,-60.64,825,863,827,836,843,34.48275862068966,-0.396,-0.913,-0.05
98903,1755585182025,23.87,-93.11,-60.64,812,857,823,819,849,33.333333333333336,-0.395,-0.912,-0.052
98932,1755585182055,23.85,-93.12,-60.65,826,858,832,821,836,34.48275862068966,-0.393,-0.912,-0.052
98962,1755585182084,23.87,-93.11,-60.65,823,858,826,828,832,33.333333333333336,-0.394,-0.912,-0.05
98992,1755585182114,23.9,-93.11,-60.65,831,854,832,828,839,33.333333333333336,-0.395,-0.912,-0.051
99021,1755585182143,23.89,-93.12,-60.66,821,864,822,833,844,34.48275862068966,-0.395,-0.912,-0.053
99051,1755585182173,23.87,-93.11,-60.68,819,854,832,834,828,33.333333333333336,-0.393,-0.912,-0.053
99081,1755585182203,23.85,-93.13,-60.7,823,860,825,832,839,33.333333333333336,-0.395,-0.913,-0.053
99110,1755585182232,23.86,-93.09,-60.68,822,854,828,835,837,34.48275862068966,-0.394,-0.913,-0.052
99140,1755585182262,23.85,-93.1,-60.68,825,859,820,827,832,33.333333333333336,-0.392,-0.913,-0.054
99170,1755585182291,23.82,-93.1,-60.68,830,850,832,825,832,33.333333333333336,-0.394,-0.912,-0.054
99199,1755585182321,23.8,-93.12,-60.68,820,863,828,837,843,34.48275862068966,-0.395,-0.912,-0.054
99229,1755585182350,23.79,-93.14,-60.68,822,850,823,835,834,33.333333333333336,-0.395,-0.912,-0.052
99258,1755585182380,23.79,-93.13,-60.69,823,863,829,825,844,34.48275862068966,-0.394,-0.912,-0.051
99287,1755585182410,23.79,-93.13,-60.69,822,855,820,831,840,34.48275862068966,-0.394,-0.911,-0.054
99317,1755585182439,23.77,-93.17,-60.69,824,865,822,836,836,33.333333333333336,-0.394,-0.911,-0.054
99347,1755585182469,23.74,-93.26,-60.7,816,858,826,837,844,33.333333333333336,-0.394,-0.912,-0.052
99377,1755585182499,23.74,-93.23,-60.7,836,856,820,825,822,33.333333333333336,-0.392,-0.912,-0.052
99406,1755585182528,23.67,-93.32,-60.75,822,865,825,824,841,34.48275862068966,-0.391,-0.911,-0.057
99436,1755585182557,23.56,-93.45,-60.79,823,859,820,828,843,33.333333333333336,-0.392,-0.912,-0.057
99465,1755585182587,23.6,-93.38,-60.76,820,861,817,829,857,34.48275862068966,-0.395,-0.914,-0.048
99494,1755585182617,23.72,-93.17,-60.69,822,854,834,824,834,34.48275862068966,-0.392,-0.914,-0.045
99515,1755585182637,23.79,-93.11,-60.68,813,858,818,832,845,47.61904761904762,-0.39,-0.911,-0.051
99544,1755585182666,23.77,-93.15,-60.71,836,865,838,842,846,34.48275862068966,-0.392,-0.91,-0.057
99574,1755585182696,23.77,-93.17,-60.68,824,856,816,832,835,33.333333333333336,-0.395,-0.911,-0.055
99604,1755585182725,23.8,-93.13,-60.67,822,860,820,827,850,33.333333333333336,-0.394,-0.909,-0.05
99633,1755585182755,23.83,-93.08,-60.71,817,860,826,814,831,34.48275862068966,-0.393,-0.911,-0.051
99662,1755585182784,23.83,-93.06,-60.7,825,860,831,826,836,34.48275862068966,-0.393,-0.912,-0.054
99692,1755585182814,23.82,-93.06,-60.68,822,862,827,834,839,33.333333333333336,-0.392,-0.911,-0.051
99721,1755585182843,23.85,-93.02,-60.68,820,861,818,830,843,34.48275862068966,-0.392,-0.911,-0.049
99751,1755585182873,23.87,-93.0,-60.7,831,864,836,828,850,33.333333333333336,-0.393,-0.911,-0.05
99781,1755585182903,23.9,-92.99,-60.69,827,856,820,833,843,33.333333333333336,-0.395,-0.913,-0.052
99810,1755585182932,23.89,-93.01,-60.69,823,854,830,843,826,34.48275862068966,-0.394,-0.911,-0.053
99840,1755585182962,23.86,-93.05,-60.72,822,861,826,830,839,33.333333333333336,-0.396,-0.91,-0.052
99870,1755585182991,23.85,-93.04,-60.74,824,861,825,833,851,33.333333333333336,-0.397,-0.91,-0.051
99899,1755585183021,23.84,-93.06,-60.75,824,864,823,821,828,34.48275862068966,-0.396,-0.911,-0.051
99929,1755585183050,23.82,-93.1,-60.78,820,860,815,827,850,33.333333333333336,-0.395,-0.912,-0.052
99958,1755585183080,23.78,-93.1,-60.8,823,859,822,820,831,34.48275862068966,-0.394,-0.912,-0.052
99988,1755585183110,23.77,-93.11,-60.8,821,860,822,826,845,33.333333333333336,-0.394,-0.912,-0.05
100017,1755585183139,23.76,-93.1,-60.82,822,859,832,828,843,34.48275862068966,-0.394,-0.911,-0.051
100047,1755585183169,23.73,-93.15,-60.85,827,872,831,838,844,33.333333333333336,-0.395,-0.912,-0.053
100076,1755585183199,23.7,-93.15,-60.84,823,860,826,827,845,34.48275862068966,-0.394,-0.914,-0.051
100106,1755585183228,23.72,-93.11,-60.82,819,868,824,832,839,33.333333333333336,-0.394,-0.913,-0.05
100136,1755585183258,23.72,-93.08,-60.82,822,868,835,842,841,33.333333333333336,-0.395,-0.911,-0.051
100156,1755585183278,23.73,-93.09,-60.82,836,859,821,831,846,50.0,-0.395,-0.911,-0.052
100186,1755585183308,23.71,-93.06,-60.81,824,852,814,832,840,33.333333333333336,-0.393,-0.914,-0.051
100215,1755585183337,23.73,-93.04,-60.77,817,861,823,830,842,34.48275862068966,-0.392,-0.916,-0.05
100245,1755585183367,23.76,-93.02,-60.72,831,844,832,831,840,33.333333333333336,-0.394,-0.913,-0.048
100274,1755585183396,23.79,-93.0,-60.73,825,856,827,830,838,34.48275862068966,-0.396,-0.91,-0.049
100304,1755585183426,23.8,-92.99,-60.74,830,858,818,828,834,33.333333333333336,-0.398,-0.913,-0.049
100333,1755585183455,23.78,-93.03,-60.73,822,858,828,830,838,34.48275862068966,-0.394,-0.912,-0.053
100363,1755585183484,23.7,-93.08,-60.75,825,847,823,835,834,33.333333333333336,-0.395,-0.91,-0.051
100392,1755585183514,23.68,-93.09,-60.76,822,864,835,829,830,34.48275862068966,-0.397,-0.91,-0.049
100422,1755585183544,23.69,-93.08,-60.76,818,860,832,827,836,33.333333333333336,-0.394,-0.912,-0.047
100451,1755585183573,23.68,-93.03,-60.78,820,882,821,834,841,34.48275862068966,-0.391,-0.911,-0.049
100481,1755585183602,23.63,-93.03,-60.81,818,848,816,833,843,33.333333333333336,-0.394,-0.912,-0.053
100510,1755585183632,23.56,-93.1,-60.8,815,868,816,843,836,34.48275862068966,-0.397,-0.91,-0.053
100540,1755585183662,23.52,-93.12,-60.83,824,860,832,830,848,33.333333333333336,-0.398,-0.91,-0.045
100569,1755585183691,23.55,-93.02,-60.87,827,851,842,828,844,34.48275862068966,-0.394,-0.912,-0.042
100599,1755585183721,23.68,-92.99,-60.85,820,859,827,835,834,33.333333333333336,-0.392,-0.918,-0.041
100628,1755585183751,23.82,-92.92,-60.82,813,861,812,832,835,34.48275862068966,-0.389,-0.916,-0.042
100648,1755585183770,23.88,-92.86,-60.83,822,854,824,840,842,50.0,-0.389,-0.909,-0.043
100678,1755585183800,23.89,-92.76,-60.86,819,854,833,843,841,33.333333333333336,-0.396,-0.91,-0.049
100707,1755585183830,23.94,-92.81,-60.84,820,856,837,838,842,34.48275862068966,-0.396,-0.912,-0.054
100737,1755585183859,23.93,-92.83,-60.83,821,860,829,830,834,33.333333333333336,-0.391,-0.912,-0.055
100767,1755585183889,23.88,-92.82,-60.86,825,855,836,837,838,33.333333333333336,-0.395,-0.911,-0.05
100797,1755585183919,23.85,-92.8,-60.85,825,848,825,832,836,33.333333333333336,-0.398,-0.913,-0.046
100826,1755585183948,23.88,-92.81,-60.77,824,857,818,834,841,34.48275862068966,-0.397,-0.914,-0.049
100856,1755585183978,23.83,-92.87,-60.79,820,858,831,829,848,33.333333333333336,-0.395,-0.912,-0.049
100885,1755585184007,23.74,-92.84,-60.77,828,852,823,834,838,34.48275862068966,-0.396,-0.915,-0.046
100915,1755585184037,23.76,-92.9,-60.72,814,853,830,840,843,33.333333333333336,-0.394,-0.911,-0.048
100944,1755585184066,23.74,-92.93,-60.73,817,861,834,841,834,34.48275862068966,-0.395,-0.912,-0.05
100974,1755585184096,23.68,-92.89,-60.7,825,859,815,836,870,33.333333333333336,-0.394,-0.909,-0.051
101003,1755585184125,23.61,-92.98,-60.74,821,863,816,836,840,34.48275862068966,-0.394,-0.906,-0.045
101033,1755585184155,23.6,-92.91,-60.8,818,854,809,826,839,33.333333333333336,-0.394,-0.911,-0.041
101063,1755585184185,23.63,-92.81,-60.78,821,859,818,831,838,33.333333333333336,-0.393,-0.914,-0.042
101092,1755585184214,23.67,-92.81,-60.78,826,852,823,834,837,34.48275862068966,-0.393,-0.907,-0.043
101122,1755585184244,23.68,-92.76,-60.86,821,862,827,832,843,33.333333333333336,-0.397,-0.908,-0.042
101151,1755585184273,23.71,-92.75,-60.9,820,851,842,832,833,34.48275862068966,-0.399,-0.91,-0.042
101181,1755585184303,23.77,-92.8,-60.89,823,861,815,828,841,33.333333333333336,-0.397,-0.91,-0.043
101211,1755585184333,23.79,-92.79,-60.93,823,861,824,832,843,33.333333333333336,-0.395,-0.912,-0.044
101240,1755585184362,23.8,-92.79,-60.93,823,858,826,834,827,34.48275862068966,-0.393,-0.915,-0.043
101270,1755585184392,23.88,-92.78,-60.87,816,862,822,836,846,33.333333333333336,-0.392,-0.915,-0.042
101299,1755585184422,23.88,-92.8,-60.9,823,861,812,829,846,34.48275862068966,-0.39,-0.909,-0.047
101329,1755585184451,23.82,-92.83,-60.97,820,861,834,834,837,33.333333333333336,-0.396,-0.91,-0.046
101359,1755585184481,23.9,-92.86,-60.9,825,852,827,834,840,33.333333333333336,-0.395,-0.914,-0.043
101388,1755585184510,23.98,-92.91,-60.82,823,856,826,838,839,34.48275862068966,-0.389,-0.91,-0.045
101418,1755585184540,23.95,-92.9,-60.88,823,862,824,827,840,33.333333333333336,-0.39,-0.909,-0.051
101448,1755585184569,23.9,-92.98,-60.89,827,865,831,826,832,33.333333333333336,-0.397,-0.911,-0.053
101477,1755585184599,23.9,-92.99,-60.84,826,860,817,834,848,34.48275862068966,-0.395,-0.911,-0.051
101507,1755585184629,23.85,-92.95,-60.87,818,855,829,825,842,33.333333333333336,-0.391,-0.91,-0.052
101536,1755585184659,23.77,-92.95,-60.9,822,865,812,835,846,34.48275862068966,-0.394,-0.913,-0.052
101566,1755585184688,23.77,-92.95,-60.88,824,851,833,836,844,33.333333333333336,-0.396,-0.913,-0.046
101596,1755585184718,23.81,-92.88,-60.91,818,862,821,834,844,33.333333333333336,-0.397,-0.91,-0.046
101625,1755585184747,23.8,-92.84,-60.94,819,861,824,828,838,34.48275862068966,-0.4,-0.912,-0.051
101655,1755585184777,23.79,-92.89,-60.86,824,860,821,827,842,33.333333333333336,-0.398,-0.915,-0.052
101684,1755585184806,23.78,-92.97,-60.81,816,864,818,830,843,34.48275862068966,-0.392,-0.911,-0.047
101714,1755585184836,23.78,-92.93,-60.88,830,861,825,816,845,33.333333333333336,-0.392,-0.907,-0.047
101744,1755585184866,23.77,-92.86,-60.92,835,856,818,820,840,33.333333333333336,-0.398,-0.909,-0.05
101773,1755585184895,23.78,-92.92,-60.89,825,859,826,838,839,34.48275862068966,-0.396,-0.911,-0.05
101803,1755585184925,23.76,-92.91,-60.88,818,852,821,831,839,33.333333333333336,-0.393,-0.908,-0.05
101832,1755585184954,23.77,-92.92,-60.92,825,865,823,838,832,34.48275862068966,-0.395,-0.909,-0.046
101862,1755585184984,23.82,-92.9,-60.9,822,860,825,835,840,33.333333333333336,-0.395,-0.909,-0.049
101891,1755585185013,23.77,-92.99,-60.94,815,860,828,820,848,34.48275862068966,-0.393,-0.906,-0.054
101921,1755585185043,23.69,-93.0,-61.01,823,862,815,837,848,33.333333333333336,-0.396,-0.909,-0.051
101951,1755585185073,23.69,-93.02,-60.99,823,851,846,834,832,33.333333333333336,-0.397,-0.913,-0.049
101980,1755585185102,23.68,-93.12,-60.97,825,863,831,833,829,34.48275862068966,-0.395,-0.911,-0.049
102010,1755585185132,23.63,-93.09,-61.01,822,857,830,833,851,33.333333333333336,-0.395,-0.91,-0.051
102039,1755585185161,23.57,-93.08,-61.05,820,844,823,834,840,34.48275862068966,-0.395,-0.912,-0.051
102069,1755585185191,23.57,-93.13,-61.02,821,856,844,831,843,33.333333333333336,-0.394,-0.913,-0.048
102098,1755585185220,23.61,-93.07,-61.02,824,862,831,827,852,34.48275862068966,-0.393,-0.912,-0.045
102128,1755585185250,23.65,-92.99,-61.06,823,862,837,830,837,33.333333333333336,-0.395,-0.911,-0.047
102158,1755585185280,23.69,-93.01,-61.05,824,861,812,837,840,33.333333333333336,-0.397,-0.91,-0.05
102187,1755585185309,23.7,-93.04,-61.05,822,854,822,834,844,34.48275862068966,-0.398,-0.91,-0.051
102207,1755585185329,23.69,-93.04,-61.06,825,862,828,853,840,50.0,-0.396,-0.911,-0.048
102237,1755585185359,23.72,-93.01,-61.07,817,865,808,826,842,33.333333333333336,-0.395,-0.912,-0.047
102266,1755585185388,23.78,-93.0,-61.07,817,867,808,836,838,34.48275862068966,-0.396,-0.913,-0.048
102296,1755585185418,23.79,-93.0,-61.04,827,852,825,832,842,33.333333333333336,-0.396,-0.913,-0.052
102326,1755585185448,23.76,-93.08,-61.03,820,854,827,832,842,33.333333333333336,-0.396,-0.911,-0.054
102355,1755585185477,23.7,-93.14,-61.06,822,858,841,835,834,34.48275862068966,-0.396,-0.909,-0.052
102385,1755585185507,23.68,-93.15,-61.07,824,853,830,830,849,33.333333333333336,-0.399,-0.913,-0.051
102414,1755585185536,23.65,-93.18,-61.06,827,860,827,835,836,34.48275862068966,-0.396,-0.912,-0.052
102444,1755585185566,23.66,-93.26,-61.05,819,858,818,834,854,33.333333333333336,-0.395,-0.913,-0.049
102473,1755585185595,23.67,-93.26,-61.04,820,862,809,829,845,34.48275862068966,-0.394,-0.912,-0.052
102503,1755585185625,23.64,-93.32,-61.06,833,843,827,835,842,33.333333333333336,-0.396,-0.91,-0.055
102533,1755585185655,23.61,-93.34,-61.07,820,866,822,829,843,33.333333333333336,-0.397,-0.911,-0.053
102562,1755585185684,23.6,-93.35,-61.06,830,853,821,827,846,34.48275862068966,-0.395,-0.912,-0.054
102592,1755585185714,23.58,-93.38,-61.03,818,864,822,827,841,33.333333333333336,-0.396,-0.914,-0.054
102621,1755585185743,23.54,-93.41,-61.03,819,857,813,827,824,34.48275862068966,-0.392,-0.911,-0.052
102651,1755585185773,23.56,-93.36,-61.08,820,855,818,822,848,33.333333333333336,-0.397,-0.912,-0.05
102680,1755585185802,23.59,-93.3,-61.08,816,853,822,836,840,34.48275862068966,-0.397,-0.911,-0.058
102710,1755585185832,23.51,-93.39,-61.1,823,863,815,824,846,33.333333333333336,-0.395,-0.912,-0.056
102739,1755585185861,23.54,-93.36,-61.09,822,858,823,837,840,34.48275862068966,-0.395,-0.915,-0.048
102769,1755585185891,23.63,-93.3,-61.09,824,846,827,833,835,33.333333333333336,-0.396,-0.913,-0.047
102798,1755585185920,23.68,-93.24,-61.1,828,863,829,843,839,34.48275862068966,-0.398,-0.911,-0.055
102828,1755585185950,23.65,-93.35,-61.12,817,863,817,835,864,33.333333333333336,-0.398,-0.91,-0.058
102858,1755585185980,23.63,-93.38,-61.13,822,868,835,824,843,33.333333333333336,-0.396,-0.913,-0.052
102887,1755585186009,23.71,-93.28,-61.1,823,857,815,824,834,34.48275862068966,-0.396,-0.915,-0.048
102917,1755585186039,23.78,-93.24,-61.09,820,859,825,836,837,33.333333333333336,-0.395,-0.913,-0.051
102946,1755585186068,23.79,-93.25,-61.12,822,858,822,830,839,34.48275862068966,-0.395,-0.91,-0.055
102976,1755585186098,23.8,-93.27,-61.12,823,858,820,835,844,33.333333333333336,-0.398,-0.912,-0.055
