timestamp_ms,recv_timestamp_ms,pitch,roll,yaw,flex1,flex2,flex3,flex4,flex5,sampling_hz,accel_x,accel_y,accel_z
42851,1755585539859,20.01,33.0,-16.92,797,841,774,755,808,33.333333333333336,-0.323,0.525,0.797
42880,1755585539888,20.0,33.01,-16.92,797,846,770,761,800,34.48275862068966,-0.326,0.525,0.799
42909,1755585539917,20.02,32.99,-16.94,791,850,770,751,809,34.48275862068966,-0.327,0.526,0.799
42939,1755585539947,20.02,32.97,-16.96,793,843,771,760,805,33.333333333333336,-0.327,0.526,0.799
42968,1755585539977,20.02,32.99,-16.97,791,840,766,755,814,34.48275862068966,-0.327,0.526,0.8
42998,1755585540006,20.04,33.0,-16.99,792,859,768,755,810,33.333333333333336,-0.328,0.525,0.8
43027,1755585540036,20.05,32.98,-17.01,795,850,773,754,821,34.48275862068966,-0.326,0.524,0.797
43057,1755585540065,20.02,32.93,-17.02,797,853,780,759,803,33.333333333333336,-0.326,0.525,0.798
43087,1755585540095,20.02,32.94,-17.06,793,851,781,758,808,33.333333333333336,-0.327,0.525,0.802
43116,1755585540124,20.05,32.97,-17.08,788,850,778,755,818,34.48275862068966,-0.326,0.523,0.8
43146,1755585540154,20.04,32.97,-17.08,790,833,777,758,813,33.333333333333336,-0.325,0.523,0.797
43175,1755585540183,20.02,32.92,-17.11,788,851,776,755,802,34.48275862068966,-0.324,0.524,0.797
43204,1755585540212,20.0,32.92,-17.12,789,841,776,752,805,34.48275862068966,-0.325,0.525,0.8
43234,1755585540242,20.01,32.98,-17.12,796,838,773,752,797,33.333333333333336,-0.326,0.524,0.802
43263,1755585540271,20.04,32.98,-17.14,796,856,770,758,810,34.48275862068966,-0.324,0.523,0.798
43293,1755585540301,20.0,32.93,-17.17,786,849,776,758,806,33.333333333333336,-0.323,0.523,0.796
43322,1755585540330,19.98,32.94,-17.19,788,855,766,759,800,34.48275862068966,-0.324,0.525,0.799
43351,1755585540360,20.01,32.99,-17.21,798,838,773,754,805,34.48275862068966,-0.325,0.525,0.8
43381,1755585540389,20.03,32.95,-17.23,789,848,776,759,810,33.333333333333336,-0.324,0.523,0.796
43410,1755585540419,20.0,32.88,-17.25,793,850,770,757,805,34.48275862068966,-0.324,0.522,0.797
43440,1755585540448,20.0,32.91,-17.25,791,847,773,759,807,33.333333333333336,-0.327,0.524,0.803
43469,1755585540478,20.04,33.02,-17.26,797,848,780,753,815,34.48275862068966,-0.326,0.524,0.799
43499,1755585540507,20.0,32.99,-17.26,790,851,770,759,805,33.333333333333336,-0.322,0.523,0.793
43528,1755585540537,19.99,32.88,-17.29,797,843,768,751,805,34.48275862068966,-0.323,0.522,0.797
43558,1755585540566,19.99,32.91,-17.28,798,843,771,755,806,33.333333333333336,-0.322,0.525,0.805
43588,1755585540596,20.01,33.01,-17.33,793,848,762,754,801,33.333333333333336,-0.319,0.527,0.804
43617,1755585540626,20.03,33.04,-17.4,790,841,768,758,802,34.48275862068966,-0.32,0.524,0.796
43637,1755585540646,20.01,33.02,-17.43,790,853,773,752,811,50.0,-0.324,0.522,0.792
43667,1755585540675,20.05,32.96,-17.46,795,851,771,756,805,33.333333333333336,-0.326,0.524,0.797
43696,1755585540704,20.02,33.0,-17.46,791,849,772,756,809,34.48275862068966,-0.324,0.526,0.799
43726,1755585540734,20.01,33.04,-17.49,794,849,766,752,806,33.333333333333336,-0.323,0.523,0.798
43755,1755585540763,20.04,32.98,-17.53,797,845,778,747,804,34.48275862068966,-0.324,0.522,0.795
43784,1755585540792,19.99,32.94,-17.53,791,844,780,754,808,34.48275862068966,-0.324,0.524,0.797
43814,1755585540822,20.01,32.95,-17.56,791,847,764,758,805,33.333333333333336,-0.325,0.525,0.8
43843,1755585540852,20.06,32.97,-17.59,796,844,767,762,805,34.48275862068966,-0.327,0.524,0.8
43873,1755585540881,20.03,32.98,-17.57,794,843,761,754,805,33.333333333333336,-0.327,0.524,0.798
43902,1755585540910,20.03,32.96,-17.57,795,853,763,751,809,34.48275862068966,-0.323,0.524,0.798
43932,1755585540940,20.02,32.98,-17.61,797,849,767,753,810,33.333333333333336,-0.321,0.525,0.799
43961,1755585540969,20.04,32.98,-17.66,795,832,774,747,799,34.48275862068966,-0.323,0.524,0.798
43990,1755585540999,20.03,32.96,-17.67,793,841,771,761,810,34.48275862068966,-0.326,0.524,0.797
44020,1755585541028,19.99,32.95,-17.67,786,843,767,756,813,33.333333333333336,-0.326,0.523,0.799
44049,1755585541058,20.02,32.98,-17.68,796,848,768,754,809,34.48275862068966,-0.326,0.523,0.8
44079,1755585541087,20.02,32.98,-17.7,795,843,776,757,800,33.333333333333336,-0.323,0.523,0.798
44108,1755585541117,20.03,32.97,-17.72,797,847,773,757,810,34.48275862068966,-0.323,0.524,0.798
44138,1755585541146,20.04,32.94,-17.77,792,847,779,759,807,33.333333333333336,-0.325,0.521,0.798
44167,1755585541176,20.06,32.93,-17.79,796,844,775,755,804,34.48275862068966,-0.327,0.522,0.798
44197,1755585541205,20.04,32.91,-17.8,790,848,778,758,806,33.333333333333336,-0.325,0.523,0.797
44226,1755585541234,20.04,32.91,-17.81,792,852,775,759,804,34.48275862068966,-0.325,0.523,0.799
44256,1755585541264,20.05,32.92,-17.82,795,856,765,749,812,33.333333333333336,-0.327,0.523,0.799
44285,1755585541293,20.06,32.91,-17.82,792,845,772,749,807,34.48275862068966,-0.325,0.524,0.797
44315,1755585541323,20.06,32.88,-17.84,790,851,776,755,808,33.333333333333336,-0.324,0.523,0.796
44344,1755585541352,20.03,32.85,-17.86,790,839,768,753,803,34.48275862068966,-0.325,0.523,0.798
44374,1755585541382,20.03,32.83,-17.85,793,836,772,752,808,33.333333333333336,-0.326,0.523,0.802
44403,1755585541411,20.04,32.85,-17.86,795,863,773,748,809,34.48275862068966,-0.323,0.523,0.8
44432,1755585541440,20.0,32.83,-17.87,793,851,774,757,808,34.48275862068966,-0.321,0.523,0.799
44462,1755585541470,19.98,32.83,-17.89,792,856,766,760,804,33.333333333333336,-0.322,0.523,0.8
44491,1755585541500,20.0,32.83,-17.9,789,853,777,760,800,34.48275862068966,-0.323,0.523,0.799
44521,1755585541529,20.0,32.82,-17.91,793,857,769,746,809,33.333333333333336,-0.323,0.524,0.799
44551,1755585541559,19.98,32.82,-17.92,792,851,774,751,804,33.333333333333336,-0.323,0.523,0.799
44580,1755585541588,19.98,32.8,-17.93,789,857,773,758,814,34.48275862068966,-0.322,0.524,0.799
44609,1755585541617,20.0,32.81,-17.95,793,840,774,753,811,34.48275862068966,-0.321,0.522,0.796
44639,1755585541647,20.0,32.86,-17.97,795,852,778,759,819,33.333333333333336,-0.32,0.523,0.795
44668,1755585541676,19.99,32.86,-18.01,794,849,776,754,804,34.48275862068966,-0.32,0.523,0.794
44698,1755585541706,20.45,32.83,-18.08,789,835,774,759,808,33.333333333333336,-0.32,0.523,0.791
44727,1755585541735,20.43,32.77,-18.12,790,847,768,744,815,34.48275862068966,-0.323,0.524,0.791
44756,1755585541765,20.39,32.73,-18.15,792,852,774,753,808,34.48275862068966,-0.325,0.524,0.795
44786,1755585541794,20.39,32.74,-18.18,789,848,765,761,807,33.333333333333336,-0.326,0.521,0.799
44815,1755585541824,20.37,32.79,-18.17,793,845,770,757,811,34.48275862068966,-0.325,0.521,0.8
44845,1755585541853,20.33,32.77,-18.19,804,851,765,754,816,33.333333333333336,-0.322,0.52,0.8
44874,1755585541882,20.32,32.75,-18.23,790,837,780,760,809,34.48275862068966,-0.321,0.52,0.8
44904,1755585541912,20.34,32.75,-18.26,791,853,789,751,805,33.333333333333336,-0.325,0.52,0.8
44933,1755585541942,20.37,32.69,-18.28,792,840,776,752,805,34.48275862068966,-0.324,0.521,0.798
44963,1755585541971,20.35,32.67,-18.31,797,852,772,756,806,33.333333333333336,-0.324,0.521,0.799
44992,1755585542000,20.31,32.69,-18.32,797,845,771,750,821,34.48275862068966,-0.325,0.52,0.802
45022,1755585542030,20.32,32.7,-18.33,796,855,765,749,804,33.333333333333336,-0.325,0.518,0.802
45051,1755585542059,20.34,32.69,-18.34,798,848,767,757,804,34.48275862068966,-0.325,0.516,0.802
45080,1755585542088,20.35,32.66,-18.34,796,848,773,760,813,34.48275862068966,-0.324,0.517,0.801
45110,1755585542118,20.33,32.66,-18.35,792,843,776,755,803,33.333333333333336,-0.323,0.52,0.801
45139,1755585542147,20.37,32.69,-18.39,796,839,783,752,802,34.48275862068966,-0.325,0.52,0.802
45168,1755585542177,20.36,32.72,-18.38,794,846,766,757,806,34.48275862068966,-0.326,0.518,0.799
45198,1755585542206,20.35,32.67,-18.39,800,847,773,758,816,33.333333333333336,-0.325,0.517,0.8
45227,1755585542235,20.35,32.69,-18.39,793,852,776,757,805,34.48275862068966,-0.325,0.519,0.804
45257,1755585542265,19.9,32.73,-18.39,795,863,774,750,813,33.333333333333336,-0.324,0.52,0.801
45286,1755585542294,19.9,32.71,-18.43,799,848,773,748,809,34.48275862068966,-0.322,0.52,0.8
45316,1755585542324,19.92,32.71,-18.44,798,840,771,756,805,33.333333333333336,-0.326,0.518,0.802
45345,1755585542353,19.93,32.75,-18.42,796,841,766,758,801,34.48275862068966,-0.326,0.519,0.803
45375,1755585542383,19.92,32.8,-18.41,800,850,774,753,806,33.333333333333336,-0.322,0.52,0.8
45404,1755585542412,19.96,32.8,-18.46,795,841,772,756,796,34.48275862068966,-0.321,0.521,0.797
45433,1755585542442,19.96,32.75,-18.51,790,848,767,752,808,34.48275862068966,-0.322,0.522,0.795
45463,1755585542471,19.97,32.68,-18.54,793,854,772,754,810,33.333333333333336,-0.324,0.52,0.797
45492,1755585542501,19.97,32.69,-18.55,794,849,771,743,805,34.48275862068966,-0.326,0.52,0.801
45522,1755585542531,19.99,32.71,-18.57,790,842,764,752,808,33.333333333333336,-0.326,0.52,0.801
45552,1755585542560,20.0,32.69,-18.57,793,847,768,760,799,33.333333333333336,-0.326,0.52,0.8
45581,1755585542589,20.0,32.7,-18.59,796,844,770,752,811,34.48275862068966,-0.323,0.52,0.8
45611,1755585542619,20.0,32.73,-18.61,794,839,769,752,808,33.333333333333336,-0.322,0.522,0.799
45640,1755585542648,19.99,32.7,-18.62,796,828,772,758,810,34.48275862068966,-0.324,0.521,0.798
45670,1755585542678,19.99,32.69,-18.65,800,849,766,757,813,33.333333333333336,-0.324,0.521,0.8
45699,1755585542707,20.01,32.67,-18.67,802,847,769,756,807,34.48275862068966,-0.325,0.521,0.803
45728,1755585542737,19.99,32.7,-18.69,789,848,766,757,810,34.48275862068966,-0.325,0.52,0.803
45758,1755585542766,20.01,32.72,-18.71,798,842,763,756,809,33.333333333333336,-0.325,0.519,0.799
45787,1755585542796,19.98,32.69,-18.72,795,849,765,753,806,34.48275862068966,-0.326,0.521,0.799
45817,1755585542825,19.97,32.66,-18.74,792,846,771,757,806,33.333333333333336,-0.324,0.521,0.802
45846,1755585542855,20.03,32.64,-18.79,790,856,773,753,822,34.48275862068966,-0.325,0.519,0.801
45876,1755585542884,20.01,32.64,-18.81,791,848,770,757,810,33.333333333333336,-0.327,0.521,0.798
45905,1755585542914,20.03,32.56,-18.82,803,851,770,760,810,34.48275862068966,-0.329,0.521,0.799
45935,1755585542943,20.06,32.54,-18.83,793,841,766,758,799,33.333333333333336,-0.328,0.521,0.799
45964,1755585542972,20.07,32.5,-18.87,794,844,767,765,809,34.48275862068966,-0.325,0.52,0.801
45993,1755585543002,20.11,32.48,-18.91,792,848,772,749,808,34.48275862068966,-0.326,0.519,0.805
46023,1755585543031,20.13,32.48,-18.93,795,843,775,756,809,33.333333333333336,-0.325,0.518,0.804
46052,1755585543060,20.14,32.47,-18.98,794,848,770,761,804,34.48275862068966,-0.327,0.516,0.8
46082,1755585543090,20.18,32.41,-19.03,793,857,764,757,807,33.333333333333336,-0.331,0.516,0.803
46111,1755585543119,20.14,32.47,-19.0,791,854,769,749,798,34.48275862068966,-0.333,0.516,0.809
46140,1755585543149,20.17,32.56,-19.01,792,847,771,751,807,34.48275862068966,-0.33,0.515,0.806
46170,1755585543178,20.19,32.56,-19.03,792,848,772,754,805,33.333333333333336,-0.33,0.513,0.802
46199,1755585543208,20.24,32.51,-19.05,791,841,771,758,810,34.48275862068966,-0.333,0.513,0.802
46229,1755585543237,20.31,32.55,-19.06,793,846,770,764,801,33.333333333333336,-0.335,0.518,0.802
46258,1755585543266,20.35,32.6,-19.02,789,846,767,755,804,34.48275862068966,-0.331,0.519,0.8
46288,1755585543296,20.47,32.62,-19.01,794,848,771,751,809,33.333333333333336,-0.333,0.519,0.799
46317,1755585543325,20.46,32.62,-18.97,783,845,777,754,807,34.48275862068966,-0.331,0.519,0.796
46347,1755585543355,20.4,32.61,-18.91,799,847,773,765,808,33.333333333333336,-0.33,0.518,0.8
46376,1755585543384,20.41,32.68,-18.85,790,847,768,758,811,34.48275862068966,-0.331,0.518,0.806
46406,1755585543414,20.42,32.72,-18.81,796,847,769,756,806,33.333333333333336,-0.329,0.52,0.799
46435,1755585543443,20.45,32.71,-18.81,799,846,772,770,816,34.48275862068966,-0.329,0.522,0.795
46465,1755585543473,20.42,32.72,-18.8,794,849,777,755,825,33.333333333333336,-0.327,0.524,0.793
46494,1755585543502,20.42,32.67,-18.85,789,854,778,757,810,34.48275862068966,-0.324,0.525,0.792
46523,1755585543531,20.46,32.62,-18.95,791,857,766,755,807,34.48275862068966,-0.323,0.523,0.795
46553,1755585543561,20.41,32.62,-19.01,796,844,775,759,807,33.333333333333336,-0.322,0.522,0.795
46582,1755585543590,20.36,32.53,-19.09,795,845,776,760,808,34.48275862068966,-0.321,0.522,0.795
46612,1755585543620,20.38,32.41,-19.19,795,847,776,755,814,33.333333333333336,-0.322,0.522,0.8
46641,1755585543649,20.36,32.4,-19.27,798,839,770,752,809,34.48275862068966,-0.324,0.519,0.802
46670,1755585543679,20.37,32.4,-19.32,797,845,767,754,804,34.48275862068966,-0.329,0.518,0.804
46700,1755585543708,20.37,32.39,-19.37,796,851,775,758,807,33.333333333333336,-0.329,0.517,0.804
46730,1755585543738,20.36,32.36,-19.42,795,853,772,759,809,33.333333333333336,-0.329,0.516,0.802
46759,1755585543768,20.42,32.33,-19.5,792,850,773,758,803,34.48275862068966,-0.333,0.514,0.802
46779,1755585543787,20.12,32.34,-19.51,797,845,780,752,802,50.0,-0.333,0.515,0.801
46809,1755585543817,20.16,32.31,-19.57,792,854,768,756,808,33.333333333333336,-0.332,0.513,0.801
46838,1755585543846,20.25,32.25,-19.62,793,854,767,754,809,34.48275862068966,-0.339,0.509,0.803
46868,1755585543876,20.25,32.3,-19.55,791,843,772,750,805,33.333333333333336,-0.341,0.509,0.807
46897,1755585543905,20.31,32.33,-19.51,797,849,769,751,811,34.48275862068966,-0.339,0.511,0.804
46927,1755585543935,20.36,32.32,-19.5,793,845,762,758,808,33.333333333333336,-0.337,0.513,0.801
46956,1755585543964,20.37,32.32,-19.45,798,840,773,755,805,34.48275862068966,-0.337,0.513,0.803
46985,1755585543993,20.41,32.35,-19.45,807,847,767,756,807,34.48275862068966,-0.334,0.515,0.801
47015,1755585544023,20.41,32.36,-19.46,791,837,770,749,803,33.333333333333336,-0.333,0.519,0.797
47044,1755585544053,20.41,32.3,-19.49,794,849,773,752,806,34.48275862068966,-0.329,0.519,0.791
47074,1755585544082,20.43,32.21,-19.57,788,847,767,755,807,33.333333333333336,-0.331,0.519,0.793
47104,1755585544112,20.39,32.19,-19.63,796,834,773,758,813,33.333333333333336,-0.341,0.517,0.8
47133,1755585544141,20.39,32.2,-19.64,791,842,775,759,806,34.48275862068966,-0.345,0.511,0.802
47163,1755585544171,20.42,32.2,-19.61,787,845,772,753,822,33.333333333333336,-0.343,0.509,0.803
47192,1755585544200,20.41,32.16,-19.6,793,846,773,748,807,34.48275862068966,-0.334,0.511,0.799
47222,1755585544230,20.47,32.04,-19.69,792,854,780,754,809,33.333333333333336,-0.332,0.512,0.799
47251,1755585544259,20.47,31.94,-19.77,799,842,775,755,811,34.48275862068966,-0.336,0.51,0.806
47280,1755585544288,20.5,31.92,-19.81,793,850,771,754,806,34.48275862068966,-0.338,0.507,0.81
47310,1755585544318,20.52,31.95,-19.84,796,848,774,757,800,33.333333333333336,-0.337,0.505,0.808
47339,1755585544347,20.53,31.94,-19.85,792,853,777,761,811,34.48275862068966,-0.335,0.507,0.807
47368,1755585544377,20.57,31.93,-19.91,798,839,775,757,806,34.48275862068966,-0.336,0.51,0.807
47398,1755585544406,20.56,31.97,-19.94,787,855,773,754,813,33.333333333333336,-0.336,0.511,0.806
47428,1755585544437,20.58,31.96,-19.99,791,841,772,752,804,33.333333333333336,-0.339,0.509,0.802
47448,1755585544456,20.6,31.92,-20.02,792,842,774,752,811,50.0,-0.339,0.507,0.799
47477,1755585544487,20.63,31.84,-20.05,798,841,779,763,810,34.48275862068966,-0.338,0.507,0.802
47507,1755585544515,20.68,31.81,-20.09,791,844,768,760,808,33.333333333333336,-0.339,0.508,0.804
47537,1755585544545,20.76,31.76,-20.17,792,846,772,772,808,33.333333333333336,-0.34,0.506,0.805
47566,1755585544574,20.77,31.76,-20.19,798,845,776,755,809,34.48275862068966,-0.345,0.502,0.807
47596,1755585544604,20.81,31.77,-20.22,793,854,772,754,810,33.333333333333336,-0.347,0.5,0.806
47625,1755585544633,20.84,31.81,-20.22,792,844,768,757,807,34.48275862068966,-0.347,0.503,0.803
47655,1755585544663,20.83,31.79,-20.23,794,853,769,753,813,33.333333333333336,-0.346,0.505,0.801
47684,1755585544693,20.87,31.75,-20.27,793,844,773,751,807,34.48275862068966,-0.346,0.504,0.801
47714,1755585544722,20.88,31.72,-20.27,796,854,771,763,806,33.333333333333336,-0.347,0.504,0.801
47743,1755585544751,20.88,31.7,-20.28,794,846,751,753,806,34.48275862068966,-0.344,0.505,0.803
47773,1755585544781,20.86,31.68,-20.29,794,850,773,751,807,33.333333333333336,-0.341,0.504,0.805
47802,1755585544810,20.87,31.69,-20.32,796,853,765,755,802,34.48275862068966,-0.341,0.504,0.808
47832,1755585544840,20.9,31.7,-20.36,792,844,784,751,807,33.333333333333336,-0.341,0.505,0.805
47861,1755585544869,20.9,31.66,-20.39,792,844,783,751,806,34.48275862068966,-0.341,0.505,0.801
47891,1755585544899,20.91,31.62,-20.43,796,840,766,759,810,33.333333333333336,-0.344,0.505,0.803
47920,1755585544929,20.92,31.61,-20.44,794,840,778,752,808,34.48275862068966,-0.346,0.504,0.806
47950,1755585544958,20.97,31.62,-20.45,793,840,775,763,800,33.333333333333336,-0.348,0.502,0.804
47979,1755585544988,21.01,31.57,-20.45,794,855,778,762,804,34.48275862068966,-0.347,0.501,0.804
48009,1755585545018,21.04,31.52,-20.48,794,842,778,753,814,33.333333333333336,-0.346,0.502,0.805
48039,1755585545047,21.03,31.5,-20.47,785,849,769,756,810,33.333333333333336,-0.345,0.501,0.805
48068,1755585545077,21.06,31.47,-20.49,788,854,772,757,811,34.48275862068966,-0.345,0.502,0.805
48098,1755585545106,21.12,31.41,-20.52,796,847,771,757,803,33.333333333333336,-0.348,0.501,0.805
48127,1755585545136,21.12,31.41,-20.51,796,848,773,746,801,34.48275862068966,-0.349,0.507,0.804
48157,1755585545165,21.14,31.42,-20.52,795,851,767,758,812,33.333333333333336,-0.347,0.506,0.805
48186,1755585545194,21.17,31.37,-20.56,799,838,774,755,805,34.48275862068966,-0.343,0.505,0.805
48216,1755585545224,21.2,31.32,-20.6,798,846,770,756,804,33.333333333333336,-0.344,0.504,0.807
48245,1755585545253,21.22,31.34,-20.64,797,850,769,755,806,34.48275862068966,-0.346,0.502,0.809
48274,1755585545282,21.24,31.34,-20.66,790,841,769,756,809,34.48275862068966,-0.349,0.501,0.806
48304,1755585545312,21.25,31.31,-20.66,790,847,770,761,809,33.333333333333336,-0.353,0.5,0.805
48333,1755585545342,21.26,31.35,-20.65,791,844,777,755,811,34.48275862068966,-0.354,0.498,0.807
48362,1755585545371,21.25,31.39,-20.64,796,846,763,756,803,34.48275862068966,-0.351,0.497,0.807
48392,1755585545400,21.29,31.35,-20.67,794,851,769,755,802,33.333333333333336,-0.348,0.497,0.805
48421,1755585545430,21.27,31.36,-20.69,795,844,766,758,798,34.48275862068966,-0.348,0.497,0.806
48451,1755585545459,21.29,31.36,-20.72,789,842,771,753,805,33.333333333333336,-0.348,0.497,0.807
48480,1755585545489,21.3,31.38,-20.74,791,842,772,755,811,34.48275862068966,-0.348,0.499,0.805
48510,1755585545518,21.29,31.39,-20.77,788,844,778,759,807,33.333333333333336,-0.353,0.497,0.805
48539,1755585545548,21.31,31.38,-20.76,791,847,772,758,815,34.48275862068966,-0.354,0.496,0.805
48569,1755585545577,21.35,31.37,-20.75,794,851,767,758,815,33.333333333333336,-0.353,0.494,0.804
48598,1755585545606,21.38,31.38,-20.72,788,855,772,753,808,34.48275862068966,-0.354,0.494,0.807
48627,1755585545636,21.41,31.42,-20.68,794,850,765,764,803,34.48275862068966,-0.351,0.494,0.808
48657,1755585545665,21.43,31.45,-20.67,796,850,772,759,808,33.333333333333336,-0.346,0.495,0.805
48686,1755585545695,21.45,31.48,-20.7,797,841,768,765,806,34.48275862068966,-0.344,0.497,0.801
48716,1755585545724,21.49,31.44,-20.74,794,845,765,764,810,33.333333333333336,-0.345,0.499,0.799
48745,1755585545753,21.51,31.38,-20.81,795,847,768,758,802,34.48275862068966,-0.348,0.499,0.8
48775,1755585545783,21.49,31.38,-20.82,793,845,774,755,797,33.333333333333336,-0.351,0.496,0.804
48804,1755585545813,21.5,31.39,-20.83,787,840,773,750,813,34.48275862068966,-0.352,0.495,0.806
48834,1755585545842,21.52,31.41,-20.82,797,845,771,753,805,33.333333333333336,-0.35,0.496,0.803
48863,1755585545872,21.52,31.34,-20.85,790,854,774,753,815,34.48275862068966,-0.348,0.499,0.798
48893,1755585545901,21.5,31.31,-20.87,789,845,769,761,803,33.333333333333336,-0.349,0.501,0.799
48923,1755585545931,21.51,31.29,-20.9,793,846,766,759,808,33.333333333333336,-0.351,0.5,0.801
48952,1755585545961,21.48,31.22,-20.93,792,852,769,753,810,34.48275862068966,-0.346,0.499,0.799
48982,1755585545990,21.46,31.13,-20.98,799,849,772,758,811,33.333333333333336,-0.346,0.495,0.803
49011,1755585546020,21.46,31.07,-21.02,796,844,774,765,804,34.48275862068966,-0.35,0.492,0.81
49041,1755585546049,21.48,31.08,-21.05,794,849,773,753,803,33.333333333333336,-0.351,0.489,0.814
49070,1755585546079,21.51,31.15,-21.08,801,851,766,755,806,34.48275862068966,-0.35,0.489,0.812
49100,1755585546109,21.51,31.15,-21.12,793,854,768,761,806,33.333333333333336,-0.348,0.49,0.806
49130,1755585546138,21.53,31.09,-21.17,790,837,772,761,803,33.333333333333336,-0.35,0.492,0.806
49159,1755585546168,21.53,31.06,-21.17,793,849,763,751,810,34.48275862068966,-0.353,0.493,0.808
49189,1755585546197,21.58,30.63,-21.19,795,838,760,758,806,33.333333333333336,-0.351,0.493,0.808
49218,1755585546227,21.6,30.65,-21.19,792,844,763,755,805,34.48275862068966,-0.351,0.492,0.807
49248,1755585546256,21.58,30.65,-21.19,797,849,768,752,808,33.333333333333336,-0.348,0.492,0.807
49277,1755585546285,21.61,30.62,-21.2,788,858,771,759,798,34.48275862068966,-0.35,0.494,0.806
49307,1755585546315,21.61,30.63,-21.19,799,847,771,757,816,33.333333333333336,-0.352,0.494,0.804
49336,1755585546345,21.59,30.62,-21.19,795,843,772,760,811,34.48275862068966,-0.352,0.495,0.803
49366,1755585546374,21.6,30.59,-21.21,797,843,777,756,800,33.333333333333336,-0.352,0.494,0.805
49395,1755585546404,21.64,30.53,-21.26,787,841,766,755,801,34.48275862068966,-0.351,0.491,0.806
49425,1755585546433,21.65,30.52,-21.29,798,840,774,758,815,33.333333333333336,-0.351,0.49,0.806
49454,1755585546463,21.64,30.47,-21.31,795,843,772,752,810,34.48275862068966,-0.352,0.491,0.806
49484,1755585546492,21.68,30.38,-21.35,794,842,768,761,799,33.333333333333336,-0.353,0.488,0.808
49513,1755585546522,21.69,30.4,-21.36,797,856,771,754,808,34.48275862068966,-0.356,0.488,0.813
49543,1755585546551,21.69,30.5,-21.34,794,850,770,760,805,33.333333333333336,-0.353,0.487,0.812
49572,1755585546581,21.71,30.48,-21.36,792,851,774,756,814,34.48275862068966,-0.35,0.487,0.804
49602,1755585546610,21.71,30.42,-21.38,792,839,769,767,805,33.333333333333336,-0.353,0.488,0.808
49631,1755585546640,21.76,30.41,-21.38,795,845,773,755,797,34.48275862068966,-0.355,0.488,0.811
49661,1755585546669,21.77,30.45,-21.36,792,848,767,762,805,33.333333333333336,-0.351,0.489,0.81
49690,1755585546699,21.77,30.41,-21.38,791,850,773,759,801,34.48275862068966,-0.35,0.487,0.807
49720,1755585546728,21.77,30.37,-21.39,788,852,767,758,806,33.333333333333336,-0.353,0.487,0.81
49749,1755585546758,21.79,30.4,-21.4,786,849,770,760,810,34.48275862068966,-0.356,0.487,0.814
49779,1755585546787,21.79,30.44,-21.39,791,848,780,760,807,33.333333333333336,-0.355,0.486,0.808
49808,1755585546817,21.81,30.37,-21.42,792,857,769,754,808,34.48275862068966,-0.356,0.486,0.806
49838,1755585546846,21.82,30.37,-21.42,798,844,774,754,808,33.333333333333336,-0.356,0.486,0.811
49868,1755585546876,21.84,30.4,-21.41,795,840,778,756,814,33.333333333333336,-0.354,0.487,0.812
49897,1755585546905,21.88,30.41,-21.44,789,853,772,761,807,34.48275862068966,-0.352,0.487,0.81
49927,1755585546935,21.88,30.38,-21.47,790,844,766,762,807,33.333333333333336,-0.352,0.487,0.807
49956,1755585546965,21.91,30.35,-21.54,788,858,770,754,798,34.48275862068966,-0.352,0.485,0.808
49986,1755585546994,21.91,30.38,-21.58,788,849,768,758,798,33.333333333333336,-0.353,0.486,0.812
50015,1755585547024,21.96,30.44,-21.64,792,841,771,757,800,34.48275862068966,-0.356,0.485,0.812
50045,1755585547053,22.02,30.42,-21.67,794,842,769,753,805,33.333333333333336,-0.359,0.484,0.806
50074,1755585547084,22.03,30.34,-21.68,789,842,788,754,805,34.48275862068966,-0.358,0.486,0.808
50104,1755585547112,22.01,30.3,-21.7,786,862,766,756,815,33.333333333333336,-0.356,0.487,0.813
50133,1755585547142,22.01,30.3,-21.73,793,846,785,750,800,34.48275862068966,-0.357,0.485,0.809
50163,1755585547171,22.02,30.21,-21.76,796,843,771,763,802,33.333333333333336,-0.36,0.483,0.806
50193,1755585547201,22.04,30.09,-21.78,796,849,770,759,802,33.333333333333336,-0.359,0.482,0.807
50222,1755585547231,22.07,29.97,-21.8,793,851,767,763,805,34.48275862068966,-0.36,0.482,0.806
50252,1755585547260,22.09,29.91,-21.85,805,863,770,755,798,33.333333333333336,-0.358,0.483,0.811
50281,1755585547289,22.13,29.93,-21.89,796,858,774,756,804,34.48275862068966,-0.36,0.481,0.815
50311,1755585547319,22.12,30.02,-21.91,788,849,769,752,810,33.333333333333336,-0.359,0.478,0.814
50331,1755585547339,22.13,30.05,-21.93,793,858,768,758,807,50.0,-0.359,0.476,0.812
50360,1755585547368,22.14,30.03,-21.95,799,864,770,763,801,34.48275862068966,-0.36,0.475,0.811
50389,1755585547398,22.15,30.04,-21.95,787,847,777,755,805,34.48275862068966,-0.362,0.476,0.814
50419,1755585547427,22.17,30.07,-21.96,792,842,772,763,805,33.333333333333336,-0.36,0.48,0.812
50448,1755585547457,22.16,30.07,-21.99,793,851,770,762,805,34.48275862068966,-0.358,0.479,0.808
50478,1755585547486,22.17,30.06,-22.04,796,850,757,749,826,33.333333333333336,-0.362,0.478,0.807
50507,1755585547515,22.18,30.01,-22.07,796,845,777,755,814,34.48275862068966,-0.363,0.48,0.807
50537,1755585547545,22.17,29.99,-22.1,795,851,776,768,811,33.333333333333336,-0.362,0.484,0.808
50566,1755585547575,22.17,29.98,-22.15,797,854,768,760,805,34.48275862068966,-0.361,0.484,0.806
50596,1755585547604,22.18,29.91,-22.2,781,846,762,763,809,33.333333333333336,-0.365,0.481,0.809
50625,1755585547633,22.18,29.9,-22.19,790,843,769,754,806,34.48275862068966,-0.368,0.477,0.815
50654,1755585547663,22.22,29.95,-22.18,795,846,773,760,812,34.48275862068966,-0.367,0.474,0.814
50684,1755585547693,22.25,29.92,-22.19,793,857,775,761,804,33.333333333333336,-0.366,0.475,0.809
50714,1755585547722,22.25,29.9,-22.19,792,842,769,759,805,33.333333333333336,-0.365,0.476,0.81
50743,1755585547751,22.31,29.87,-22.24,790,846,764,764,808,34.48275862068966,-0.364,0.476,0.811
50772,1755585547781,22.31,29.9,-22.28,793,841,767,765,805,34.48275862068966,-0.364,0.477,0.811
50802,1755585547810,22.31,29.9,-22.3,785,849,773,754,808,33.333333333333336,-0.363,0.475,0.811
50832,1755585547840,22.32,29.86,-22.32,793,850,769,766,802,33.333333333333336,-0.364,0.475,0.813
50861,1755585547869,22.34,29.87,-22.34,803,843,775,759,808,34.48275862068966,-0.363,0.475,0.81
50890,1755585547898,22.34,29.8,-22.39,795,849,775,760,805,34.48275862068966,-0.362,0.476,0.806
50920,1755585547928,22.34,29.75,-22.47,795,845,770,752,812,33.333333333333336,-0.364,0.477,0.805
50949,1755585547958,22.38,29.64,-22.54,794,846,768,762,806,34.48275862068966,-0.365,0.475,0.807
50979,1755585547987,22.37,29.54,-22.62,783,849,774,760,804,33.333333333333336,-0.364,0.468,0.813
51009,1755585548017,22.37,29.49,-22.64,789,844,771,764,813,33.333333333333336,-0.367,0.464,0.823
51038,1755585548046,22.39,29.58,-22.62,790,846,772,769,808,34.48275862068966,-0.366,0.466,0.821
51067,1755585548076,22.42,29.61,-22.63,791,845,772,761,805,34.48275862068966,-0.36,0.468,0.816
51097,1755585548106,22.41,29.58,-22.7,789,855,771,759,805,33.333333333333336,-0.359,0.469,0.816
51127,1755585548135,22.43,29.55,-22.77,793,847,764,758,808,33.333333333333336,-0.364,0.469,0.819
51156,1755585548165,22.45,29.58,-22.8,800,852,763,759,805,34.48275862068966,-0.366,0.467,0.819
51186,1755585548194,22.44,29.61,-22.8,789,850,766,764,807,33.333333333333336,-0.369,0.467,0.813
51215,1755585548224,22.44,29.54,-22.81,794,840,781,756,808,34.48275862068966,-0.372,0.468,0.812
51245,1755585548253,22.45,29.49,-22.8,793,842,772,763,807,33.333333333333336,-0.372,0.468,0.815
51274,1755585548283,22.47,29.54,-22.77,789,843,769,764,798,34.48275862068966,-0.37,0.468,0.812
51304,1755585548312,22.44,29.48,-22.81,798,842,771,754,814,33.333333333333336,-0.365,0.469,0.808
51333,1755585548342,22.45,29.39,-22.86,792,840,778,754,807,34.48275862068966,-0.365,0.466,0.814
51363,1755585548371,22.48,29.37,-22.91,795,843,766,752,799,33.333333333333336,-0.366,0.466,0.816
51392,1755585548401,22.51,29.34,-22.95,796,841,775,760,805,34.48275862068966,-0.37,0.464,0.812
51422,1755585548430,22.53,29.27,-22.95,794,841,765,761,809,33.333333333333336,-0.376,0.461,0.815
51451,1755585548460,22.57,29.28,-22.92,791,849,769,761,804,34.48275862068966,-0.375,0.462,0.816
51481,1755585548489,22.6,29.28,-22.94,789,838,770,760,813,33.333333333333336,-0.369,0.466,0.814
51510,1755585548519,22.59,29.23,-23.0,793,855,766,761,816,34.48275862068966,-0.364,0.465,0.818
51540,1755585548549,22.62,29.23,-23.06,780,844,772,754,807,33.333333333333336,-0.367,0.463,0.818
51560,1755585548569,22.61,29.23,-23.08,798,839,766,758,796,50.0,-0.37,0.463,0.816
51590,1755585548598,22.62,29.19,-23.1,798,846,766,768,811,33.333333333333336,-0.373,0.462,0.814
51619,1755585548628,22.64,29.14,-23.1,792,848,773,763,805,34.48275862068966,-0.376,0.46,0.817
