timestamp_ms,recv_timestamp_ms,pitch,roll,yaw,flex1,flex2,flex3,flex4,flex5,sampling_hz,accel_x,accel_y,accel_z
87704,1755586474484,22.87,-28.88,-59.54,813,773,823,865,872,33.333333333333336,-0.393,-0.443,0.812
87733,1755586474513,22.97,-28.8,-59.51,819,771,821,868,884,34.48275862068966,-0.391,-0.447,0.821
87763,1755586474543,23.08,-28.69,-59.48,814,769,816,870,866,33.333333333333336,-0.385,-0.441,0.811
87792,1755586474572,23.1,-28.77,-59.58,807,769,821,869,872,34.48275862068966,-0.393,-0.432,0.805
87822,1755586474602,23.0,-28.9,-59.7,809,768,811,867,882,33.333333333333336,-0.403,-0.446,0.819
87851,1755586474631,23.08,-28.81,-59.66,814,766,815,868,872,34.48275862068966,-0.405,-0.456,0.821
87881,1755586474661,23.15,-28.74,-59.57,808,761,820,878,866,33.333333333333336,-0.4,-0.439,0.802
87910,1755586474690,23.1,-28.87,-59.63,825,770,816,872,875,34.48275862068966,-0.397,-0.429,0.803
87940,1755586474719,23.01,-28.91,-59.71,823,769,823,867,871,33.333333333333336,-0.396,-0.439,0.819
87969,1755586474749,23.14,-28.78,-59.67,809,772,816,867,873,34.48275862068966,-0.393,-0.446,0.823
87999,1755586474779,23.21,-28.68,-59.63,810,766,813,861,871,33.333333333333336,-0.389,-0.441,0.813
88028,1755586474809,23.16,-28.68,-59.66,814,769,824,870,872,34.48275862068966,-0.392,-0.438,0.807
88058,1755586474838,23.11,-28.75,-59.68,812,765,821,867,874,33.333333333333336,-0.399,-0.434,0.805
88088,1755586474868,23.12,-28.83,-59.67,808,770,813,871,880,33.333333333333336,-0.404,-0.436,0.81
88117,1755586474897,23.19,-28.8,-59.55,811,765,815,865,871,34.48275862068966,-0.402,-0.442,0.817
88147,1755586474927,23.28,-28.73,-59.47,816,780,809,864,866,33.333333333333336,-0.396,-0.439,0.811
88176,1755586474956,23.27,-28.8,-59.49,814,776,815,874,872,34.48275862068966,-0.395,-0.433,0.802
88206,1755586474986,23.24,-28.91,-59.53,807,770,817,873,875,33.333333333333336,-0.4,-0.433,0.809
88235,1755586475015,23.26,-28.86,-59.51,813,769,821,873,882,34.48275862068966,-0.402,-0.441,0.818
88265,1755586475045,23.32,-28.8,-59.47,810,769,818,863,867,33.333333333333336,-0.396,-0.436,0.808
88294,1755586475074,23.26,-28.85,-59.5,815,764,809,886,873,34.48275862068966,-0.396,-0.435,0.807
88324,1755586475104,23.32,-28.88,-59.51,813,772,819,870,875,33.333333333333336,-0.401,-0.441,0.816
88353,1755586475134,23.35,-28.76,-59.45,817,775,835,864,866,34.48275862068966,-0.408,-0.442,0.812
88383,1755586475163,23.41,-28.77,-59.4,818,769,827,869,876,33.333333333333336,-0.404,-0.441,0.808
88413,1755586475192,23.45,-28.8,-59.37,813,767,826,852,871,33.333333333333336,-0.401,-0.437,0.807
88442,1755586475222,23.4,-28.81,-59.37,810,771,814,871,869,34.48275862068966,-0.4,-0.436,0.807
88471,1755586475252,23.47,-28.83,-59.35,812,768,836,872,860,34.48275862068966,-0.399,-0.441,0.81
88501,1755586475281,23.6,-28.86,-59.31,812,791,820,874,880,33.333333333333336,-0.399,-0.436,0.81
88531,1755586475311,23.67,-28.83,-59.31,813,774,809,862,880,33.333333333333336,-0.403,-0.433,0.812
88560,1755586475341,23.75,-28.76,-59.31,812,789,816,867,870,34.48275862068966,-0.404,-0.437,0.81
88581,1755586475361,23.87,-28.71,-59.28,813,770,822,866,862,47.61904761904762,-0.405,-0.44,0.806
88610,1755586475390,23.88,-28.67,-59.29,816,760,822,862,876,34.48275862068966,-0.408,-0.435,0.799
88640,1755586475420,23.84,-28.76,-59.35,815,772,819,863,876,33.333333333333336,-0.408,-0.429,0.796
88669,1755586475449,23.84,-28.83,-59.43,811,768,817,861,870,34.48275862068966,-0.407,-0.43,0.803
88699,1755586475479,23.93,-28.86,-59.49,815,772,819,869,873,33.333333333333336,-0.407,-0.432,0.805
88728,1755586475508,24.03,-28.89,-59.56,811,766,820,867,875,34.48275862068966,-0.408,-0.438,0.808
88757,1755586475538,24.13,-28.84,-59.57,815,762,812,864,873,34.48275862068966,-0.405,-0.44,0.807
88787,1755586475567,24.24,-28.84,-59.6,813,769,812,865,881,33.333333333333336,-0.404,-0.438,0.804
88817,1755586475597,24.32,-28.87,-59.64,808,765,805,867,864,33.333333333333336,-0.409,-0.439,0.802
88846,1755586475627,24.38,-28.84,-59.65,807,767,815,870,877,34.48275862068966,-0.415,-0.443,0.803
88876,1755586475656,24.42,-28.76,-59.62,814,771,813,873,872,33.333333333333336,-0.42,-0.442,0.803
88906,1755586475686,24.45,-28.76,-59.59,815,762,830,855,869,33.333333333333336,-0.42,-0.434,0.796
88935,1755586475715,24.48,-28.84,-59.61,816,780,817,872,883,34.48275862068966,-0.422,-0.432,0.795
88965,1755586475745,24.4,-28.88,-59.61,809,770,817,860,877,33.333333333333336,-0.425,-0.437,0.798
88994,1755586475775,24.44,-28.86,-59.54,814,773,819,870,873,34.48275862068966,-0.424,-0.442,0.803
89024,1755586475804,24.45,-28.79,-59.47,811,769,813,859,881,33.333333333333336,-0.419,-0.443,0.805
89054,1755586475834,24.48,-28.7,-59.43,815,770,821,871,870,33.333333333333336,-0.415,-0.441,0.801
89083,1755586475863,24.45,-28.68,-59.42,811,764,816,864,875,34.48275862068966,-0.417,-0.437,0.8
89113,1755586475893,24.47,-28.71,-59.38,811,770,805,867,873,33.333333333333336,-0.422,-0.436,0.803
89142,1755586475922,24.52,-28.65,-59.33,811,770,820,867,870,34.48275862068966,-0.423,-0.431,0.8
89172,1755586475952,24.58,-28.67,-59.34,810,779,822,861,874,33.333333333333336,-0.421,-0.428,0.798
89201,1755586475981,24.54,-28.66,-59.38,816,770,818,867,885,34.48275862068966,-0.423,-0.429,0.8
89231,1755586476011,24.56,-28.65,-59.39,816,761,821,864,874,33.333333333333336,-0.42,-0.432,0.802
89260,1755586476041,24.7,-28.63,-59.36,816,768,817,871,871,34.48275862068966,-0.417,-0.434,0.802
89290,1755586476070,24.82,-28.66,-59.37,813,772,816,878,874,33.333333333333336,-0.419,-0.432,0.795
89319,1755586476099,24.78,-28.71,-59.39,815,770,813,858,872,34.48275862068966,-0.428,-0.433,0.793
89349,1755586476129,24.81,-28.75,-59.34,816,764,825,861,870,33.333333333333336,-0.432,-0.436,0.796
89379,1755586476158,24.96,-28.78,-59.24,816,768,816,872,874,33.333333333333336,-0.429,-0.433,0.798
89408,1755586476188,25.08,-28.82,-59.14,820,754,815,870,897,34.48275862068966,-0.424,-0.432,0.801
89438,1755586476218,25.05,-28.8,-59.1,811,766,815,860,875,33.333333333333336,-0.417,-0.434,0.805
89467,1755586476247,25.05,-28.72,-59.13,806,769,818,867,871,34.48275862068966,-0.417,-0.43,0.802
89497,1755586476277,25.02,-28.7,-59.23,808,768,795,877,875,33.333333333333336,-0.426,-0.423,0.793
89526,1755586476306,25.1,-28.73,-59.35,813,768,815,877,878,34.48275862068966,-0.436,-0.419,0.79
89556,1755586476336,25.11,-28.78,-59.45,814,766,820,869,873,33.333333333333336,-0.441,-0.422,0.788
89586,1755586476366,25.26,-28.88,-59.53,810,771,814,866,872,33.333333333333336,-0.439,-0.426,0.788
89615,1755586476396,25.25,-28.93,-59.55,814,769,828,872,872,34.48275862068966,-0.437,-0.431,0.793
89645,1755586476425,25.23,-28.91,-59.55,814,774,816,860,876,33.333333333333336,-0.435,-0.436,0.8
89675,1755586476455,25.28,-28.82,-59.53,813,770,814,857,871,33.333333333333336,-0.434,-0.44,0.802
89704,1755586476485,25.3,-28.73,-59.47,815,766,821,867,871,34.48275862068966,-0.434,-0.439,0.796
89734,1755586476514,25.25,-28.69,-59.44,813,761,814,857,873,33.333333333333336,-0.434,-0.436,0.792
89764,1755586476544,25.23,-28.69,-59.42,814,769,813,868,900,33.333333333333336,-0.435,-0.434,0.793
89793,1755586476573,25.19,-28.63,-59.42,811,765,824,864,876,34.48275862068966,-0.434,-0.434,0.797
89823,1755586476603,25.13,-28.53,-59.43,813,772,820,862,873,33.333333333333336,-0.436,-0.434,0.799
89852,1755586476632,25.16,-28.46,-59.41,814,774,817,873,871,34.48275862068966,-0.435,-0.433,0.797
89882,1755586476662,25.16,-28.37,-59.37,812,774,818,869,870,33.333333333333336,-0.435,-0.429,0.794
89911,1755586476691,25.1,-28.36,-59.38,815,766,828,864,886,34.48275862068966,-0.434,-0.424,0.794
89941,1755586476721,25.11,-28.37,-59.35,823,770,813,866,871,33.333333333333336,-0.434,-0.427,0.801
89970,1755586476751,25.17,-28.31,-59.28,816,762,819,861,873,34.48275862068966,-0.429,-0.425,0.799
90000,1755586476780,25.23,-28.33,-59.28,817,760,821,866,868,33.333333333333336,-0.426,-0.423,0.792
90030,1755586476810,25.28,-28.41,-59.33,811,764,830,875,867,33.333333333333336,-0.431,-0.421,0.789
90059,1755586476840,25.25,-28.44,-59.41,812,769,813,870,874,34.48275862068966,-0.437,-0.423,0.792
90089,1755586476869,25.31,-28.42,-59.42,816,772,820,859,876,33.333333333333336,-0.441,-0.425,0.797
90119,1755586476899,25.33,-28.39,-59.45,811,765,829,865,874,33.333333333333336,-0.44,-0.419,0.794
90148,1755586476928,25.21,-28.45,-59.58,822,775,821,858,857,34.48275862068966,-0.433,-0.419,0.793
90178,1755586476958,25.18,-28.48,-59.71,814,771,811,865,869,33.333333333333336,-0.431,-0.427,0.798
90207,1755586476987,25.03,-28.48,-59.8,810,773,826,869,891,34.48275862068966,-0.431,-0.427,0.796
90237,1755586477017,24.97,-28.49,-59.87,813,774,814,862,864,33.333333333333336,-0.432,-0.423,0.793
90266,1755586477046,24.94,-28.56,-59.94,810,764,809,865,872,34.48275862068966,-0.435,-0.421,0.794
90296,1755586477076,24.94,-28.68,-60.04,810,773,821,852,889,33.333333333333336,-0.435,-0.423,0.795
90326,1755586477106,24.9,-28.75,-60.08,811,771,808,872,873,33.333333333333336,-0.436,-0.43,0.799
90355,1755586477135,24.94,-28.79,-60.07,814,759,816,872,873,34.48275862068966,-0.429,-0.436,0.801
90385,1755586477165,24.92,-28.8,-60.1,808,775,818,867,874,33.333333333333336,-0.42,-0.434,0.796
90414,1755586477194,24.84,-28.88,-60.18,812,769,819,873,872,34.48275862068966,-0.42,-0.433,0.798
90444,1755586477224,24.86,-28.95,-60.26,817,770,823,867,869,33.333333333333336,-0.425,-0.436,0.802
90473,1755586477253,24.93,-28.99,-60.28,813,766,818,871,872,34.48275862068966,-0.425,-0.437,0.804
90503,1755586477283,24.99,-28.96,-60.29,811,771,824,872,871,33.333333333333336,-0.425,-0.439,0.808
90533,1755586477313,25.02,-28.86,-60.28,814,773,817,868,889,33.333333333333336,-0.422,-0.442,0.808
90562,1755586477343,25.09,-28.78,-60.25,816,763,812,869,881,34.48275862068966,-0.419,-0.443,0.806
90592,1755586477372,25.15,-28.76,-60.25,815,769,815,867,876,33.333333333333336,-0.417,-0.436,0.798
90622,1755586477402,25.12,-28.81,-60.32,815,774,822,864,872,33.333333333333336,-0.422,-0.43,0.795
90651,1755586477431,25.1,-28.85,-60.37,810,771,817,865,866,34.48275862068966,-0.429,-0.432,0.797
90681,1755586477461,25.13,-28.86,-60.34,816,765,818,865,871,33.333333333333336,-0.435,-0.435,0.794
90710,1755586477490,25.12,-28.9,-60.3,815,773,817,867,871,34.48275862068966,-0.436,-0.436,0.79
90740,1755586477520,25.07,-28.95,-60.28,808,775,822,869,868,33.333333333333336,-0.434,-0.439,0.789
90769,1755586477549,25.01,-28.95,-60.28,809,769,821,856,873,34.48275862068966,-0.431,-0.442,0.794
90799,1755586477579,24.97,-28.93,-60.3,806,767,825,869,881,33.333333333333336,-0.423,-0.44,0.796
90829,1755586477609,24.99,-28.92,-60.38,815,766,817,874,871,33.333333333333336,-0.418,-0.44,0.796
90858,1755586477638,24.88,-28.94,-60.55,806,770,816,867,869,34.48275862068966,-0.42,-0.438,0.793
90888,1755586477668,24.9,-28.95,-60.63,815,769,826,874,883,33.333333333333336,-0.425,-0.438,0.795
90918,1755586477697,24.85,-28.95,-60.72,810,770,827,865,880,33.333333333333336,-0.428,-0.436,0.793
90947,1755586477727,24.81,-28.96,-60.78,816,770,814,873,884,34.48275862068966,-0.43,-0.438,0.795
90977,1755586477756,24.75,-28.89,-60.81,806,758,826,857,869,33.333333333333336,-0.427,-0.442,0.798
91006,1755586477787,24.64,-28.87,-60.85,815,769,813,856,874,34.48275862068966,-0.422,-0.44,0.795
91026,1755586477806,24.54,-28.89,-60.91,817,772,819,872,874,50.0,-0.417,-0.438,0.794
91056,1755586477836,24.41,-28.86,-61.0,815,774,816,868,867,33.333333333333336,-0.414,-0.44,0.8
91085,1755586477865,24.26,-28.78,-61.11,816,773,817,874,867,34.48275862068966,-0.414,-0.443,0.803
91115,1755586477895,24.05,-28.7,-61.22,817,766,811,868,871,33.333333333333336,-0.412,-0.442,0.801
91145,1755586477925,23.84,-28.69,-61.36,803,770,828,866,872,33.333333333333336,-0.405,-0.437,0.799
91174,1755586477954,23.75,-28.77,-61.48,809,766,817,863,870,34.48275862068966,-0.404,-0.44,0.803
91204,1755586477984,23.69,-28.7,-61.49,808,769,818,864,873,33.333333333333336,-0.408,-0.447,0.809
91233,1755586478013,23.73,-28.62,-61.45,811,771,819,870,879,34.48275862068966,-0.405,-0.442,0.803
91263,1755586478043,23.72,-28.62,-61.46,812,770,824,856,876,33.333333333333336,-0.401,-0.438,0.8
91292,1755586478072,23.65,-28.64,-61.51,808,779,818,866,876,34.48275862068966,-0.402,-0.44,0.804
91322,1755586478102,23.59,-28.61,-61.51,807,762,818,867,873,33.333333333333336,-0.406,-0.444,0.808
91351,1755586478131,23.61,-28.57,-61.48,816,763,818,868,869,34.48275862068966,-0.399,-0.443,0.81
91381,1755586478161,23.63,-28.54,-61.48,812,769,828,867,873,33.333333333333336,-0.392,-0.44,0.811
91410,1755586478190,23.6,-28.51,-61.53,809,768,813,863,874,34.48275862068966,-0.39,-0.439,0.812
91440,1755586478220,23.57,-28.51,-61.6,812,769,821,863,877,33.333333333333336,-0.393,-0.439,0.812
91469,1755586478250,23.6,-28.45,-61.6,815,769,817,870,887,34.48275862068966,-0.395,-0.438,0.813
91499,1755586478279,23.61,-28.39,-61.62,819,769,815,860,877,33.333333333333336,-0.396,-0.436,0.813
91528,1755586478308,23.58,-28.35,-61.66,814,773,814,861,871,34.48275862068966,-0.396,-0.436,0.813
91558,1755586478338,23.55,-28.32,-61.68,816,774,821,865,874,33.333333333333336,-0.394,-0.437,0.813
91587,1755586478368,23.53,-28.32,-61.7,814,763,807,869,870,34.48275862068966,-0.393,-0.436,0.81
91617,1755586478397,23.53,-28.37,-61.72,814,778,824,862,875,33.333333333333336,-0.393,-0.435,0.812
91646,1755586478426,23.51,-28.39,-61.77,814,763,820,863,863,34.48275862068966,-0.391,-0.435,0.816
91676,1755586478456,23.53,-28.33,-61.79,812,759,818,867,871,33.333333333333336,-0.392,-0.436,0.813
91696,1755586478476,23.54,-28.31,-61.8,813,771,810,864,864,50.0,-0.393,-0.435,0.809
91726,1755586478505,23.56,-28.37,-61.83,812,773,814,874,871,33.333333333333336,-0.394,-0.436,0.811
91755,1755586478536,23.58,-28.36,-61.83,813,770,817,857,870,34.48275862068966,-0.396,-0.439,0.814
91784,1755586478565,23.63,-28.31,-61.81,812,772,820,871,873,34.48275862068966,-0.397,-0.441,0.815
91814,1755586478594,23.66,-28.3,-61.8,818,775,826,866,876,33.333333333333336,-0.394,-0.437,0.813
91844,1755586478624,23.64,-28.33,-61.84,813,769,816,864,869,33.333333333333336,-0.392,-0.434,0.812
91873,1755586478653,23.63,-28.35,-61.87,809,772,808,855,871,34.48275862068966,-0.396,-0.435,0.813
91902,1755586478682,23.63,-28.33,-61.87,813,774,819,862,875,34.48275862068966,-0.398,-0.438,0.816
91932,1755586478712,23.7,-28.3,-61.86,812,772,815,875,870,33.333333333333336,-0.395,-0.437,0.815
91961,1755586478741,23.7,-28.29,-61.88,807,767,822,862,878,34.48275862068966,-0.392,-0.435,0.812
91991,1755586478771,23.68,-28.29,-61.92,812,774,824,869,873,33.333333333333336,-0.392,-0.432,0.813
92021,1755586478801,23.64,-28.28,-61.96,809,768,820,867,871,33.333333333333336,-0.396,-0.435,0.814
92050,1755586478831,23.72,-28.26,-61.96,818,769,823,867,878,34.48275862068966,-0.397,-0.439,0.816
92071,1755586478851,23.75,-28.21,-61.95,807,770,818,872,874,47.61904761904762,-0.4,-0.439,0.816
92100,1755586478880,23.71,-28.16,-61.95,813,778,813,868,869,34.48275862068966,-0.4,-0.437,0.81
92130,1755586478910,23.71,-28.18,-61.96,815,773,820,868,884,33.333333333333336,-0.4,-0.435,0.809
92159,1755586478939,23.71,-28.22,-61.98,815,759,813,870,878,34.48275862068966,-0.398,-0.432,0.814
92189,1755586478969,23.69,-28.18,-62.0,812,771,828,866,864,33.333333333333336,-0.398,-0.432,0.817
92218,1755586478999,23.7,-28.17,-62.02,823,763,811,862,880,34.48275862068966,-0.397,-0.432,0.812
92248,1755586479028,23.7,-28.2,-62.06,817,767,815,866,874,33.333333333333336,-0.398,-0.432,0.813
92278,1755586479058,23.66,-28.18,-62.07,807,766,815,873,872,33.333333333333336,-0.398,-0.433,0.817
92308,1755586479088,23.69,-28.15,-62.07,805,770,819,868,870,33.333333333333336,-0.399,-0.436,0.816
92337,1755586479117,23.68,-28.16,-62.07,812,765,820,866,873,34.48275862068966,-0.399,-0.436,0.811
92367,1755586479147,23.67,-28.22,-62.07,818,774,812,876,876,33.333333333333336,-0.398,-0.432,0.812
92396,1755586479177,23.67,-28.19,-62.09,815,760,814,865,866,34.48275862068966,-0.397,-0.432,0.819
92426,1755586479207,23.7,-28.11,-62.09,813,775,819,872,872,33.333333333333336,-0.398,-0.434,0.818
92456,1755586479236,23.72,-28.1,-62.08,815,767,816,866,863,33.333333333333336,-0.401,-0.434,0.813
92486,1755586479265,23.66,-28.08,-62.06,818,770,813,872,866,33.333333333333336,-0.403,-0.432,0.81
92515,1755586479295,23.62,-28.07,-62.05,816,768,836,869,869,34.48275862068966,-0.402,-0.432,0.81
92544,1755586479325,23.61,-28.07,-62.06,811,774,823,873,872,34.48275862068966,-0.398,-0.434,0.813
92574,1755586479355,23.61,-28.05,-62.07,808,771,820,866,878,33.333333333333336,-0.395,-0.432,0.813
92604,1755586479384,23.54,-28.06,-62.12,811,775,818,854,865,33.333333333333336,-0.392,-0.431,0.813
92634,1755586479414,23.58,-28.04,-62.17,811,771,818,868,874,33.333333333333336,-0.393,-0.431,0.818
92663,1755586479444,23.58,-28.01,-62.21,813,761,816,870,882,34.48275862068966,-0.396,-0.427,0.813
92693,1755586479473,23.5,-28.07,-62.27,810,768,818,868,876,33.333333333333336,-0.398,-0.426,0.808
92723,1755586479503,23.53,-28.13,-62.3,817,758,817,866,865,33.333333333333336,-0.399,-0.431,0.813
92752,1755586479532,23.5,-28.08,-62.3,811,770,815,867,875,34.48275862068966,-0.398,-0.432,0.817
92782,1755586479562,23.51,-28.08,-62.32,811,770,828,863,861,33.333333333333336,-0.395,-0.432,0.815
92811,1755586479591,23.5,-28.08,-62.33,814,774,823,870,870,34.48275862068966,-0.394,-0.43,0.813
92841,1755586479621,23.47,-28.11,-62.39,810,767,818,866,868,33.333333333333336,-0.395,-0.428,0.813
92870,1755586479650,23.42,-28.12,-62.43,812,776,817,861,876,34.48275862068966,-0.397,-0.431,0.815
92900,1755586479680,23.51,-28.12,-62.44,805,765,807,871,874,33.333333333333336,-0.396,-0.432,0.817
92929,1755586479709,23.5,-28.1,-62.49,813,769,818,864,866,34.48275862068966,-0.393,-0.43,0.815
92959,1755586479739,23.48,-28.1,-62.56,818,772,817,867,875,33.333333333333336,-0.394,-0.432,0.814
92988,1755586479768,23.47,-28.11,-62.59,810,764,818,867,870,34.48275862068966,-0.398,-0.435,0.813
93018,1755586479798,23.52,-28.13,-62.58,817,773,817,864,869,33.333333333333336,-0.399,-0.433,0.815
93038,1755586479818,23.48,-28.1,-62.58,816,771,813,874,874,50.0,-0.398,-0.431,0.817
93067,1755586479847,23.49,-28.08,-62.61,817,774,816,868,871,34.48275862068966,-0.393,-0.431,0.818
93097,1755586479877,23.52,-28.05,-62.64,815,771,815,874,861,33.333333333333336,-0.392,-0.432,0.815
93126,1755586479906,23.49,-28.03,-62.67,812,773,819,866,873,34.48275862068966,-0.392,-0.429,0.809
93156,1755586479936,23.38,-28.07,-62.76,809,766,820,869,867,33.333333333333336,-0.402,-0.434,0.818
93185,1755586479966,23.53,-28.2,-62.82,813,777,813,865,870,34.48275862068966,-0.41,-0.44,0.826
93215,1755586479996,23.56,-28.21,-62.86,816,769,821,859,874,33.333333333333336,-0.408,-0.436,0.822
93245,1755586480025,23.6,-28.18,-62.89,815,772,820,870,875,33.333333333333336,-0.405,-0.433,0.819
93275,1755586480055,23.57,-28.23,-62.96,809,766,815,860,861,33.333333333333336,-0.399,-0.432,0.817
93304,1755586480085,23.57,-28.26,-63.02,812,775,817,860,867,34.48275862068966,-0.401,-0.434,0.822
93325,1755586480105,23.53,-28.2,-63.02,810,776,823,870,872,47.61904761904762,-0.398,-0.435,0.82
93354,1755586480134,23.52,-28.17,-63.02,815,769,812,871,868,34.48275862068966,-0.394,-0.436,0.816
93384,1755586480164,23.53,-28.2,-63.03,811,770,829,867,876,33.333333333333336,-0.397,-0.437,0.813
93414,1755586480194,23.46,-28.24,-63.02,808,763,819,865,874,33.333333333333336,-0.396,-0.433,0.812
93443,1755586480223,23.45,-28.21,-63.02,812,778,820,871,873,34.48275862068966,-0.393,-0.432,0.819
93473,1755586480253,23.53,-28.21,-63.02,814,768,811,870,877,33.333333333333336,-0.396,-0.433,0.816
93502,1755586480282,23.47,-28.26,-63.03,826,773,813,876,874,34.48275862068966,-0.395,-0.428,0.807
93532,1755586480311,23.41,-28.34,-63.05,813,769,810,873,884,33.333333333333336,-0.396,-0.43,0.811
93561,1755586480341,23.4,-28.35,-63.0,818,773,812,869,868,34.48275862068966,-0.4,-0.433,0.818
93591,1755586480371,23.38,-28.31,-62.97,814,763,820,863,871,33.333333333333336,-0.397,-0.434,0.816
93620,1755586480400,23.37,-28.32,-62.98,814,775,819,858,868,34.48275862068966,-0.392,-0.436,0.814
93649,1755586480429,23.36,-28.31,-62.96,816,766,836,864,875,34.48275862068966,-0.389,-0.437,0.817
93679,1755586480459,23.41,-28.29,-62.98,813,771,822,864,877,33.333333333333336,-0.388,-0.434,0.817
93699,1755586480479,23.38,-28.26,-63.02,809,764,815,874,874,50.0,-0.388,-0.431,0.813
93728,1755586480509,23.4,-28.28,-63.08,811,762,811,873,870,34.48275862068966,-0.394,-0.431,0.815
93758,1755586480538,23.46,-28.24,-63.09,808,766,817,852,880,33.333333333333336,-0.396,-0.429,0.816
93788,1755586480568,23.45,-28.23,-63.11,815,776,811,865,882,33.333333333333336,-0.392,-0.427,0.81
93817,1755586480597,23.42,-28.28,-63.17,812,767,814,861,873,34.48275862068966,-0.391,-0.431,0.815
93847,1755586480628,23.44,-28.27,-63.2,809,764,818,872,875,33.333333333333336,-0.393,-0.433,0.818
93867,1755586480647,23.46,-28.26,-63.2,812,769,820,863,879,50.0,-0.394,-0.433,0.816
93896,1755586480676,23.45,-28.26,-63.21,812,769,807,863,874,34.48275862068966,-0.393,-0.433,0.815
93926,1755586480706,23.47,-28.28,-63.24,814,767,818,860,876,33.333333333333336,-0.39,-0.431,0.814
93955,1755586480735,23.44,-28.28,-63.29,812,772,817,869,869,34.48275862068966,-0.392,-0.431,0.816
93985,1755586480765,23.43,-28.29,-63.32,809,773,812,874,870,33.333333333333336,-0.394,-0.434,0.816
94014,1755586480795,23.44,-28.28,-63.33,814,768,807,866,873,34.48275862068966,-0.396,-0.435,0.814
94044,1755586480824,23.43,-28.3,-63.34,808,765,813,863,877,33.333333333333336,-0.397,-0.436,0.813
94074,1755586480853,23.41,-28.29,-63.32,807,780,814,866,879,33.333333333333336,-0.397,-0.436,0.814
94103,1755586480883,23.4,-28.28,-63.31,812,765,821,867,875,34.48275862068966,-0.397,-0.435,0.813
94132,1755586480912,23.36,-28.3,-63.29,816,776,794,867,877,34.48275862068966,-0.396,-0.434,0.811
94162,1755586480942,23.34,-28.32,-63.29,819,771,820,874,884,33.333333333333336,-0.393,-0.433,0.814
94192,1755586480971,23.32,-28.31,-63.3,813,778,818,859,871,33.333333333333336,-0.391,-0.435,0.817
94221,1755586481002,23.35,-28.29,-63.29,815,772,818,864,865,34.48275862068966,-0.391,-0.433,0.814
94241,1755586481021,23.35,-28.31,-63.3,815,763,812,858,877,50.0,-0.392,-0.431,0.814
94271,1755586481051,23.36,-28.31,-63.33,809,771,824,866,866,33.333333333333336,-0.392,-0.431,0.816
94300,1755586481080,23.36,-28.29,-63.35,809,768,814,869,868,34.48275862068966,-0.393,-0.432,0.815
94330,1755586481110,23.35,-28.29,-63.38,806,767,815,866,867,33.333333333333336,-0.392,-0.431,0.813
94359,1755586481139,23.32,-28.34,-63.43,820,776,815,868,874,34.48275862068966,-0.393,-0.433,0.813
94389,1755586481169,23.35,-28.36,-63.45,813,770,825,865,870,33.333333333333336,-0.397,-0.437,0.816
94418,1755586481198,23.36,-28.32,-63.42,810,763,818,873,877,34.48275862068966,-0.399,-0.438,0.816
94448,1755586481228,23.35,-28.28,-63.41,810,772,814,868,868,33.333333333333336,-0.394,-0.434,0.815
94477,1755586481258,23.34,-28.28,-63.45,816,779,818,861,870,34.48275862068966,-0.391,-0.43,0.813
94507,1755586481287,23.32,-28.32,-63.51,813,770,821,872,862,33.333333333333336,-0.393,-0.43,0.815
94536,1755586481316,23.33,-28.29,-63.54,810,774,817,876,866,34.48275862068966,-0.395,-0.433,0.818
94566,1755586481346,23.34,-28.26,-63.56,810,773,821,871,888,33.333333333333336,-0.396,-0.435,0.814
94596,1755586481376,23.31,-28.3,-63.58,815,773,815,859,878,33.333333333333336,-0.396,-0.434,0.811
94625,1755586481405,23.3,-28.31,-63.6,814,767,821,862,879,34.48275862068966,-0.395,-0.434,0.813
94655,1755586481435,23.28,-28.32,-63.62,816,777,820,868,875,33.333333333333336,-0.395,-0.434,0.814
94684,1755586481465,23.27,-27.86,-63.64,812,764,824,859,867,34.48275862068966,-0.394,-0.436,0.817
94705,1755586481485,23.27,-27.84,-63.65,811,765,813,864,872,47.61904761904762,-0.392,-0.437,0.818
94734,1755586481514,23.31,-27.81,-63.66,814,772,827,868,874,34.48275862068966,-0.391,-0.437,0.817
94764,1755586481544,23.29,-27.8,-63.68,815,766,812,851,862,33.333333333333336,-0.392,-0.434,0.814
94793,1755586481573,23.28,-27.84,-63.73,808,775,804,868,867,34.48275862068966,-0.394,-0.43,0.811
94823,1755586481603,23.27,-27.89,-63.76,812,771,816,865,866,33.333333333333336,-0.396,-0.431,0.814
94852,1755586481632,23.26,-27.9,-63.78,806,766,816,871,869,34.48275862068966,-0.394,-0.435,0.815
94882,1755586481662,23.26,-27.92,-63.8,816,764,819,863,875,33.333333333333336,-0.392,-0.436,0.813
94911,1755586481691,23.21,-27.95,-63.82,810,780,821,865,871,34.48275862068966,-0.391,-0.437,0.814
94941,1755586481721,23.18,-27.96,-63.84,815,773,827,868,869,33.333333333333336,-0.391,-0.436,0.818
94970,1755586481750,23.23,-27.92,-63.85,817,768,817,869,866,34.48275862068966,-0.392,-0.435,0.82
95000,1755586481780,23.21,-27.9,-63.88,808,761,805,870,868,33.333333333333336,-0.392,-0.432,0.814
95030,1755586481809,23.16,-27.95,-63.92,815,768,823,864,870,33.333333333333336,-0.392,-0.434,0.812
95059,1755586481839,23.17,-27.96,-63.93,816,768,828,867,874,34.48275862068966,-0.392,-0.437,0.817
95088,1755586481869,23.19,-27.94,-63.92,815,764,818,875,870,34.48275862068966,-0.39,-0.436,0.815
95118,1755586481898,23.16,-27.94,-63.96,816,775,817,863,874,33.333333333333336,-0.39,-0.433,0.812
95147,1755586481928,23.16,-27.97,-63.99,814,767,817,866,877,34.48275862068966,-0.391,-0.434,0.813
95177,1755586481957,23.17,-27.96,-63.99,806,767,815,874,884,33.333333333333336,-0.393,-0.436,0.816
95207,1755586481987,23.19,-27.94,-63.98,811,772,819,861,871,33.333333333333336,-0.391,-0.434,0.816
95236,1755586482016,23.17,-27.93,-64.01,815,770,819,872,865,34.48275862068966,-0.387,-0.433,0.814
95266,1755586482046,23.16,-27.95,-64.05,807,769,813,869,879,33.333333333333336,-0.388,-0.434,0.814
95295,1755586482075,23.17,-27.96,-64.06,813,765,813,866,874,34.48275862068966,-0.393,-0.434,0.814
95325,1755586482105,23.19,-27.96,-64.08,810,779,816,865,864,33.333333333333336,-0.394,-0.433,0.813
95354,1755586482134,23.17,-27.99,-64.1,807,758,817,869,874,34.48275862068966,-0.393,-0.434,0.813
95384,1755586482164,23.17,-28.01,-64.11,819,769,823,871,862,33.333333333333336,-0.391,-0.435,0.815
95413,1755586482194,23.15,-28.0,-64.13,812,770,843,862,874,34.48275862068966,-0.39,-0.435,0.817
95443,1755586482223,23.16,-27.98,-64.16,810,759,819,871,872,33.333333333333336,-0.391,-0.435,0.817
95473,1755586482253,23.19,-27.96,-64.16,814,776,821,866,886,33.333333333333336,-0.392,-0.436,0.816
95502,1755586482282,23.18,-27.97,-64.16,808,766,802,866,882,34.48275862068966,-0.392,-0.435,0.813
95532,1755586482312,23.15,-28.01,-64.18,812,766,818,872,874,33.333333333333336,-0.393,-0.436,0.815
95561,1755586482341,23.14,-28.01,-64.17,817,774,819,866,870,34.48275862068966,-0.392,-0.434,0.818
95591,1755586482371,23.15,-27.98,-64.19,814,773,812,865,867,33.333333333333336,-0.39,-0.431,0.816
95620,1755586482400,23.12,-28.0,-64.22,811,770,820,861,869,34.48275862068966,-0.392,-0.433,0.815
95650,1755586482430,23.12,-28.03,-64.24,813,773,811,875,901,33.333333333333336,-0.393,-0.437,0.816
95679,1755586482460,23.13,-27.99,-64.21,817,777,818,868,870,34.48275862068966,-0.393,-0.438,0.817
95709,1755586482489,23.14,-27.96,-64.21,808,769,826,863,877,33.333333333333336,-0.39,-0.433,0.816
95738,1755586482519,23.1,-27.98,-64.26,814,766,814,866,864,34.48275862068966,-0.389,-0.432,0.815
95768,1755586482549,23.12,-28.0,-64.29,813,767,814,864,878,33.333333333333336,-0.392,-0.435,0.816
95788,1755586482568,23.13,-28.0,-64.29,813,771,821,870,867,50.0,-0.394,-0.436,0.817
95818,1755586482598,23.15,-27.99,-64.28,811,774,820,864,882,33.333333333333336,-0.393,-0.435,0.816
95847,1755586482627,23.16,-27.98,-64.3,811,770,823,871,867,34.48275862068966,-0.39,-0.432,0.815
95877,1755586482657,23.15,-27.99,-64.35,810,779,813,869,876,33.333333333333336,-0.39,-0.432,0.814
95906,1755586482686,23.13,-28.03,-64.38,810,773,812,875,875,34.48275862068966,-0.393,-0.434,0.814
95936,1755586482716,23.15,-28.01,-64.37,815,766,817,866,875,33.333333333333336,-0.394,-0.429,0.816
95965,1755586482745,23.16,-28.0,-64.39,804,766,820,859,868,34.48275862068966,-0.391,-0.428,0.815
95995,1755586482775,23.13,-28.03,-64.43,813,771,819,871,877,33.333333333333336,-0.391,-0.429,0.813
96024,1755586482804,23.13,-28.05,-64.45,814,777,820,863,870,34.48275862068966,-0.395,-0.432,0.815
96054,1755586482834,23.16,-28.04,-64.45,808,778,814,869,877,33.333333333333336,-0.394,-0.432,0.817
96083,1755586482864,23.17,-28.02,-64.47,813,773,822,872,865,34.48275862068966,-0.39,-0.431,0.815
96113,1755586482893,23.13,-28.05,-64.53,815,772,820,867,870,33.333333333333336,-0.39,-0.432,0.813
96143,1755586482923,23.12,-28.06,-64.55,812,769,800,869,858,33.333333333333336,-0.392,-0.435,0.817
96172,1755586482952,23.16,-27.99,-64.55,810,773,813,870,870,34.48275862068966,-0.393,-0.437,0.82
96202,1755586482982,23.17,-27.94,-64.56,811,776,809,864,871,33.333333333333336,-0.391,-0.436,0.819
96231,1755586483012,23.2,-27.93,-64.57,810,765,818,875,868,34.48275862068966,-0.393,-0.435,0.812
96261,1755586483041,23.15,-27.93,-64.58,816,770,816,870,878,33.333333333333336,-0.397,-0.434,0.81
96291,1755586483071,23.17,-27.96,-64.58,811,769,814,864,876,33.333333333333336,-0.397,-0.433,0.814
96320,1755586483101,23.16,-27.93,-64.57,809,767,823,860,867,34.48275862068966,-0.393,-0.432,0.816
96350,1755586483130,23.15,-27.92,-64.58,815,773,817,879,871,33.333333333333336,-0.388,-0.431,0.816
96380,1755586483160,23.12,-27.91,-64.6,816,767,822,872,869,33.333333333333336,-0.39,-0.433,0.816
96409,1755586483189,23.04,-27.85,-65.08,804,758,823,864,868,34.48275862068966,-0.39,-0.433,0.817
96439,1755586483219,22.99,-27.83,-65.13,813,776,813,867,871,33.333333333333336,-0.39,-0.432,0.813
