timestamp_ms,recv_timestamp_ms,pitch,roll,yaw,flex1,flex2,flex3,flex4,flex5,sampling_hz,accel_x,accel_y,accel_z
35217,1755587547408,22.3,-54.92,-15.88,762,770,763,801,848,50.0,-0.375,-0.756,0.523
35247,1755587547437,22.27,-54.96,-15.9,759,779,767,818,864,33.333333333333336,-0.373,-0.758,0.53
35277,1755587547467,22.26,-54.87,-15.89,758,773,773,813,846,33.333333333333336,-0.373,-0.761,0.533
35307,1755587547497,22.23,-54.89,-15.89,769,772,773,810,846,33.333333333333336,-0.375,-0.763,0.527
35337,1755587547527,22.21,-55.03,-15.87,758,768,772,812,838,33.333333333333336,-0.375,-0.76,0.523
35367,1755587547557,22.19,-55.11,-15.91,759,771,769,819,843,33.333333333333336,-0.372,-0.758,0.53
35396,1755587547587,22.13,-55.02,-15.94,761,775,766,812,833,34.48275862068966,-0.37,-0.758,0.532
35426,1755587547617,22.15,-55.05,-15.93,757,767,774,814,836,33.333333333333336,-0.37,-0.762,0.529
35456,1755587547647,22.16,-55.1,-15.93,762,766,774,813,851,33.333333333333336,-0.37,-0.765,0.532
35486,1755587547676,22.19,-55.06,-15.93,761,775,756,816,844,33.333333333333336,-0.369,-0.763,0.531
35516,1755587547706,22.17,-55.08,-15.96,761,780,766,811,839,33.333333333333336,-0.372,-0.762,0.527
35536,1755587547726,22.16,-55.1,-15.98,760,777,781,817,834,50.0,-0.374,-0.761,0.524
35566,1755587547756,22.19,-55.08,-15.95,755,773,764,813,842,33.333333333333336,-0.374,-0.76,0.521
35586,1755587547776,22.2,-55.1,-15.95,754,763,762,813,833,50.0,-0.372,-0.76,0.523
35616,1755587547806,22.19,-55.09,-15.98,762,763,773,812,840,33.333333333333336,-0.372,-0.762,0.527
35645,1755587547836,22.2,-55.08,-15.97,757,769,774,813,849,34.48275862068966,-0.373,-0.762,0.526
35675,1755587547866,22.24,-55.11,-15.95,748,774,770,815,841,33.333333333333336,-0.373,-0.763,0.526
35705,1755587547895,22.2,-55.08,-15.98,755,771,771,822,837,33.333333333333336,-0.374,-0.762,0.527
35735,1755587547925,22.22,-55.05,-15.96,755,765,769,818,845,33.333333333333336,-0.374,-0.761,0.524
35765,1755587547955,22.2,-55.11,-15.96,748,771,764,818,847,33.333333333333336,-0.374,-0.761,0.526
35785,1755587547975,22.18,-55.12,-15.97,761,777,766,812,840,50.0,-0.375,-0.762,0.53
35815,1755587548005,22.18,-55.13,-15.97,761,777,770,821,847,33.333333333333336,-0.375,-0.763,0.529
35844,1755587548035,22.18,-55.13,-15.96,759,767,773,812,852,34.48275862068966,-0.373,-0.76,0.527
35874,1755587548065,22.22,-55.13,-15.96,757,773,773,814,841,33.333333333333336,-0.372,-0.761,0.528
35904,1755587548094,22.15,-55.09,-15.97,754,775,775,815,845,33.333333333333336,-0.371,-0.76,0.526
35934,1755587548125,22.18,-55.15,-15.96,762,774,772,805,845,33.333333333333336,-0.371,-0.759,0.526
35954,1755587548144,22.15,-55.18,-15.99,765,775,761,815,839,50.0,-0.372,-0.763,0.529
35984,1755587548174,22.1,-55.11,-16.02,759,768,763,821,833,33.333333333333336,-0.374,-0.763,0.529
36014,1755587548204,22.12,-55.13,-15.99,757,777,777,817,846,33.333333333333336,-0.373,-0.761,0.529
36034,1755587548225,22.14,-55.18,-15.98,758,770,779,814,845,50.0,-0.374,-0.764,0.533
36054,1755587548245,22.1,-55.17,-16.0,758,770,771,814,842,50.0,-0.373,-0.762,0.533
36084,1755587548275,22.13,-55.12,-15.98,766,773,776,814,837,33.333333333333336,-0.371,-0.76,0.531
36114,1755587548305,22.1,-55.12,-16.01,761,773,771,812,844,33.333333333333336,-0.373,-0.763,0.529
36134,1755587548324,22.06,-55.12,-16.05,759,771,773,820,837,50.0,-0.375,-0.761,0.526
36164,1755587548354,22.1,-55.12,-16.02,756,769,768,820,846,33.333333333333336,-0.376,-0.76,0.526
36194,1755587548384,22.12,-55.14,-16.03,748,768,762,814,841,33.333333333333336,-0.377,-0.762,0.526
36224,1755587548414,22.07,-55.21,-16.05,757,770,770,811,845,33.333333333333336,-0.377,-0.763,0.525
36253,1755587548444,22.1,-55.24,-16.01,762,769,772,814,848,34.48275862068966,-0.374,-0.76,0.529
36283,1755587548474,22.15,-55.14,-15.99,763,769,770,809,853,33.333333333333336,-0.374,-0.76,0.534
36303,1755587548494,22.08,-55.06,-16.04,755,774,762,817,845,50.0,-0.375,-0.761,0.532
36333,1755587548524,22.06,-55.12,-16.07,754,772,768,815,846,33.333333333333336,-0.375,-0.762,0.524
36363,1755587548554,22.12,-55.23,-16.03,759,778,766,815,850,33.333333333333336,-0.376,-0.765,0.53
36383,1755587548574,22.1,-55.14,-16.04,759,779,782,812,850,50.0,-0.375,-0.765,0.535
36413,1755587548604,22.08,-55.07,-16.02,761,768,771,814,831,33.333333333333336,-0.374,-0.765,0.534
36443,1755587548634,22.12,-55.12,-15.96,759,773,763,817,841,33.333333333333336,-0.375,-0.766,0.53
36463,1755587548654,22.12,-55.21,-15.94,761,771,775,815,845,50.0,-0.377,-0.768,0.526
36483,1755587548674,22.12,-55.25,-15.93,757,770,766,817,842,50.0,-0.379,-0.766,0.529
36513,1755587548704,22.12,-55.13,-15.92,760,771,771,809,834,33.333333333333336,-0.375,-0.761,0.531
36534,1755587548724,22.1,-55.1,-15.95,751,774,772,818,835,47.61904761904762,-0.372,-0.757,0.53
36563,1755587548754,22.06,-55.13,-16.0,758,775,766,817,845,34.48275862068966,-0.373,-0.755,0.525
36584,1755587548774,22.08,-55.2,-16.0,755,771,767,817,845,47.61904761904762,-0.372,-0.752,0.522
36613,1755587548804,22.09,-55.28,-16.06,758,763,762,814,844,34.48275862068966,-0.372,-0.756,0.53
36643,1755587548834,22.05,-55.16,-16.12,749,770,771,805,850,33.333333333333336,-0.373,-0.761,0.529
36663,1755587548854,22.05,-55.18,-16.13,756,775,741,814,843,50.0,-0.373,-0.764,0.524
36684,1755587548874,22.13,-55.26,-16.09,759,774,766,819,843,47.61904761904762,-0.372,-0.767,0.527
36704,1755587548895,22.21,-55.25,-16.05,761,772,767,814,840,50.0,-0.372,-0.77,0.534
36724,1755587548915,22.21,-55.15,-16.04,755,771,773,810,838,50.0,-0.369,-0.767,0.536
36744,1755587548935,22.19,-55.08,-16.08,756,763,785,814,847,50.0,-0.368,-0.761,0.528
36774,1755587548964,22.18,-55.13,-16.13,762,772,769,811,846,33.333333333333336,-0.374,-0.758,0.52
36804,1755587548995,22.18,-55.14,-16.15,762,771,764,819,833,33.333333333333336,-0.376,-0.756,0.518
36824,1755587549015,22.12,-55.2,-16.22,770,769,774,819,842,50.0,-0.377,-0.758,0.518
36854,1755587549045,21.99,-55.32,-16.3,754,775,769,806,835,33.333333333333336,-0.38,-0.761,0.518
36884,1755587549075,21.97,-55.35,-16.23,764,770,764,809,843,33.333333333333336,-0.38,-0.764,0.523
36914,1755587549104,21.89,-55.28,-16.22,760,768,772,824,841,33.333333333333336,-0.376,-0.767,0.527
36944,1755587549134,21.79,-55.33,-16.24,757,775,764,806,841,33.333333333333336,-0.369,-0.766,0.524
36974,1755587549164,21.78,-55.39,-16.23,761,763,773,809,841,33.333333333333336,-0.366,-0.765,0.526
37003,1755587549194,21.77,-55.41,-16.25,760,767,767,815,845,34.48275862068966,-0.363,-0.762,0.528
37023,1755587549214,21.77,-55.42,-16.28,758,777,764,818,845,50.0,-0.364,-0.764,0.529
37043,1755587549234,21.72,-55.44,-16.34,759,774,766,813,836,50.0,-0.363,-0.765,0.527
37073,1755587549264,21.75,-55.42,-16.32,749,778,768,813,841,33.333333333333336,-0.364,-0.767,0.528
37103,1755587549293,21.91,-55.32,-16.21,758,765,773,818,838,33.333333333333336,-0.362,-0.768,0.528
37133,1755587549324,21.87,-55.39,-16.25,749,771,767,814,832,33.333333333333336,-0.36,-0.767,0.527
37153,1755587549344,21.85,-55.45,-16.28,754,783,770,813,842,50.0,-0.359,-0.763,0.528
37173,1755587549364,21.85,-55.48,-16.29,754,766,769,814,840,50.0,-0.364,-0.762,0.529
37203,1755587549394,21.85,-55.37,-16.3,758,776,769,817,838,33.333333333333336,-0.368,-0.764,0.528
37223,1755587549414,21.88,-55.34,-16.29,751,775,769,813,842,50.0,-0.368,-0.765,0.528
37243,1755587549434,21.9,-55.36,-16.28,764,775,768,824,843,50.0,-0.368,-0.768,0.527
37273,1755587549464,21.95,-55.35,-16.25,761,762,767,819,843,33.333333333333336,-0.368,-0.769,0.528
37293,1755587549484,21.96,-55.33,-16.23,756,780,777,810,843,50.0,-0.364,-0.766,0.526
37323,1755587549513,21.96,-55.37,-16.27,764,774,768,814,848,33.333333333333336,-0.363,-0.763,0.525
37353,1755587549543,21.98,-55.37,-16.31,755,779,768,817,843,33.333333333333336,-0.367,-0.765,0.525
37383,1755587549573,22.0,-55.37,-16.32,761,773,769,815,842,33.333333333333336,-0.37,-0.765,0.523
37412,1755587549603,22.08,-55.36,-16.31,758,772,773,816,840,34.48275862068966,-0.373,-0.764,0.526
37442,1755587549633,22.16,-55.33,-16.31,760,771,771,814,836,33.333333333333336,-0.375,-0.765,0.526
37472,1755587549663,22.23,-55.28,-16.29,765,777,769,808,845,33.333333333333336,-0.375,-0.764,0.524
37502,1755587549692,22.26,-55.28,-16.29,765,774,768,820,842,33.333333333333336,-0.373,-0.764,0.524
37532,1755587549722,22.27,-55.27,-16.3,751,769,767,813,840,33.333333333333336,-0.371,-0.764,0.522
37562,1755587549752,22.27,-55.32,-16.33,754,771,770,816,844,33.333333333333336,-0.369,-0.764,0.521
37591,1755587549782,22.21,-55.31,-16.38,747,774,770,815,838,34.48275862068966,-0.368,-0.762,0.523
37621,1755587549812,22.07,-55.32,-16.52,753,767,764,824,838,33.333333333333336,-0.37,-0.762,0.522
37651,1755587549842,21.91,-55.44,-16.7,752,777,766,814,849,33.333333333333336,-0.37,-0.763,0.522
37681,1755587549872,21.75,-55.53,-16.87,761,772,767,821,840,33.333333333333336,-0.371,-0.763,0.52
37711,1755587549902,21.68,-55.59,-16.98,764,776,764,818,841,33.333333333333336,-0.37,-0.759,0.519
37741,1755587549931,21.72,-55.66,-17.06,760,766,773,813,839,33.333333333333336,-0.37,-0.766,0.53
37771,1755587549962,21.66,-55.57,-17.14,762,772,773,818,846,33.333333333333336,-0.37,-0.773,0.527
37791,1755587549981,21.61,-55.6,-17.17,755,778,766,816,851,50.0,-0.368,-0.776,0.523
37821,1755587550011,21.72,-55.71,-17.07,759,768,764,819,846,33.333333333333336,-0.364,-0.777,0.525
37851,1755587550041,21.82,-55.61,-16.96,749,771,763,812,851,33.333333333333336,-0.36,-0.776,0.528
37881,1755587550071,21.79,-55.55,-16.97,763,775,761,812,842,33.333333333333336,-0.358,-0.772,0.524
37901,1755587550091,21.76,-55.54,-16.97,764,772,770,817,852,50.0,-0.36,-0.77,0.518
37921,1755587550111,21.75,-55.58,-16.95,754,773,770,810,842,50.0,-0.362,-0.77,0.515
37951,1755587550141,21.81,-55.66,-16.91,756,766,771,813,850,33.333333333333336,-0.363,-0.771,0.516
37981,1755587550171,21.77,-55.68,-16.92,760,770,775,813,833,33.333333333333336,-0.362,-0.77,0.521
38010,1755587550201,21.79,-55.74,-16.93,758,778,773,811,838,34.48275862068966,-0.36,-0.771,0.523
38040,1755587550231,21.8,-55.75,-16.92,754,776,767,812,832,33.333333333333336,-0.364,-0.773,0.521
38070,1755587550261,21.81,-55.72,-16.88,752,774,766,820,842,33.333333333333336,-0.363,-0.772,0.519
38100,1755587550290,21.78,-55.78,-16.9,757,773,773,814,833,33.333333333333336,-0.364,-0.772,0.519
38130,1755587550320,21.75,-55.84,-16.9,759,777,767,811,850,33.333333333333336,-0.364,-0.769,0.516
38160,1755587550350,21.77,-55.86,-16.88,761,767,766,822,850,33.333333333333336,-0.36,-0.766,0.521
38189,1755587550380,21.83,-55.77,-16.86,765,779,773,807,848,34.48275862068966,-0.359,-0.769,0.526
38219,1755587550410,21.75,-55.77,-16.94,756,771,769,813,836,33.333333333333336,-0.358,-0.772,0.522
38239,1755587550430,21.72,-55.83,-16.97,760,771,768,814,838,50.0,-0.359,-0.773,0.519
38269,1755587550460,21.77,-55.85,-16.95,761,778,769,819,836,33.333333333333336,-0.36,-0.772,0.521
38299,1755587550490,21.77,-55.81,-16.96,758,769,771,819,836,33.333333333333336,-0.361,-0.771,0.52
38319,1755587550509,21.72,-55.83,-16.98,758,770,765,813,839,50.0,-0.36,-0.77,0.519
38349,1755587550539,21.71,-55.91,-17.0,755,776,769,816,847,33.333333333333336,-0.363,-0.772,0.52
38379,1755587550569,21.66,-55.88,-17.02,754,774,767,811,845,33.333333333333336,-0.365,-0.774,0.518
38409,1755587550599,21.64,-55.91,-17.02,760,769,766,817,845,33.333333333333336,-0.365,-0.774,0.519
38439,1755587550629,21.67,-55.94,-17.02,755,768,767,816,839,33.333333333333336,-0.364,-0.775,0.52
38468,1755587550659,21.62,-55.85,-16.99,766,780,778,812,841,34.48275862068966,-0.364,-0.775,0.519
38498,1755587550689,21.6,-55.93,-17.01,756,774,770,811,843,33.333333333333336,-0.361,-0.771,0.518
38528,1755587550719,21.63,-55.99,-17.02,757,776,765,816,840,33.333333333333336,-0.36,-0.77,0.519
38548,1755587550739,21.61,-55.99,-17.05,754,770,764,817,845,50.0,-0.358,-0.769,0.52
38578,1755587550769,21.6,-55.96,-17.1,760,766,773,814,844,33.333333333333336,-0.357,-0.771,0.523
38598,1755587550789,21.59,-55.95,-17.12,755,773,768,816,845,50.0,-0.356,-0.772,0.524
38628,1755587550819,21.66,-55.96,-17.1,749,772,771,821,847,33.333333333333336,-0.36,-0.775,0.524
38658,1755587550849,21.72,-55.95,-17.1,756,772,777,811,844,33.333333333333336,-0.359,-0.775,0.521
38688,1755587550879,21.74,-55.99,-17.15,760,774,767,813,848,33.333333333333336,-0.358,-0.774,0.521
38708,1755587550898,21.74,-55.99,-17.18,755,775,770,816,835,50.0,-0.36,-0.774,0.518
38738,1755587550928,21.77,-55.96,-17.18,754,778,773,814,839,33.333333333333336,-0.361,-0.774,0.514
38768,1755587550959,21.78,-56.05,-17.21,761,768,761,821,846,33.333333333333336,-0.364,-0.774,0.513
38789,1755587550979,21.76,-56.08,-17.22,766,770,763,801,837,47.61904761904762,-0.366,-0.776,0.515
38809,1755587550999,21.72,-56.07,-17.24,760,764,769,814,846,50.0,-0.366,-0.776,0.515
38839,1755587551030,21.7,-56.12,-17.28,759,772,774,819,843,33.333333333333336,-0.363,-0.773,0.515
38859,1755587551049,21.7,-56.15,-17.27,755,777,770,815,845,50.0,-0.361,-0.774,0.515
38889,1755587551079,21.7,-56.22,-17.35,754,773,762,809,860,33.333333333333336,-0.356,-0.775,0.515
38909,1755587551100,21.68,-56.28,-17.41,750,769,770,813,843,50.0,-0.356,-0.773,0.519
38929,1755587551119,21.67,-56.27,-17.44,756,776,761,812,838,50.0,-0.355,-0.773,0.521
38959,1755587551149,21.63,-56.24,-17.49,755,780,763,817,841,33.333333333333336,-0.36,-0.773,0.519
38989,1755587551179,21.63,-56.27,-17.55,763,763,770,831,849,33.333333333333336,-0.362,-0.777,0.518
39009,1755587551199,21.59,-56.29,-17.61,753,775,771,811,841,50.0,-0.365,-0.783,0.517
39039,1755587551229,21.58,-56.28,-17.56,758,776,767,813,847,33.333333333333336,-0.366,-0.785,0.514
39069,1755587551259,21.67,-56.31,-17.45,763,766,761,808,847,33.333333333333336,-0.362,-0.783,0.514
39098,1755587551289,21.64,-56.34,-17.44,757,766,769,810,844,34.48275862068966,-0.356,-0.78,0.517
39118,1755587551309,21.59,-56.28,-17.45,759,765,770,814,848,50.0,-0.353,-0.777,0.514
39148,1755587551340,21.62,-56.27,-17.48,756,776,771,818,843,33.333333333333336,-0.353,-0.778,0.513
39169,1755587551359,21.63,-56.27,-17.48,759,774,770,817,843,47.61904761904762,-0.359,-0.782,0.512
39199,1755587551390,21.55,-56.32,-17.52,751,774,766,811,841,33.333333333333336,-0.362,-0.78,0.508
39219,1755587551410,21.53,-56.38,-17.51,750,772,782,816,842,50.0,-0.362,-0.776,0.511
39249,1755587551439,21.53,-56.37,-17.49,757,770,769,816,843,33.333333333333336,-0.363,-0.776,0.516
39279,1755587551470,21.55,-56.25,-17.46,757,764,772,812,847,33.333333333333336,-0.364,-0.779,0.515
39299,1755587551489,21.52,-56.2,-17.45,757,776,767,820,831,50.0,-0.362,-0.779,0.511
39329,1755587551519,21.56,-56.27,-17.43,760,774,771,808,843,33.333333333333336,-0.36,-0.778,0.507
39359,1755587551549,21.58,-56.29,-17.38,755,772,772,816,838,33.333333333333336,-0.36,-0.777,0.509
39379,1755587551569,21.55,-56.27,-17.38,755,775,772,809,847,50.0,-0.358,-0.774,0.509
39399,1755587551589,21.53,-56.28,-17.4,762,772,776,812,833,50.0,-0.355,-0.77,0.511
39429,1755587551619,21.53,-56.31,-17.45,755,777,771,821,846,33.333333333333336,-0.355,-0.773,0.515
39459,1755587551649,21.47,-56.27,-17.53,758,771,771,821,841,33.333333333333336,-0.356,-0.776,0.516
39488,1755587551679,21.49,-56.24,-17.53,756,778,771,817,844,34.48275862068966,-0.358,-0.777,0.515
39508,1755587551699,21.55,-56.24,-17.51,760,776,762,820,847,50.0,-0.359,-0.779,0.515
39538,1755587551729,21.56,-56.23,-17.5,754,769,769,818,840,33.333333333333336,-0.361,-0.778,0.516
39568,1755587551759,21.53,-56.12,-17.48,760,774,765,819,840,33.333333333333336,-0.363,-0.777,0.516
39598,1755587551788,21.58,-56.1,-17.44,758,768,774,812,844,33.333333333333336,-0.359,-0.777,0.512
39628,1755587551818,21.61,-56.15,-17.43,752,777,758,811,837,33.333333333333336,-0.359,-0.776,0.512
39658,1755587551848,21.6,-56.16,-17.45,760,774,768,809,841,33.333333333333336,-0.358,-0.775,0.514
39687,1755587551878,21.58,-56.15,-17.5,765,777,770,814,842,34.48275862068966,-0.359,-0.776,0.514
39717,1755587551908,21.6,-56.18,-17.52,759,770,776,810,838,33.333333333333336,-0.361,-0.778,0.515
39747,1755587551937,21.62,-56.19,-17.51,760,773,771,815,851,33.333333333333336,-0.363,-0.779,0.515
39777,1755587551967,21.63,-56.15,-17.47,754,775,766,814,843,33.333333333333336,-0.362,-0.775,0.516
39807,1755587551997,21.61,-56.18,-17.5,758,768,768,826,845,33.333333333333336,-0.362,-0.775,0.516
39836,1755587552027,21.6,-56.17,-17.51,762,771,783,810,842,34.48275862068966,-0.361,-0.775,0.516
39866,1755587552057,21.63,-56.19,-17.49,748,777,767,816,843,33.333333333333336,-0.363,-0.777,0.518
39896,1755587552086,21.64,-56.14,-17.48,760,772,776,810,841,33.333333333333336,-0.363,-0.778,0.518
39926,1755587552116,21.61,-56.16,-17.5,759,762,777,817,833,33.333333333333336,-0.362,-0.777,0.515
39956,1755587552146,21.61,-56.15,-17.47,752,764,771,815,845,33.333333333333336,-0.362,-0.775,0.515
39986,1755587552176,21.6,-56.15,-17.49,752,773,765,814,843,33.333333333333336,-0.362,-0.775,0.515
40015,1755587552206,21.59,-56.13,-17.48,759,772,763,819,847,34.48275862068966,-0.361,-0.777,0.511
40045,1755587552236,21.5,-56.25,-17.52,752,775,771,811,845,33.333333333333336,-0.36,-0.775,0.512
40065,1755587552256,21.53,-56.25,-17.49,753,770,766,805,837,50.0,-0.363,-0.776,0.518
40095,1755587552285,21.57,-56.07,-17.41,760,776,771,821,839,33.333333333333336,-0.365,-0.777,0.521
40125,1755587552315,21.57,-56.01,-17.39,752,779,763,813,848,33.333333333333336,-0.363,-0.777,0.519
40155,1755587552345,21.56,-56.08,-17.4,759,769,771,811,843,33.333333333333336,-0.362,-0.776,0.518
40185,1755587552375,21.65,-56.09,-17.38,756,773,769,825,845,33.333333333333336,-0.363,-0.774,0.519
40214,1755587552405,21.65,-56.02,-17.4,758,770,763,811,865,34.48275862068966,-0.362,-0.774,0.517
40234,1755587552425,21.61,-56.03,-17.45,756,770,769,809,846,50.0,-0.363,-0.773,0.512
40264,1755587552455,21.59,-56.1,-17.47,748,765,776,803,828,33.333333333333336,-0.364,-0.772,0.513
40294,1755587552485,21.66,-56.09,-17.45,757,771,770,816,840,33.333333333333336,-0.365,-0.774,0.516
40314,1755587552505,21.62,-56.12,-17.49,761,772,770,826,847,50.0,-0.363,-0.773,0.511
40344,1755587552535,21.51,-56.31,-17.55,754,764,770,810,857,33.333333333333336,-0.361,-0.772,0.51
40364,1755587552554,21.52,-56.38,-17.56,751,766,776,815,842,50.0,-0.361,-0.771,0.515
40394,1755587552584,21.57,-56.31,-17.56,757,771,773,820,846,33.333333333333336,-0.36,-0.773,0.518
40424,1755587552614,21.42,-56.34,-17.67,755,766,797,806,840,33.333333333333336,-0.361,-0.775,0.512
40454,1755587552644,21.43,-56.36,-17.64,759,762,771,817,846,33.333333333333336,-0.366,-0.776,0.512
40484,1755587552674,21.56,-56.36,-17.56,755,775,768,810,856,33.333333333333336,-0.365,-0.777,0.514
40504,1755587552694,21.6,-56.35,-17.54,758,776,768,812,844,50.0,-0.363,-0.777,0.516
40534,1755587552724,21.55,-56.37,-17.62,757,775,787,814,845,33.333333333333336,-0.359,-0.777,0.516
40563,1755587552754,21.56,-56.35,-17.63,755,776,778,812,848,34.48275862068966,-0.357,-0.778,0.514
40593,1755587552784,21.57,-56.39,-17.68,767,761,764,813,840,33.333333333333336,-0.355,-0.779,0.516
40613,1755587552804,21.54,-56.41,-17.72,760,773,762,816,839,50.0,-0.358,-0.779,0.519
40643,1755587552834,21.52,-56.31,-17.74,761,765,768,812,846,33.333333333333336,-0.36,-0.78,0.516
40673,1755587552863,21.55,-56.31,-17.73,757,766,767,804,850,33.333333333333336,-0.364,-0.78,0.512
40703,1755587552893,21.55,-56.36,-17.71,761,773,770,813,845,33.333333333333336,-0.364,-0.777,0.509
40733,1755587552923,21.6,-56.4,-17.7,760,779,777,811,841,33.333333333333336,-0.363,-0.775,0.511
40763,1755587552953,21.59,-56.35,-17.7,762,771,769,816,840,33.333333333333336,-0.361,-0.775,0.513
40793,1755587552983,21.59,-56.38,-17.7,767,778,766,814,864,33.333333333333336,-0.36,-0.776,0.512
40813,1755587553004,21.6,-56.4,-17.69,761,766,766,810,837,50.0,-0.36,-0.777,0.514
40843,1755587553033,21.63,-56.33,-17.68,759,778,778,818,851,33.333333333333336,-0.358,-0.778,0.517
40872,1755587553063,21.53,-56.26,-17.76,763,771,769,809,822,34.48275862068966,-0.361,-0.779,0.51
40902,1755587553093,21.36,-56.21,-17.8,757,775,769,810,839,33.333333333333336,-0.36,-0.778,0.505
40932,1755587553123,21.38,-56.32,-17.78,759,767,771,818,847,33.333333333333336,-0.358,-0.777,0.511
40962,1755587553152,21.4,-56.25,-17.73,763,773,774,816,833,33.333333333333336,-0.357,-0.778,0.522
40992,1755587553182,21.37,-56.12,-17.72,756,778,758,814,846,33.333333333333336,-0.355,-0.775,0.521
41012,1755587553202,21.41,-56.13,-17.7,762,768,767,810,846,50.0,-0.352,-0.772,0.514
41042,1755587553232,21.57,-56.31,-17.69,767,774,769,805,841,33.333333333333336,-0.355,-0.777,0.515
41071,1755587553262,21.49,-56.15,-17.74,766,774,776,812,848,34.48275862068966,-0.359,-0.779,0.519
41101,1755587553292,21.41,-56.05,-17.8,766,777,771,820,845,33.333333333333336,-0.358,-0.775,0.511
41131,1755587553322,21.42,-56.2,-17.84,758,774,770,817,841,33.333333333333336,-0.362,-0.777,0.508
41161,1755587553351,21.36,-56.12,-17.85,757,771,767,807,839,33.333333333333336,-0.364,-0.78,0.516
41191,1755587553381,21.29,-55.97,-17.86,757,772,772,819,833,33.333333333333336,-0.358,-0.777,0.517
41221,1755587553411,21.3,-55.94,-17.86,758,771,762,804,836,33.333333333333336,-0.357,-0.777,0.514
41250,1755587553441,21.25,-56.04,-17.91,755,770,763,803,844,34.48275862068966,-0.357,-0.774,0.513
41280,1755587553471,21.3,-56.03,-17.89,753,762,770,811,833,33.333333333333336,-0.358,-0.772,0.517
41310,1755587553501,21.36,-56.05,-17.9,752,774,763,819,834,33.333333333333336,-0.357,-0.774,0.517
41340,1755587553530,21.26,-56.04,-17.94,757,779,764,818,844,33.333333333333336,-0.359,-0.775,0.517
41370,1755587553560,21.24,-56.05,-17.94,755,772,766,824,837,33.333333333333336,-0.36,-0.775,0.515
41400,1755587553590,21.32,-56.09,-17.88,762,773,765,807,837,33.333333333333336,-0.359,-0.775,0.516
41430,1755587553620,21.25,-55.99,-17.88,762,771,769,816,835,33.333333333333336,-0.357,-0.777,0.521
41459,1755587553650,21.24,-55.94,-17.87,757,763,767,804,840,34.48275862068966,-0.355,-0.776,0.52
41489,1755587553680,21.27,-55.99,-17.86,758,775,772,816,836,33.333333333333336,-0.355,-0.777,0.519
41519,1755587553710,21.26,-55.96,-17.86,754,767,765,809,841,33.333333333333336,-0.355,-0.776,0.52
41539,1755587553730,21.24,-55.92,-17.86,763,769,765,817,852,50.0,-0.355,-0.773,0.52
41559,1755587553750,21.27,-55.9,-17.84,759,764,773,816,848,50.0,-0.355,-0.773,0.519
41589,1755587553780,21.32,-55.95,-17.82,751,781,770,818,836,33.333333333333336,-0.358,-0.775,0.517
41609,1755587553800,21.32,-55.95,-17.8,743,773,765,816,850,50.0,-0.36,-0.773,0.519
41639,1755587553830,21.3,-55.95,-17.83,758,772,769,816,846,33.333333333333336,-0.359,-0.773,0.518
41659,1755587553850,21.29,-55.97,-17.84,767,776,768,811,839,50.0,-0.359,-0.772,0.516
41689,1755587553880,21.28,-55.94,-17.83,762,765,769,811,844,33.333333333333336,-0.359,-0.773,0.519
41709,1755587553900,21.26,-55.93,-17.85,760,776,769,807,840,50.0,-0.357,-0.774,0.521
41729,1755587553920,21.24,-55.93,-17.87,751,775,775,811,840,50.0,-0.356,-0.773,0.521
41759,1755587553950,21.27,-55.94,-17.85,759,770,772,812,856,33.333333333333336,-0.357,-0.773,0.522
41779,1755587553970,21.31,-55.94,-17.85,753,764,778,817,843,50.0,-0.358,-0.772,0.523
41809,1755587554000,21.29,-56.39,-17.92,765,766,773,811,841,33.333333333333336,-0.358,-0.772,0.52
41839,1755587554030,21.26,-56.35,-17.92,756,770,774,815,841,33.333333333333336,-0.36,-0.773,0.516
41859,1755587554050,21.26,-56.36,-17.92,759,773,765,818,841,50.0,-0.361,-0.775,0.513
41889,1755587554079,21.22,-56.41,-17.93,761,771,769,815,843,33.333333333333336,-0.36,-0.774,0.518
41919,1755587554109,21.2,-56.38,-17.93,750,772,769,814,845,33.333333333333336,-0.359,-0.774,0.521
41949,1755587554139,21.23,-56.31,-17.91,758,774,768,812,841,33.333333333333336,-0.359,-0.775,0.52
41969,1755587554159,21.23,-56.29,-17.89,761,772,772,813,843,50.0,-0.358,-0.774,0.518
41998,1755587554189,21.22,-56.29,-17.89,758,771,768,810,845,34.48275862068966,-0.358,-0.773,0.517
42028,1755587554219,21.23,-56.35,-17.91,756,776,773,814,839,33.333333333333336,-0.359,-0.773,0.518
42058,1755587554249,21.18,-56.31,-17.94,760,771,764,810,831,33.333333333333336,-0.36,-0.774,0.518
42088,1755587554278,21.12,-56.31,-17.97,761,768,767,815,839,33.333333333333336,-0.359,-0.773,0.517
42118,1755587554308,21.17,-56.34,-17.94,764,775,768,816,843,33.333333333333336,-0.358,-0.774,0.519
42138,1755587554328,21.18,-56.35,-17.94,758,776,761,808,841,50.0,-0.358,-0.774,0.521
42168,1755587554358,21.18,-56.32,-17.96,760,773,777,811,841,33.333333333333336,-0.356,-0.774,0.52
42198,1755587554388,21.21,-56.32,-17.96,756,774,765,814,844,33.333333333333336,-0.357,-0.774,0.519
42227,1755587554418,21.21,-56.39,-18.0,758,770,769,813,846,34.48275862068966,-0.356,-0.775,0.514
42257,1755587554448,21.19,-56.51,-18.02,759,774,768,805,840,33.333333333333336,-0.356,-0.773,0.518
42287,1755587554478,21.19,-56.4,-18.01,760,776,770,813,842,33.333333333333336,-0.357,-0.775,0.525
42317,1755587554508,21.17,-56.27,-18.01,755,773,772,810,842,33.333333333333336,-0.358,-0.775,0.521
42347,1755587554537,21.11,-56.35,-18.04,760,769,772,814,840,33.333333333333336,-0.358,-0.775,0.514
42377,1755587554567,21.13,-56.44,-18.04,760,774,761,815,835,33.333333333333336,-0.357,-0.773,0.517
42407,1755587554597,21.16,-56.38,-18.04,756,772,775,811,844,33.333333333333336,-0.356,-0.776,0.52
42436,1755587554627,21.11,-56.39,-18.09,763,770,775,823,845,34.48275862068966,-0.354,-0.777,0.519
42466,1755587554657,21.13,-56.37,-18.07,762,775,768,812,832,33.333333333333336,-0.356,-0.779,0.52
42496,1755587554687,21.17,-56.31,-18.03,753,779,767,826,842,33.333333333333336,-0.357,-0.777,0.519
42516,1755587554707,21.15,-56.28,-18.03,765,769,770,815,838,50.0,-0.357,-0.774,0.518
42537,1755587554727,21.13,-56.28,-18.05,756,764,773,806,844,47.61904761904762,-0.357,-0.772,0.514
42557,1755587554748,21.11,-56.28,-18.06,759,775,763,809,855,50.0,-0.357,-0.772,0.513
42578,1755587554768,21.14,-56.31,-18.06,759,783,777,816,848,47.61904761904762,-0.356,-0.774,0.514
42607,1755587554798,21.12,-56.3,-18.06,754,759,773,815,838,34.48275862068966,-0.356,-0.776,0.518
42637,1755587554828,21.09,-56.26,-18.06,754,766,769,811,838,33.333333333333336,-0.355,-0.776,0.52
42667,1755587554858,21.16,-56.25,-18.04,767,773,765,808,838,33.333333333333336,-0.356,-0.775,0.521
42687,1755587554878,21.16,-56.22,-18.04,761,773,766,807,841,50.0,-0.356,-0.773,0.52
42717,1755587554908,21.12,-56.18,-18.05,760,776,777,809,845,33.333333333333336,-0.358,-0.773,0.516
42747,1755587554938,21.13,-56.24,-18.06,757,774,768,812,839,33.333333333333336,-0.358,-0.772,0.513
42767,1755587554957,21.14,-56.28,-18.05,756,770,778,817,841,50.0,-0.358,-0.772,0.517
42797,1755587554988,21.17,-56.26,-18.04,747,770,763,813,840,33.333333333333336,-0.357,-0.773,0.522
42817,1755587555007,21.19,-56.24,-18.05,756,772,766,815,840,50.0,-0.358,-0.775,0.522
42847,1755587555037,21.14,-56.25,-18.08,762,776,762,813,839,33.333333333333336,-0.358,-0.775,0.518
42877,1755587555067,21.12,-56.28,-18.08,759,768,766,814,840,33.333333333333336,-0.359,-0.775,0.517
42907,1755587555097,21.15,-56.32,-18.08,757,773,766,810,841,33.333333333333336,-0.358,-0.774,0.52
42936,1755587555127,21.14,-56.28,-18.55,757,775,767,821,834,34.48275862068966,-0.356,-0.774,0.524
42966,1755587555157,21.16,-56.22,-18.55,761,765,772,811,841,33.333333333333336,-0.356,-0.775,0.524
42986,1755587555177,21.19,-56.15,-18.54,758,770,763,814,839,50.0,-0.358,-0.776,0.523
43016,1755587555207,21.23,-56.15,-18.55,761,774,770,813,831,33.333333333333336,-0.356,-0.773,0.518
43036,1755587555227,21.23,-56.22,-18.58,763,772,763,818,843,50.0,-0.356,-0.771,0.516
43066,1755587555257,21.24,-56.21,-18.59,756,766,770,815,842,33.333333333333336,-0.357,-0.77,0.519
43096,1755587555286,21.24,-56.16,-18.6,759,766,782,813,846,33.333333333333336,-0.356,-0.771,0.52
43126,1755587555316,21.22,-56.17,-18.63,755,768,756,807,839,33.333333333333336,-0.356,-0.772,0.521
43156,1755587555346,21.23,-56.15,-18.64,759,771,765,809,843,33.333333333333336,-0.357,-0.774,0.522
43185,1755587555376,21.21,-56.16,-18.67,752,769,772,815,832,34.48275862068966,-0.356,-0.774,0.519
43215,1755587555406,21.24,-56.2,-18.68,759,777,766,816,846,33.333333333333336,-0.358,-0.774,0.522
43245,1755587555436,20.81,-56.13,-18.68,754,773,773,814,846,33.333333333333336,-0.36,-0.774,0.52
43265,1755587555456,20.8,-56.14,-18.69,754,768,764,811,847,50.0,-0.36,-0.773,0.517
43286,1755587555476,20.79,-56.17,-18.69,763,772,771,819,842,47.61904761904762,-0.36,-0.774,0.516
43315,1755587555506,20.81,-56.19,-18.66,760,763,772,811,846,34.48275862068966,-0.359,-0.775,0.519
43335,1755587555526,20.84,-56.18,-18.65,760,774,767,818,845,50.0,-0.358,-0.776,0.521
43365,1755587555556,20.82,-56.19,-18.65,755,767,776,813,841,33.333333333333336,-0.358,-0.776,0.521
43395,1755587555586,20.84,-56.16,-18.61,751,766,773,816,846,33.333333333333336,-0.357,-0.776,0.521
