timestamp_ms,recv_timestamp_ms,pitch,roll,yaw,flex1,flex2,flex3,flex4,flex5,sampling_hz,accel_x,accel_y,accel_z
50293,1755585133414,25.52,-88.32,-51.66,828,867,840,833,846,33.333333333333336,-0.414,-0.902,0.019
50323,1755585133444,25.48,-88.41,-51.68,828,868,834,833,852,33.333333333333336,-0.418,-0.903,0.017
50352,1755585133474,25.46,-88.46,-51.66,834,873,829,844,835,34.48275862068966,-0.416,-0.903,0.02
50382,1755585133503,25.47,-88.45,-51.67,827,866,828,836,839,33.333333333333336,-0.415,-0.902,0.022
50411,1755585133532,25.41,-88.41,-51.7,832,855,829,837,841,34.48275862068966,-0.416,-0.904,0.02
50441,1755585133562,25.37,-88.45,-51.69,828,864,837,838,843,33.333333333333336,-0.416,-0.904,0.019
50470,1755585133592,25.43,-88.48,-51.68,829,866,826,842,847,34.48275862068966,-0.415,-0.903,0.022
50500,1755585133621,25.35,-88.42,-51.71,827,864,819,848,837,33.333333333333336,-0.415,-0.903,0.022
50529,1755585133651,25.31,-88.38,-51.73,831,869,835,838,884,34.48275862068966,-0.416,-0.905,0.021
50559,1755585133681,25.36,-88.43,-51.7,825,872,831,838,851,33.333333333333336,-0.416,-0.905,0.02
50589,1755585133710,25.36,-88.47,-51.71,825,864,831,836,850,33.333333333333336,-0.414,-0.899,0.025
50618,1755585133739,25.36,-88.44,-51.77,826,867,842,825,838,34.48275862068966,-0.415,-0.901,0.027
50648,1755585133769,25.37,-88.41,-51.77,834,863,829,830,847,33.333333333333336,-0.417,-0.906,0.021
50678,1755585133799,25.37,-88.48,-51.71,834,865,832,825,846,33.333333333333336,-0.416,-0.905,0.015
50708,1755585133829,25.43,-88.6,-51.71,835,869,830,831,847,33.333333333333336,-0.416,-0.904,0.019
50737,1755585133859,25.38,-88.52,-51.74,828,865,840,832,846,34.48275862068966,-0.416,-0.904,0.023
50767,1755585133888,25.31,-88.47,-51.75,832,859,835,836,862,33.333333333333336,-0.418,-0.906,0.02
50796,1755585133918,25.36,-88.55,-51.71,824,871,825,850,842,34.48275862068966,-0.417,-0.905,0.02
50826,1755585133947,25.37,-88.54,-51.72,830,870,834,833,850,33.333333333333336,-0.415,-0.903,0.023
50856,1755585133977,25.32,-88.48,-51.75,832,861,825,824,853,33.333333333333336,-0.418,-0.903,0.021
50885,1755585134006,25.34,-88.51,-51.74,828,867,835,839,856,34.48275862068966,-0.418,-0.902,0.019
50915,1755585134036,25.34,-88.59,-51.73,835,864,827,836,850,33.333333333333336,-0.417,-0.902,0.021
50944,1755585134065,25.29,-88.55,-51.76,830,863,832,830,847,34.48275862068966,-0.415,-0.904,0.025
50974,1755585134095,25.3,-88.46,-51.77,831,872,829,839,839,33.333333333333336,-0.416,-0.906,0.024
51004,1755585134125,25.34,-88.48,-51.72,830,870,822,856,853,33.333333333333336,-0.417,-0.903,0.017
51033,1755585134155,25.32,-88.57,-51.74,828,865,843,836,838,34.48275862068966,-0.416,-0.898,0.015
51063,1755585134184,25.29,-88.57,-51.78,822,867,830,839,841,33.333333333333336,-0.418,-0.901,0.02
51093,1755585134214,25.31,-88.58,-51.76,828,870,842,839,850,33.333333333333336,-0.418,-0.904,0.023
51122,1755585134243,25.33,-88.58,-51.73,827,877,854,834,847,34.48275862068966,-0.416,-0.904,0.023
51152,1755585134273,25.31,-88.56,-51.75,831,856,832,839,843,33.333333333333336,-0.415,-0.903,0.019
51181,1755585134303,25.29,-88.56,-51.74,836,863,839,841,848,34.48275862068966,-0.418,-0.901,0.016
51211,1755585134332,25.37,-88.65,-51.73,833,868,821,843,843,33.333333333333336,-0.42,-0.9,0.019
51240,1755585134362,25.32,-88.67,-51.78,834,866,824,835,836,34.48275862068966,-0.417,-0.902,0.022
51261,1755585134382,25.26,-88.61,-51.81,831,864,839,832,847,47.61904761904762,-0.416,-0.907,0.024
51290,1755585134411,25.27,-88.59,-51.78,827,865,822,854,842,34.48275862068966,-0.416,-0.907,0.021
51320,1755585134441,25.36,-88.6,-51.75,831,863,838,838,855,33.333333333333336,-0.418,-0.904,0.019
51340,1755585134461,25.33,-88.6,-51.75,831,866,832,840,852,50.0,-0.417,-0.901,0.015
51369,1755585134491,25.3,-88.63,-51.79,827,866,823,839,843,34.48275862068966,-0.418,-0.902,0.018
51399,1755585134520,25.34,-88.62,-51.76,831,865,830,838,845,33.333333333333336,-0.419,-0.905,0.022
51428,1755585134550,25.32,-88.61,-51.75,829,867,837,834,843,34.48275862068966,-0.416,-0.904,0.022
51458,1755585134579,25.29,-88.57,-51.78,820,873,832,845,856,33.333333333333336,-0.419,-0.902,0.018
51487,1755585134609,25.22,-88.6,-51.8,832,872,841,845,839,34.48275862068966,-0.42,-0.902,0.015
51517,1755585134638,25.2,-88.64,-51.8,828,865,837,832,844,33.333333333333336,-0.42,-0.904,0.017
51547,1755585134668,25.17,-88.62,-51.79,827,864,830,836,840,33.333333333333336,-0.417,-0.905,0.02
51576,1755585134698,25.19,-88.62,-51.77,837,870,819,867,837,34.48275862068966,-0.417,-0.905,0.022
51606,1755585134727,25.18,-88.61,-51.78,832,864,835,836,847,33.333333333333336,-0.418,-0.902,0.021
51635,1755585134757,25.15,-88.62,-51.8,833,872,809,834,850,34.48275862068966,-0.42,-0.901,0.019
51665,1755585134787,25.17,-88.64,-51.79,833,872,839,837,842,33.333333333333336,-0.42,-0.902,0.017
51694,1755585134816,25.18,-88.67,-51.78,828,870,832,831,855,34.48275862068966,-0.417,-0.903,0.018
51724,1755585134845,25.18,-88.68,-51.8,824,880,837,840,850,33.333333333333336,-0.416,-0.902,0.023
51753,1755585134875,25.2,-88.65,-51.83,828,866,827,837,856,34.48275862068966,-0.418,-0.903,0.022
51783,1755585134904,25.21,-88.62,-51.82,832,867,837,831,852,33.333333333333336,-0.417,-0.904,0.015
51813,1755585134934,25.22,-88.69,-51.81,828,872,834,834,852,33.333333333333336,-0.416,-0.9,0.018
51842,1755585134964,25.21,-88.66,-51.85,839,863,830,838,860,34.48275862068966,-0.418,-0.902,0.023
51872,1755585134993,25.2,-88.63,-51.85,830,872,833,836,869,33.333333333333336,-0.419,-0.905,0.019
51902,1755585135023,25.26,-88.66,-51.82,825,866,825,838,852,33.333333333333336,-0.418,-0.902,0.017
51931,1755585135053,25.25,-88.7,-51.86,830,862,823,839,847,34.48275862068966,-0.416,-0.901,0.017
51961,1755585135082,25.21,-88.68,-51.9,831,864,833,842,843,33.333333333333336,-0.418,-0.904,0.018
51991,1755585135112,25.24,-88.7,-51.88,833,866,834,834,839,33.333333333333336,-0.418,-0.904,0.016
52020,1755585135142,25.26,-88.75,-51.88,830,870,830,835,841,34.48275862068966,-0.418,-0.904,0.02
52050,1755585135171,25.21,-88.71,-51.92,825,868,838,834,851,33.333333333333336,-0.416,-0.902,0.019
52079,1755585135201,25.21,-88.72,-51.94,831,864,835,834,846,34.48275862068966,-0.416,-0.902,0.016
52109,1755585135230,25.27,-88.78,-51.93,829,869,839,830,843,33.333333333333336,-0.418,-0.904,0.018
52138,1755585135260,25.24,-88.78,-51.94,833,871,824,832,838,34.48275862068966,-0.416,-0.904,0.02
52168,1755585135290,25.23,-88.73,-51.97,832,869,822,840,841,33.333333333333336,-0.417,-0.903,0.018
52198,1755585135319,25.27,-88.77,-51.98,827,858,834,835,837,33.333333333333336,-0.417,-0.904,0.016
52228,1755585135349,25.25,-88.78,-52.0,830,861,818,844,846,33.333333333333336,-0.416,-0.903,0.017
52257,1755585135379,25.22,-88.7,-52.04,836,867,824,836,847,34.48275862068966,-0.415,-0.904,0.015
52287,1755585135408,25.23,-88.73,-52.04,828,868,832,847,841,33.333333333333336,-0.416,-0.905,0.014
52316,1755585135438,25.25,-88.78,-52.04,835,867,831,842,845,34.48275862068966,-0.416,-0.905,0.017
52346,1755585135467,25.22,-88.73,-52.06,832,866,827,837,849,33.333333333333336,-0.416,-0.905,0.02
52376,1755585135497,25.22,-88.7,-52.06,830,865,830,831,848,33.333333333333336,-0.416,-0.905,0.018
52405,1755585135527,25.26,-88.72,-52.02,838,863,838,833,848,34.48275862068966,-0.416,-0.905,0.016
52435,1755585135556,25.27,-88.75,-52.03,837,885,833,845,847,33.333333333333336,-0.415,-0.903,0.018
52465,1755585135586,25.23,-88.72,-52.07,831,869,829,836,845,33.333333333333336,-0.416,-0.904,0.02
52494,1755585135616,25.22,-88.71,-52.05,833,868,841,828,844,34.48275862068966,-0.417,-0.906,0.016
52524,1755585135646,25.23,-88.77,-52.03,828,869,846,830,837,33.333333333333336,-0.415,-0.904,0.014
52554,1755585135675,25.19,-88.82,-52.06,825,863,839,828,856,33.333333333333336,-0.413,-0.91,0.018
52583,1755585135705,25.2,-88.8,-52.05,828,877,831,843,833,34.48275862068966,-0.413,-0.908,0.02
52613,1755585135734,25.22,-88.77,-52.06,830,861,826,832,845,33.333333333333336,-0.415,-0.907,0.02
52642,1755585135764,25.17,-88.75,-52.08,825,868,828,852,844,34.48275862068966,-0.416,-0.904,0.017
52672,1755585135793,25.14,-88.76,-52.11,829,866,826,836,838,33.333333333333336,-0.416,-0.905,0.015
52701,1755585135823,25.18,-88.79,-52.1,826,872,841,831,844,34.48275862068966,-0.417,-0.906,0.017
52731,1755585135853,25.2,-88.78,-52.1,828,867,833,834,845,33.333333333333336,-0.415,-0.905,0.022
52761,1755585135882,25.19,-88.75,-52.13,824,869,848,824,848,33.333333333333336,-0.414,-0.904,0.021
52790,1755585135912,25.23,-88.74,-52.12,824,864,837,836,844,34.48275862068966,-0.418,-0.908,0.019
52820,1755585135941,25.25,-88.75,-52.09,827,867,837,835,840,33.333333333333336,-0.416,-0.905,0.018
52849,1755585135971,25.28,-88.77,-52.09,831,870,840,831,843,34.48275862068966,-0.416,-0.903,0.02
52879,1755585136000,25.26,-88.79,-52.13,832,868,818,827,840,33.333333333333336,-0.417,-0.904,0.019
52908,1755585136030,25.26,-88.77,-52.11,827,869,831,834,856,34.48275862068966,-0.418,-0.907,0.017
52929,1755585136050,25.27,-88.77,-52.09,819,872,836,838,856,47.61904761904762,-0.417,-0.907,0.017
52958,1755585136080,25.27,-88.75,-52.09,833,868,834,834,843,34.48275862068966,-0.414,-0.904,0.019
52988,1755585136109,25.23,-88.75,-52.14,831,867,834,839,880,33.333333333333336,-0.418,-0.905,0.017
53018,1755585136139,25.23,-88.74,-52.13,829,870,838,835,846,33.333333333333336,-0.42,-0.905,0.014
53047,1755585136168,25.25,-88.78,-52.13,825,870,830,830,841,34.48275862068966,-0.417,-0.906,0.017
53077,1755585136198,25.23,-88.74,-52.17,836,869,837,831,841,33.333333333333336,-0.415,-0.905,0.021
53106,1755585136228,25.21,-88.7,-52.18,824,857,834,833,846,34.48275862068966,-0.416,-0.906,0.019
53126,1755585136247,25.23,-88.71,-52.17,838,864,836,834,847,50.0,-0.417,-0.906,0.017
53156,1755585136277,25.25,-88.74,-52.17,830,869,816,843,848,33.333333333333336,-0.416,-0.904,0.015
53185,1755585136307,25.21,-88.71,-52.21,836,874,833,832,836,34.48275862068966,-0.417,-0.904,0.017
53215,1755585136336,25.23,-88.71,-52.21,832,870,832,836,845,33.333333333333336,-0.418,-0.905,0.017
53244,1755585136366,25.24,-88.76,-52.21,826,855,828,843,830,34.48275862068966,-0.415,-0.903,0.018
53274,1755585136395,25.24,-88.74,-52.24,831,858,840,837,845,33.333333333333336,-0.415,-0.904,0.019
53304,1755585136425,25.21,-88.71,-52.25,828,864,817,836,855,33.333333333333336,-0.417,-0.907,0.016
53333,1755585136454,25.23,-88.75,-52.23,835,869,839,827,851,34.48275862068966,-0.415,-0.905,0.013
53363,1755585136484,25.23,-88.8,-52.26,831,864,829,838,846,33.333333333333336,-0.414,-0.903,0.017
53392,1755585136513,25.2,-88.71,-52.28,830,866,836,844,848,34.48275862068966,-0.415,-0.905,0.017
53422,1755585136543,25.2,-88.71,-52.26,832,870,827,843,852,33.333333333333336,-0.414,-0.906,0.013
53451,1755585136573,25.23,-88.76,-52.72,827,873,832,837,848,34.48275862068966,-0.413,-0.902,0.014
53481,1755585136602,25.21,-88.74,-52.77,828,870,822,846,846,33.333333333333336,-0.417,-0.902,0.018
53511,1755585136632,25.23,-88.71,-52.76,837,875,826,836,847,33.333333333333336,-0.417,-0.905,0.016
53540,1755585136662,25.26,-88.72,-52.74,829,868,826,838,850,34.48275862068966,-0.414,-0.904,0.012
53570,1755585136692,25.22,-88.72,-52.78,826,858,841,839,844,33.333333333333336,-0.412,-0.904,0.015
53600,1755585136721,25.19,-88.7,-52.8,827,872,831,838,848,33.333333333333336,-0.414,-0.905,0.017
53629,1755585136751,25.26,-88.72,-52.77,827,871,819,826,852,34.48275862068966,-0.415,-0.905,0.018
53659,1755585136780,25.25,-88.73,-52.78,834,865,841,841,853,33.333333333333336,-0.415,-0.904,0.016
53688,1755585136810,25.18,-88.73,-52.81,821,872,832,838,845,34.48275862068966,-0.413,-0.904,0.013
53718,1755585136839,25.22,-88.78,-52.8,827,869,834,835,844,33.333333333333336,-0.414,-0.905,0.013
53748,1755585136869,25.23,-88.78,-52.8,829,855,831,835,845,33.333333333333336,-0.414,-0.905,0.017
53777,1755585136899,25.16,-88.74,-52.84,836,866,831,840,839,34.48275862068966,-0.413,-0.905,0.018
53807,1755585136928,25.14,-88.72,-52.85,830,866,830,837,841,33.333333333333336,-0.414,-0.905,0.013
53836,1755585136958,25.16,-88.8,-52.84,833,870,832,838,843,34.48275862068966,-0.414,-0.905,0.014
53866,1755585136988,25.14,-88.79,-52.87,829,873,830,837,853,33.333333333333336,-0.413,-0.906,0.018
53896,1755585137017,25.12,-88.73,-52.87,829,877,825,834,846,33.333333333333336,-0.414,-0.908,0.016
53925,1755585137047,25.13,-88.77,-52.85,831,865,838,842,836,34.48275862068966,-0.413,-0.906,0.013
53955,1755585137076,25.12,-88.81,-52.87,835,872,825,831,846,33.333333333333336,-0.412,-0.905,0.015
53984,1755585137106,25.06,-88.8,-52.92,827,866,834,832,872,34.48275862068966,-0.412,-0.905,0.017
54014,1755585137135,25.07,-88.79,-52.9,827,868,838,835,847,33.333333333333336,-0.415,-0.907,0.014
54043,1755585137165,25.08,-88.84,-52.89,834,867,813,831,844,34.48275862068966,-0.412,-0.905,0.014
54064,1755585137185,25.05,-88.85,-52.91,832,871,824,843,850,47.61904761904762,-0.411,-0.903,0.015
54093,1755585137215,25.02,-88.86,-52.96,826,864,839,828,837,34.48275862068966,-0.413,-0.903,0.017
54123,1755585137244,25.06,-88.87,-52.95,830,877,833,834,843,33.333333333333336,-0.414,-0.906,0.017
54152,1755585137274,25.04,-88.87,-52.96,824,871,819,823,830,34.48275862068966,-0.411,-0.904,0.016
54182,1755585137303,25.03,-88.84,-52.99,830,872,834,842,844,33.333333333333336,-0.412,-0.906,0.016
54212,1755585137333,25.07,-88.86,-52.98,833,880,838,823,854,33.333333333333336,-0.413,-0.905,0.013
54241,1755585137363,25.07,-88.92,-52.99,825,873,827,841,849,34.48275862068966,-0.41,-0.906,0.015
54271,1755585137392,25.06,-88.91,-52.99,821,864,833,833,841,33.333333333333336,-0.409,-0.908,0.021
54301,1755585137422,25.07,-88.86,-52.99,823,870,838,836,851,33.333333333333336,-0.41,-0.906,0.019
54330,1755585137451,25.08,-88.84,-53.0,830,862,829,837,843,34.48275862068966,-0.412,-0.905,0.013
54360,1755585137481,25.04,-88.91,-53.03,832,865,831,846,847,33.333333333333336,-0.411,-0.903,0.013
54389,1755585137511,25.07,-88.88,-53.05,833,861,825,837,842,34.48275862068966,-0.411,-0.905,0.021
54419,1755585137540,25.05,-88.81,-53.06,830,860,828,845,851,33.333333333333336,-0.41,-0.908,0.017
54449,1755585137570,25.05,-88.82,-53.05,830,860,829,831,853,33.333333333333336,-0.409,-0.906,0.013
54478,1755585137600,25.1,-88.85,-53.07,833,861,820,840,846,34.48275862068966,-0.411,-0.906,0.016
54508,1755585137629,25.07,-88.83,-53.09,827,870,832,839,859,33.333333333333336,-0.412,-0.906,0.019
54537,1755585137659,25.1,-88.8,-53.07,825,871,837,834,849,34.48275862068966,-0.412,-0.908,0.017
54567,1755585137688,25.11,-88.87,-53.05,835,863,821,845,849,33.333333333333336,-0.409,-0.906,0.013
54596,1755585137718,25.11,-88.92,-53.08,830,861,837,845,842,34.48275862068966,-0.409,-0.903,0.016
54626,1755585137747,25.12,-88.92,-53.12,835,866,834,828,845,33.333333333333336,-0.413,-0.905,0.013
54656,1755585137777,25.09,-88.91,-53.11,835,872,826,839,835,33.333333333333336,-0.409,-0.909,0.009
54686,1755585137807,25.1,-89.0,-53.11,834,868,827,843,834,33.333333333333336,-0.405,-0.907,0.013
54715,1755585137837,25.07,-88.94,-53.16,831,871,833,840,850,34.48275862068966,-0.409,-0.906,0.02
54735,1755585137857,25.03,-88.86,-53.18,832,864,824,836,862,50.0,-0.414,-0.906,0.022
54765,1755585137887,25.02,-88.77,-53.16,832,858,856,836,854,33.333333333333336,-0.411,-0.907,0.015
54785,1755585137906,25.03,-88.77,-53.14,828,867,844,838,838,50.0,-0.408,-0.909,0.006
54815,1755585137936,24.99,-88.85,-53.16,824,862,835,837,846,33.333333333333336,-0.408,-0.908,0.009
54844,1755585137966,25.01,-88.83,-53.16,831,865,833,838,844,34.48275862068966,-0.41,-0.906,0.02
54874,1755585137996,25.06,-88.73,-53.16,826,872,839,834,846,33.333333333333336,-0.41,-0.905,0.02
54904,1755585138025,24.99,-88.7,-53.19,840,854,820,844,841,33.333333333333336,-0.41,-0.906,0.013
54934,1755585138055,24.96,-88.78,-53.18,828,868,835,832,861,33.333333333333336,-0.41,-0.907,0.015
54963,1755585138084,25.05,-88.78,-53.17,833,873,824,828,843,34.48275862068966,-0.409,-0.905,0.02
54993,1755585138114,25.03,-88.71,-53.21,835,874,830,832,849,33.333333333333336,-0.411,-0.907,0.014
55022,1755585138143,25.0,-88.75,-53.21,831,867,831,835,841,34.48275862068966,-0.413,-0.904,0.012
55052,1755585138173,25.0,-88.8,-53.21,836,864,829,835,848,33.333333333333336,-0.413,-0.906,0.019
55072,1755585138193,24.98,-88.77,-53.2,838,855,833,834,846,50.0,-0.41,-0.908,0.023
55101,1755585138223,24.97,-88.76,-53.2,834,865,835,820,846,34.48275862068966,-0.407,-0.907,0.018
55131,1755585138252,24.97,-88.8,-53.21,833,867,832,834,844,33.333333333333336,-0.408,-0.907,0.015
55160,1755585138282,24.94,-88.82,-53.21,825,872,820,840,848,34.48275862068966,-0.411,-0.908,0.016
55190,1755585138311,24.95,-88.77,-53.22,842,866,843,839,841,33.333333333333336,-0.411,-0.905,0.016
55219,1755585138341,24.86,-88.76,-53.28,838,860,835,835,838,34.48275862068966,-0.412,-0.905,0.015
55249,1755585138370,24.78,-88.79,-53.29,831,870,831,838,846,33.333333333333336,-0.412,-0.907,0.018
55279,1755585138400,24.84,-88.7,-53.25,831,858,829,842,848,33.333333333333336,-0.411,-0.909,0.017
55308,1755585138430,24.79,-88.66,-53.24,829,874,821,839,850,34.48275862068966,-0.409,-0.909,0.008
55338,1755585138459,24.69,-88.78,-53.23,832,871,822,834,845,33.333333333333336,-0.406,-0.908,0.008
55368,1755585138489,24.72,-88.85,-53.22,830,862,828,828,839,33.333333333333336,-0.407,-0.906,0.021
55397,1755585138518,24.66,-88.73,-53.25,832,869,829,833,851,34.48275862068966,-0.411,-0.909,0.024
55427,1755585138548,24.62,-88.66,-53.21,829,868,820,829,837,33.333333333333336,-0.409,-0.906,0.022
55456,1755585138578,24.68,-88.63,-53.23,825,866,836,832,844,34.48275862068966,-0.407,-0.905,0.022
55486,1755585138607,24.61,-88.6,-53.27,831,872,832,836,868,33.333333333333336,-0.408,-0.905,0.021
55515,1755585138637,24.64,-88.62,-53.28,831,866,844,834,832,34.48275862068966,-0.41,-0.906,0.022
55545,1755585138667,24.66,-88.6,-53.24,827,864,849,846,853,33.333333333333336,-0.409,-0.909,0.021
55575,1755585138696,24.65,-88.65,-53.22,826,868,836,834,860,33.333333333333336,-0.406,-0.905,0.02
55604,1755585138726,24.72,-88.66,-53.27,827,854,827,839,847,34.48275862068966,-0.41,-0.904,0.024
55634,1755585138755,24.72,-88.57,-53.27,835,862,838,835,845,33.333333333333336,-0.415,-0.906,0.018
55663,1755585138785,24.73,-88.64,-53.25,827,865,829,841,848,34.48275862068966,-0.412,-0.906,0.011
55693,1755585138814,24.75,-88.77,-53.26,833,873,837,828,851,33.333333333333336,-0.408,-0.905,0.019
55722,1755585138844,24.74,-88.7,-53.28,822,877,832,838,871,34.48275862068966,-0.409,-0.907,0.026
55743,1755585138864,24.76,-88.63,-53.28,831,869,834,834,851,47.61904761904762,-0.412,-0.908,0.022
55772,1755585138893,24.76,-88.65,-53.27,830,864,820,833,853,34.48275862068966,-0.412,-0.904,0.01
55802,1755585138923,24.73,-88.78,-53.27,834,856,843,840,846,33.333333333333336,-0.405,-0.907,0.016
55831,1755585138953,24.72,-88.8,-53.28,827,867,830,839,849,34.48275862068966,-0.406,-0.909,0.021
55861,1755585138983,24.67,-88.76,-53.28,824,862,819,837,843,33.333333333333336,-0.407,-0.908,0.017
55891,1755585139012,24.69,-88.79,-53.29,830,870,831,842,847,33.333333333333336,-0.409,-0.907,0.017
55920,1755585139041,24.66,-88.78,-53.31,832,860,834,841,846,34.48275862068966,-0.41,-0.905,0.017
55950,1755585139071,24.64,-88.77,-53.33,830,869,832,837,841,33.333333333333336,-0.409,-0.905,0.016
55979,1755585139100,24.69,-88.76,-53.33,830,870,839,836,848,34.48275862068966,-0.408,-0.908,0.019
56009,1755585139130,24.69,-88.78,-53.32,827,866,849,837,839,33.333333333333336,-0.406,-0.907,0.018
56038,1755585139160,24.73,-88.8,-53.33,832,863,827,830,846,34.48275862068966,-0.407,-0.907,0.02
56068,1755585139189,24.75,-88.75,-53.35,828,878,835,836,841,33.333333333333336,-0.409,-0.906,0.019
56098,1755585139219,24.76,-88.73,-53.36,827,865,837,835,845,33.333333333333336,-0.411,-0.907,0.015
56127,1755585139249,24.78,-88.8,-53.36,831,874,834,834,849,34.48275862068966,-0.41,-0.908,0.013
56157,1755585139278,24.77,-88.78,-53.38,830,869,832,838,841,33.333333333333336,-0.41,-0.908,0.015
56186,1755585139307,24.76,-88.75,-53.36,830,861,835,844,849,34.48275862068966,-0.41,-0.911,0.016
56216,1755585139337,24.78,-88.74,-53.32,825,868,830,837,848,33.333333333333336,-0.408,-0.91,0.018
56245,1755585139367,24.79,-88.74,-53.31,831,871,827,833,839,34.48275862068966,-0.408,-0.907,0.018
56275,1755585139396,24.8,-88.73,-53.34,828,863,813,835,852,33.333333333333336,-0.41,-0.905,0.018
56305,1755585139427,24.79,-88.72,-53.34,836,859,833,833,845,33.333333333333336,-0.412,-0.905,0.014
56325,1755585139446,24.78,-88.76,-53.35,834,867,832,842,840,50.0,-0.411,-0.905,0.011
56355,1755585139476,24.77,-88.82,-53.36,827,868,844,843,845,33.333333333333336,-0.412,-0.907,0.014
56384,1755585139506,24.75,-88.77,-53.35,830,860,846,844,842,34.48275862068966,-0.411,-0.909,0.018
56414,1755585139536,24.74,-88.74,-53.33,817,867,827,821,842,33.333333333333336,-0.407,-0.91,0.017
56444,1755585139565,24.74,-88.71,-53.3,825,870,840,847,845,33.333333333333336,-0.407,-0.909,0.013
56474,1755585139595,24.74,-88.77,-53.28,834,865,830,841,845,33.333333333333336,-0.409,-0.907,0.014
56503,1755585139625,24.76,-88.76,-53.28,827,864,823,837,835,34.48275862068966,-0.411,-0.903,0.018
56533,1755585139654,24.72,-88.73,-53.31,834,859,824,835,851,33.333333333333336,-0.412,-0.905,0.016
56562,1755585139684,24.7,-88.77,-53.29,823,863,845,843,847,34.48275862068966,-0.411,-0.906,0.013
56592,1755585139713,24.73,-88.84,-53.29,830,870,829,837,843,33.333333333333336,-0.409,-0.904,0.019
56622,1755585139743,24.72,-88.77,-53.32,837,865,837,837,848,33.333333333333336,-0.412,-0.904,0.019
56652,1755585139773,24.72,-88.77,-53.33,825,857,831,834,852,33.333333333333336,-0.411,-0.905,0.013
56682,1755585139803,24.75,-88.81,-53.33,827,867,847,842,848,33.333333333333336,-0.408,-0.906,0.015
56711,1755585139832,24.76,-88.81,-53.34,834,859,830,839,850,34.48275862068966,-0.409,-0.906,0.019
56740,1755585139862,24.8,-88.75,-53.36,831,874,827,841,843,34.48275862068966,-0.411,-0.904,0.019
56770,1755585139891,24.8,-88.71,-53.39,826,861,832,835,854,33.333333333333336,-0.413,-0.903,0.016
56799,1755585139921,24.76,-88.76,-53.41,830,868,829,838,848,34.48275862068966,-0.412,-0.906,0.015
56829,1755585139950,24.8,-88.76,-53.4,829,866,828,823,850,33.333333333333336,-0.408,-0.909,0.019
56858,1755585139980,24.83,-88.7,-53.41,831,875,831,848,857,34.48275862068966,-0.409,-0.909,0.022
56888,1755585140009,24.84,-88.72,-53.42,835,866,827,839,855,33.333333333333336,-0.411,-0.905,0.019
56918,1755585140039,24.81,-88.76,-53.47,827,871,843,835,845,33.333333333333336,-0.413,-0.906,0.013
56947,1755585140069,24.79,-88.8,-53.46,832,865,829,842,862,34.48275862068966,-0.411,-0.909,0.014
56977,1755585140098,24.87,-88.84,-53.45,825,872,829,834,849,33.333333333333336,-0.408,-0.909,0.019
57006,1755585140128,24.82,-88.78,-53.49,824,856,838,843,840,34.48275862068966,-0.411,-0.915,0.02
57036,1755585140157,24.76,-88.72,-53.47,826,868,814,833,843,33.333333333333336,-0.409,-0.913,0.016
57065,1755585140188,24.82,-88.79,-53.48,825,862,824,839,851,34.48275862068966,-0.404,-0.909,0.016
57086,1755585140207,24.83,-88.8,-53.53,831,863,838,840,837,47.61904761904762,-0.409,-0.906,0.021
57115,1755585140236,24.75,-88.71,-53.56,833,866,832,843,844,34.48275862068966,-0.411,-0.907,0.019
57145,1755585140266,24.81,-88.78,-53.58,825,869,831,838,845,33.333333333333336,-0.41,-0.905,0.016
57174,1755585140296,24.78,-88.81,-53.64,824,860,832,827,846,34.48275862068966,-0.413,-0.905,0.016
57204,1755585140325,24.66,-88.79,-53.65,828,857,833,839,846,33.333333333333336,-0.411,-0.909,0.015
57233,1755585140355,24.75,-88.82,-53.63,824,862,839,834,846,34.48275862068966,-0.406,-0.908,0.017
57263,1755585140384,24.71,-88.79,-53.67,831,864,831,834,852,33.333333333333336,-0.406,-0.909,0.018
57293,1755585140414,24.62,-88.73,-53.7,823,858,836,833,848,33.333333333333336,-0.406,-0.911,0.017
57322,1755585140443,24.66,-88.72,-53.67,846,869,829,834,847,34.48275862068966,-0.407,-0.911,0.018
57352,1755585140473,24.63,-88.67,-53.65,829,854,829,837,854,33.333333333333336,-0.407,-0.91,0.022
57381,1755585140503,24.61,-88.59,-53.67,829,866,836,825,853,34.48275862068966,-0.407,-0.909,0.021
57411,1755585140532,24.59,-88.52,-53.68,831,865,844,839,840,33.333333333333336,-0.408,-0.908,0.014
57440,1755585140562,24.55,-88.63,-53.7,832,869,838,831,857,34.48275862068966,-0.408,-0.906,0.022
57470,1755585140592,24.61,-88.61,-53.7,830,864,830,841,837,33.333333333333336,-0.406,-0.909,0.03
57500,1755585140621,24.57,-88.58,-53.68,831,867,837,820,846,33.333333333333336,-0.403,-0.91,0.022
57529,1755585140651,24.55,-88.64,-53.7,838,864,826,834,851,34.48275862068966,-0.405,-0.909,0.018
57559,1755585140680,24.47,-88.6,-53.71,831,872,827,842,844,33.333333333333336,-0.41,-0.907,0.022
57589,1755585140710,24.47,-88.58,-53.69,826,865,834,844,843,33.333333333333336,-0.408,-0.906,0.027
57618,1755585140739,24.53,-88.57,-53.71,833,867,831,837,845,34.48275862068966,-0.404,-0.907,0.024
57648,1755585140769,24.5,-88.6,-53.74,835,871,825,835,836,33.333333333333336,-0.409,-0.908,0.018
57677,1755585140799,24.5,-88.62,-53.71,832,868,828,838,865,34.48275862068966,-0.408,-0.909,0.02
57707,1755585140828,24.6,-88.66,-53.69,827,871,826,845,841,33.333333333333336,-0.405,-0.908,0.021
57737,1755585140858,24.57,-88.68,-53.75,823,866,822,842,841,33.333333333333336,-0.408,-0.907,0.019
57766,1755585140888,24.47,-88.62,-53.77,826,864,833,830,856,34.48275862068966,-0.412,-0.908,0.018
57796,1755585140917,24.52,-88.67,-53.75,823,866,827,839,849,33.333333333333336,-0.408,-0.907,0.021
57825,1755585140946,24.55,-88.68,-53.79,826,867,825,834,845,34.48275862068966,-0.407,-0.907,0.025
57855,1755585140976,24.44,-88.58,-53.85,827,868,826,843,839,33.333333333333336,-0.408,-0.909,0.02
57884,1755585141005,24.41,-88.56,-53.86,838,872,812,854,855,34.48275862068966,-0.406,-0.907,0.02
57914,1755585141035,24.42,-88.6,-53.88,834,867,831,832,838,33.333333333333336,-0.406,-0.907,0.023
57943,1755585141065,24.36,-88.58,-53.89,832,869,830,833,832,34.48275862068966,-0.404,-0.91,0.021
57973,1755585141094,24.38,-88.59,-53.89,828,863,842,835,842,33.333333333333336,-0.401,-0.911,0.019
58002,1755585141124,24.37,-88.58,-53.9,832,860,841,833,841,34.48275862068966,-0.405,-0.911,0.021
58032,1755585141153,24.33,-88.6,-53.89,832,874,822,840,843,33.333333333333336,-0.407,-0.908,0.02
58062,1755585141183,24.32,-88.65,-53.92,827,870,824,834,864,33.333333333333336,-0.406,-0.907,0.021
58091,1755585141213,24.28,-88.64,-53.92,826,872,842,828,842,34.48275862068966,-0.405,-0.912,0.026
58121,1755585141242,24.31,-88.62,-53.88,835,872,836,839,843,33.333333333333336,-0.403,-0.912,0.027
58150,1755585141272,24.39,-88.59,-53.9,837,870,840,835,841,34.48275862068966,-0.404,-0.907,0.026
58180,1755585141301,24.32,-88.56,-53.96,825,871,833,833,851,33.333333333333336,-0.407,-0.907,0.024
58210,1755585141331,24.3,-88.56,-53.94,837,869,830,845,839,33.333333333333336,-0.406,-0.912,0.021
58239,1755585141360,24.35,-88.6,-53.9,836,870,835,831,848,34.48275862068966,-0.401,-0.913,0.022
58269,1755585141390,24.32,-88.59,-53.9,830,870,827,842,849,33.333333333333336,-0.402,-0.91,0.023
58298,1755585141420,24.33,-88.58,-53.9,833,867,836,830,848,34.48275862068966,-0.406,-0.907,0.02
58328,1755585141449,24.35,-88.59,-53.92,832,864,819,840,856,33.333333333333336,-0.405,-0.907,0.02
58357,1755585141479,24.29,-88.59,-53.93,832,866,842,836,851,34.48275862068966,-0.405,-0.91,0.022
58387,1755585141508,24.35,-88.61,-53.91,826,866,843,833,844,33.333333333333336,-0.402,-0.911,0.024
58416,1755585141538,24.36,-88.59,-53.92,832,858,830,840,843,34.48275862068966,-0.403,-0.908,0.023
58446,1755585141567,24.33,-88.58,-53.96,833,871,833,838,834,33.333333333333336,-0.407,-0.906,0.021
58475,1755585141597,24.34,-88.58,-53.95,830,866,825,828,849,34.48275862068966,-0.407,-0.909,0.02
58505,1755585141626,24.35,-88.62,-53.92,828,865,828,834,878,33.333333333333336,-0.402,-0.911,0.021
58534,1755585141656,24.37,-88.64,-53.92,830,852,827,838,831,34.48275862068966,-0.401,-0.91,0.024
58564,1755585141685,24.35,-88.59,-53.94,827,873,834,840,847,33.333333333333336,-0.407,-0.907,0.023
58593,1755585141715,24.34,-88.59,-53.95,833,882,836,841,847,34.48275862068966,-0.408,-0.906,0.02
58623,1755585141744,24.38,-88.6,-53.93,829,861,831,829,843,33.333333333333336,-0.405,-0.909,0.021
58652,1755585141774,24.38,-88.63,-53.93,834,861,843,842,853,34.48275862068966,-0.403,-0.91,0.021
58682,1755585141803,24.39,-88.62,-53.92,826,863,834,831,855,33.333333333333336,-0.404,-0.908,0.021
58711,1755585141833,24.4,-88.62,-53.94,835,865,838,834,842,34.48275862068966,-0.407,-0.905,0.021
58741,1755585141863,24.38,-88.6,-53.96,835,868,855,839,833,33.333333333333336,-0.407,-0.908,0.022
58761,1755585141883,24.35,-88.58,-53.96,831,860,834,836,844,50.0,-0.405,-0.91,0.02
58790,1755585141912,24.36,-88.6,-53.93,839,875,838,836,852,34.48275862068966,-0.403,-0.907,0.02
58820,1755585141941,24.37,-88.59,-53.97,832,866,822,855,840,33.333333333333336,-0.405,-0.905,0.022
58849,1755585141971,24.32,-88.54,-54.0,825,871,832,838,880,34.48275862068966,-0.41,-0.908,0.021
58879,1755585142000,24.34,-88.55,-53.96,831,864,826,836,842,33.333333333333336,-0.409,-0.909,0.018
58908,1755585142030,24.37,-88.63,-53.93,837,869,840,832,852,34.48275862068966,-0.405,-0.908,0.019
58938,1755585142059,24.34,-88.65,-53.99,836,858,837,837,841,33.333333333333336,-0.405,-0.905,0.024
58967,1755585142089,24.32,-88.57,-54.02,835,866,830,833,843,34.48275862068966,-0.409,-0.91,0.027
58997,1755585142118,24.34,-88.57,-53.97,840,870,822,834,834,33.333333333333336,-0.406,-0.911,0.02
59027,1755585142148,24.35,-88.65,-53.97,832,870,827,838,847,33.333333333333336,-0.402,-0.908,0.016
