timestamp_ms,recv_timestamp_ms,pitch,roll,yaw,flex1,flex2,flex3,flex4,flex5,sampling_hz,accel_x,accel_y,accel_z
43843,1755587152750,9.57,61.71,62.49,823,890,862,889,885,34.48275862068966,-0.167,0.868,0.484
43873,1755587152779,9.45,61.53,62.45,824,890,845,893,887,33.333333333333336,-0.163,0.864,0.472
43902,1755587152808,9.4,61.31,62.32,828,880,853,870,887,34.48275862068966,-0.169,0.862,0.474
43932,1755587152838,9.4,61.24,62.34,822,875,851,882,886,33.333333333333336,-0.178,0.866,0.485
43961,1755587152867,9.37,61.25,62.42,821,889,851,895,888,34.48275862068966,-0.177,0.861,0.487
43990,1755587152896,9.42,61.18,62.38,818,888,858,881,884,34.48275862068966,-0.175,0.863,0.484
44020,1755587152925,9.4,60.96,62.27,822,895,847,893,882,33.333333333333336,-0.173,0.858,0.48
44049,1755587152955,9.41,60.71,62.18,820,884,852,878,891,34.48275862068966,-0.18,0.858,0.487
44078,1755587152984,9.39,60.56,62.24,821,879,854,891,890,34.48275862068966,-0.178,0.861,0.499
44108,1755587153014,9.4,60.62,62.14,824,880,860,881,880,33.333333333333336,-0.175,0.859,0.5
44138,1755587153044,9.46,60.66,62.1,824,888,852,890,896,33.333333333333336,-0.187,0.853,0.492
44167,1755587153073,9.39,60.57,62.22,826,883,856,880,891,34.48275862068966,-0.182,0.854,0.492
44197,1755587153103,9.41,60.47,62.2,820,880,860,887,890,33.333333333333336,-0.18,0.856,0.496
44226,1755587153132,9.43,60.41,62.04,825,878,851,889,887,34.48275862068966,-0.184,0.853,0.489
44256,1755587153161,9.39,60.34,62.03,822,886,853,897,893,33.333333333333336,-0.192,0.849,0.497
44285,1755587153191,9.41,60.29,62.07,821,879,859,889,882,34.48275862068966,-0.192,0.853,0.505
44314,1755587153220,9.46,60.41,62.02,823,881,851,888,887,34.48275862068966,-0.187,0.854,0.506
44344,1755587153250,9.45,60.41,61.9,818,892,871,873,884,33.333333333333336,-0.188,0.851,0.496
44374,1755587153280,9.4,60.24,61.9,824,888,857,879,883,33.333333333333336,-0.195,0.847,0.486
44403,1755587153310,9.32,60.08,61.96,829,898,838,881,883,34.48275862068966,-0.198,0.845,0.504
44424,1755587153329,9.33,60.09,62.01,826,884,856,883,884,47.61904761904762,-0.197,0.854,0.52
44453,1755587153359,9.42,60.17,61.9,821,885,854,887,878,34.48275862068966,-0.191,0.848,0.506
44482,1755587153388,9.49,60.01,61.81,818,899,858,889,886,34.48275862068966,-0.195,0.844,0.498
44511,1755587153418,9.32,59.8,61.87,815,892,867,882,894,34.48275862068966,-0.195,0.849,0.511
44541,1755587153447,9.37,59.85,61.73,824,892,848,883,884,33.333333333333336,-0.198,0.848,0.522
44571,1755587153476,9.49,59.99,61.76,827,884,838,886,884,33.333333333333336,-0.205,0.84,0.511
44600,1755587153506,9.37,59.8,61.91,820,880,859,879,888,34.48275862068966,-0.204,0.838,0.501
44629,1755587153535,9.33,59.65,61.94,819,880,860,880,890,34.48275862068966,-0.201,0.844,0.517
44658,1755587153565,9.42,59.85,61.88,829,876,858,884,879,34.48275862068966,-0.197,0.846,0.52
44688,1755587153594,9.42,59.89,61.85,818,893,858,892,883,33.333333333333336,-0.197,0.837,0.505
44717,1755587153624,9.34,59.67,61.81,823,885,856,882,890,34.48275862068966,-0.196,0.836,0.501
44747,1755587153653,9.35,59.65,61.75,824,874,857,874,882,33.333333333333336,-0.201,0.842,0.52
44777,1755587153683,9.36,59.76,61.77,817,889,859,886,890,33.333333333333336,-0.203,0.841,0.519
44806,1755587153712,9.36,59.66,61.77,822,882,853,876,893,34.48275862068966,-0.203,0.837,0.511
44836,1755587153741,9.4,59.57,61.71,816,894,854,880,873,33.333333333333336,-0.204,0.837,0.516
44865,1755587153771,9.34,59.58,61.77,821,891,865,880,888,34.48275862068966,-0.207,0.837,0.518
44894,1755587153800,9.36,59.5,61.82,816,884,880,893,881,34.48275862068966,-0.208,0.839,0.515
44924,1755587153829,9.38,59.47,61.79,822,884,852,884,887,33.333333333333336,-0.201,0.84,0.517
44953,1755587153859,9.41,59.44,61.62,819,880,851,877,881,34.48275862068966,-0.202,0.835,0.52
44982,1755587153888,9.44,59.45,61.61,823,884,858,875,880,34.48275862068966,-0.209,0.83,0.522
45012,1755587153918,9.48,59.45,61.67,822,888,855,880,881,33.333333333333336,-0.211,0.836,0.521
45041,1755587153947,9.46,59.46,61.72,828,881,867,888,884,34.48275862068966,-0.206,0.837,0.518
45071,1755587153977,9.47,59.37,61.62,821,893,850,885,888,33.333333333333336,-0.206,0.836,0.52
45091,1755587153997,9.5,59.28,61.55,823,883,859,885,877,50.0,-0.21,0.832,0.519
45120,1755587154026,9.54,59.22,61.53,814,887,849,880,887,34.48275862068966,-0.215,0.828,0.526
45150,1755587154055,9.58,59.33,61.61,821,878,846,881,890,33.333333333333336,-0.214,0.829,0.526
45179,1755587154085,9.6,59.32,61.63,820,890,868,890,887,34.48275862068966,-0.216,0.831,0.515
45209,1755587154114,9.58,59.29,61.7,818,887,879,892,876,33.333333333333336,-0.216,0.829,0.52
45238,1755587154144,9.64,59.33,61.71,823,886,855,877,883,34.48275862068966,-0.214,0.834,0.523
45267,1755587154173,9.63,59.3,61.73,822,885,859,885,875,34.48275862068966,-0.215,0.832,0.518
45297,1755587154203,9.53,59.14,61.68,832,886,845,877,884,33.333333333333336,-0.21,0.828,0.518
45326,1755587154232,9.56,59.03,61.51,817,888,865,866,890,34.48275862068966,-0.208,0.832,0.522
45356,1755587154262,9.54,59.07,61.48,819,892,855,893,883,33.333333333333336,-0.216,0.836,0.525
45385,1755587154291,9.57,59.04,61.37,821,879,858,887,885,34.48275862068966,-0.222,0.828,0.526
45415,1755587154321,9.7,59.1,61.36,817,878,859,880,880,33.333333333333336,-0.229,0.825,0.532
45444,1755587154350,9.73,59.22,61.45,819,888,855,884,881,34.48275862068966,-0.228,0.829,0.526
45474,1755587154380,9.72,59.17,61.55,820,888,844,876,883,33.333333333333336,-0.229,0.825,0.516
45503,1755587154409,9.7,59.11,61.69,825,882,859,882,880,34.48275862068966,-0.225,0.829,0.525
45533,1755587154439,9.67,59.25,61.8,819,887,853,885,888,33.333333333333336,-0.222,0.834,0.529
45562,1755587154468,9.67,59.39,61.85,812,880,849,882,880,34.48275862068966,-0.221,0.829,0.526
45591,1755587154497,9.7,59.47,61.95,817,884,868,886,889,34.48275862068966,-0.219,0.827,0.524
45621,1755587154527,9.72,59.38,62.02,814,873,854,892,883,33.333333333333336,-0.218,0.832,0.518
45650,1755587154556,9.76,59.25,61.95,820,882,852,888,889,34.48275862068966,-0.218,0.835,0.515
45680,1755587154586,9.76,59.25,61.93,825,885,853,887,881,33.333333333333336,-0.219,0.83,0.519
45709,1755587154615,9.8,59.22,62.01,821,881,857,876,875,34.48275862068966,-0.223,0.831,0.517
45739,1755587154645,9.83,59.17,62.11,814,887,857,876,888,33.333333333333336,-0.225,0.832,0.515
45768,1755587154674,9.83,59.17,62.16,816,889,859,892,892,34.48275862068966,-0.22,0.832,0.522
45797,1755587154703,9.89,59.14,62.21,814,878,854,879,872,34.48275862068966,-0.22,0.83,0.523
45827,1755587154733,9.93,59.08,62.25,827,884,863,876,889,33.333333333333336,-0.22,0.828,0.521
45856,1755587154762,9.95,58.98,62.3,825,884,852,884,883,34.48275862068966,-0.219,0.831,0.525
45886,1755587154791,9.92,58.99,62.31,826,889,857,886,885,33.333333333333336,-0.207,0.832,0.529
45915,1755587154821,9.95,58.99,62.25,825,883,860,881,883,34.48275862068966,-0.208,0.832,0.521
45944,1755587154850,9.9,58.88,62.25,826,889,885,878,886,34.48275862068966,-0.213,0.828,0.515
45974,1755587154880,9.86,58.83,62.26,820,888,862,891,885,33.333333333333336,-0.219,0.829,0.523
46003,1755587154910,9.97,58.83,62.25,813,881,865,879,876,34.48275862068966,-0.227,0.83,0.527
46033,1755587154940,9.98,58.82,62.31,823,876,856,881,882,33.333333333333336,-0.221,0.83,0.526
46053,1755587154959,10.01,58.76,62.3,821,888,858,879,879,50.0,-0.212,0.828,0.526
46083,1755587154989,10.05,58.7,62.23,817,891,859,894,894,33.333333333333336,-0.217,0.825,0.526
46112,1755587155018,10.09,58.66,62.21,823,885,861,886,887,34.48275862068966,-0.224,0.827,0.53
46141,1755587155047,10.06,58.78,62.35,820,878,848,886,885,34.48275862068966,-0.226,0.828,0.533
46171,1755587155076,10.08,58.78,62.34,825,879,856,888,894,33.333333333333336,-0.221,0.827,0.529
46200,1755587155106,10.09,58.74,62.27,819,888,859,889,887,34.48275862068966,-0.222,0.824,0.528
46229,1755587155135,10.06,58.64,62.35,826,889,842,885,883,34.48275862068966,-0.22,0.823,0.524
46259,1755587155165,10.05,58.6,62.37,823,887,846,890,869,33.333333333333336,-0.223,0.829,0.525
46289,1755587155194,10.05,58.55,62.36,824,872,860,886,890,33.333333333333336,-0.224,0.83,0.529
46318,1755587155224,10.07,58.63,62.4,817,887,857,879,872,34.48275862068966,-0.226,0.828,0.529
46347,1755587155253,10.08,58.61,62.44,822,880,863,883,888,34.48275862068966,-0.226,0.825,0.525
46377,1755587155283,10.07,58.55,62.5,827,884,866,884,887,33.333333333333336,-0.223,0.825,0.527
46407,1755587155313,10.03,58.5,62.57,824,885,857,885,882,33.333333333333336,-0.221,0.827,0.526
46436,1755587155342,9.96,58.35,62.59,824,882,849,883,890,34.48275862068966,-0.222,0.826,0.525
46466,1755587155372,10.01,58.08,62.52,818,887,852,884,887,33.333333333333336,-0.223,0.824,0.529
46495,1755587155402,10.05,57.96,62.54,818,893,868,878,884,34.48275862068966,-0.224,0.821,0.54
46525,1755587155431,10.1,58.06,62.64,821,886,851,885,894,33.333333333333336,-0.226,0.821,0.547
46554,1755587155461,10.18,58.21,62.7,826,881,853,878,875,34.48275862068966,-0.226,0.819,0.541
46584,1755587155490,10.21,58.27,62.73,816,888,859,885,880,33.333333333333336,-0.221,0.819,0.536
46614,1755587155520,10.2,58.33,62.8,826,891,857,891,883,33.333333333333336,-0.221,0.822,0.537
46643,1755587155549,10.26,58.42,62.84,821,887,856,883,889,34.48275862068966,-0.225,0.821,0.536
46673,1755587155578,10.35,58.56,62.89,823,884,838,887,885,33.333333333333336,-0.23,0.822,0.533
46702,1755587155608,10.38,58.59,62.97,823,886,858,885,885,34.48275862068966,-0.23,0.824,0.532
46731,1755587155637,10.38,58.7,63.03,823,890,852,885,886,34.48275862068966,-0.225,0.824,0.532
46761,1755587155667,10.42,58.79,63.09,826,886,849,892,880,33.333333333333336,-0.224,0.825,0.532
46790,1755587155697,10.45,58.97,63.3,827,888,846,880,880,34.48275862068966,-0.224,0.828,0.537
46811,1755587155716,10.43,59.15,63.43,823,887,869,887,881,47.61904761904762,-0.22,0.832,0.534
46840,1755587155746,10.48,59.31,63.48,824,886,862,884,884,34.48275862068966,-0.219,0.829,0.529
46869,1755587155775,10.5,59.55,63.54,818,881,870,892,890,34.48275862068966,-0.221,0.832,0.525
46899,1755587155805,10.61,59.74,63.59,821,877,840,880,882,33.333333333333336,-0.225,0.833,0.522
46928,1755587155835,10.65,59.83,63.73,822,880,835,884,886,34.48275862068966,-0.222,0.832,0.512
46958,1755587155864,10.62,59.83,63.77,824,886,857,882,882,33.333333333333336,-0.218,0.836,0.51
46988,1755587155894,10.62,59.84,63.81,833,882,870,887,889,33.333333333333336,-0.218,0.84,0.51
47018,1755587155923,10.64,59.8,63.8,816,881,860,881,891,33.333333333333336,-0.215,0.842,0.509
47047,1755587155953,10.63,59.81,63.82,820,899,863,884,890,34.48275862068966,-0.215,0.839,0.51
47076,1755587155982,10.59,59.85,63.85,822,886,862,893,892,34.48275862068966,-0.215,0.839,0.508
47106,1755587156011,10.57,59.85,63.9,823,882,862,884,889,33.333333333333336,-0.216,0.841,0.505
47135,1755587156041,10.55,59.75,63.89,819,884,860,888,880,34.48275862068966,-0.215,0.84,0.505
47165,1755587156070,10.53,59.76,63.9,828,895,853,885,886,33.333333333333336,-0.217,0.84,0.51
47194,1755587156100,10.51,59.8,63.93,814,880,850,880,881,34.48275862068966,-0.219,0.841,0.508
47223,1755587156129,10.47,59.73,63.96,821,879,858,886,882,34.48275862068966,-0.218,0.839,0.504
47253,1755587156159,10.46,59.6,63.95,825,876,854,892,866,33.333333333333336,-0.218,0.838,0.505
47282,1755587156188,10.43,59.57,64.01,820,882,854,881,885,34.48275862068966,-0.222,0.84,0.511
47312,1755587156217,10.44,59.63,64.06,819,884,854,896,898,33.333333333333336,-0.219,0.839,0.517
47341,1755587156247,10.48,59.64,64.06,817,884,851,882,885,34.48275862068966,-0.215,0.837,0.512
47370,1755587156276,10.45,59.58,64.06,818,887,856,878,893,34.48275862068966,-0.213,0.836,0.505
47400,1755587156306,10.43,59.51,64.05,822,892,867,883,871,33.333333333333336,-0.217,0.839,0.506
47429,1755587156336,10.41,59.41,64.05,820,894,864,874,886,34.48275862068966,-0.22,0.842,0.508
47459,1755587156365,10.31,59.22,64.03,823,883,858,885,888,33.333333333333336,-0.22,0.845,0.505
47488,1755587156395,10.11,58.62,64.06,819,889,874,889,904,34.48275862068966,-0.221,0.829,0.517
47518,1755587156424,10.07,58.73,64.19,824,884,857,883,881,33.333333333333336,-0.226,0.841,0.533
47547,1755587156453,10.32,59.0,64.23,826,880,870,876,882,34.48275862068966,-0.226,0.84,0.536
47577,1755587156483,10.41,59.24,64.32,816,881,864,883,880,33.333333333333336,-0.222,0.837,0.525
47606,1755587156512,10.41,59.21,64.34,834,890,848,879,905,34.48275862068966,-0.214,0.833,0.514
47636,1755587156542,10.38,59.13,64.34,825,891,856,880,891,33.333333333333336,-0.213,0.831,0.515
47665,1755587156571,10.37,59.1,64.38,819,885,858,881,884,34.48275862068966,-0.218,0.837,0.522
47695,1755587156601,10.38,59.2,64.45,825,885,846,887,884,33.333333333333336,-0.22,0.838,0.528
47724,1755587156630,10.46,59.33,64.45,820,890,845,878,885,34.48275862068966,-0.219,0.833,0.528
47754,1755587156660,10.46,59.39,64.54,822,883,845,885,878,33.333333333333336,-0.216,0.833,0.519
47783,1755587156689,10.43,59.3,64.57,814,886,854,885,881,34.48275862068966,-0.213,0.83,0.515
47813,1755587156718,10.47,59.41,64.59,828,866,870,882,881,33.333333333333336,-0.218,0.838,0.522
47842,1755587156748,10.51,59.54,64.58,817,889,867,882,884,34.48275862068966,-0.22,0.84,0.52
47872,1755587156778,10.51,59.55,64.6,823,882,859,884,889,33.333333333333336,-0.216,0.832,0.512
47901,1755587156807,10.53,59.52,64.63,820,890,853,887,891,34.48275862068966,-0.216,0.834,0.509
47931,1755587156837,10.49,59.49,64.69,830,874,860,886,890,33.333333333333336,-0.219,0.839,0.512
47960,1755587156866,10.49,59.5,64.7,819,892,849,876,881,34.48275862068966,-0.219,0.841,0.515
47990,1755587156895,10.52,59.51,64.71,820,891,860,879,879,33.333333333333336,-0.218,0.838,0.515
48019,1755587156925,10.51,59.51,64.77,827,885,858,881,894,34.48275862068966,-0.217,0.835,0.513
48048,1755587156954,10.53,59.44,64.81,826,883,846,885,893,34.48275862068966,-0.218,0.835,0.51
48078,1755587156984,10.53,59.41,64.84,821,885,861,881,888,33.333333333333336,-0.218,0.837,0.51
48107,1755587157013,10.51,59.44,64.9,824,884,834,884,889,34.48275862068966,-0.218,0.839,0.515
48137,1755587157043,10.52,59.42,64.87,819,889,857,884,895,33.333333333333336,-0.215,0.835,0.515
48157,1755587157063,10.55,59.38,64.84,818,886,857,882,888,50.0,-0.216,0.831,0.517
48186,1755587157092,10.52,59.42,64.91,821,885,855,905,874,34.48275862068966,-0.215,0.834,0.517
48216,1755587157121,10.54,59.46,64.91,824,882,849,890,879,33.333333333333336,-0.216,0.837,0.515
48245,1755587157151,10.55,59.47,64.91,818,883,870,889,896,34.48275862068966,-0.218,0.838,0.513
48275,1755587157180,10.49,59.45,64.96,826,888,860,875,886,33.333333333333336,-0.219,0.835,0.515
48304,1755587157210,10.53,59.45,64.98,835,884,874,891,889,34.48275862068966,-0.217,0.833,0.519
48334,1755587157239,10.55,59.41,64.98,825,878,862,883,887,33.333333333333336,-0.217,0.834,0.514
48363,1755587157269,10.46,59.3,64.99,823,888,844,887,896,34.48275862068966,-0.218,0.834,0.511
48392,1755587157298,10.46,59.27,64.96,819,894,858,887,884,34.48275862068966,-0.218,0.836,0.517
48422,1755587157327,10.53,59.35,64.96,824,887,853,887,885,33.333333333333336,-0.22,0.837,0.522
48451,1755587157357,10.53,59.33,64.96,824,876,861,876,886,34.48275862068966,-0.219,0.833,0.516
48481,1755587157387,10.51,59.27,65.0,826,890,856,895,890,33.333333333333336,-0.219,0.833,0.515
48510,1755587157416,10.56,59.28,65.0,820,883,852,887,884,34.48275862068966,-0.221,0.836,0.517
48540,1755587157446,10.54,59.26,65.09,817,876,858,888,878,33.333333333333336,-0.221,0.834,0.514
48569,1755587157475,10.52,59.18,65.12,822,892,854,883,886,34.48275862068966,-0.219,0.834,0.518
48598,1755587157504,10.52,59.22,65.15,821,886,863,888,880,34.48275862068966,-0.217,0.834,0.517
48628,1755587157534,10.49,59.17,65.16,823,894,854,880,893,33.333333333333336,-0.217,0.833,0.515
48657,1755587157564,10.54,59.13,65.17,819,895,853,877,890,34.48275862068966,-0.22,0.832,0.521
48687,1755587157593,10.56,59.23,65.21,826,881,849,884,887,33.333333333333336,-0.222,0.833,0.525
48716,1755587157622,10.55,59.3,65.23,823,878,848,874,881,34.48275862068966,-0.22,0.831,0.522
48746,1755587157652,10.52,59.26,65.23,821,889,862,881,881,33.333333333333336,-0.22,0.829,0.519
48775,1755587157681,10.51,59.3,65.3,825,888,853,873,895,34.48275862068966,-0.222,0.83,0.524
48805,1755587157712,10.51,59.32,65.32,830,891,861,879,885,33.333333333333336,-0.221,0.83,0.524
48835,1755587157741,10.53,59.45,65.36,825,887,860,887,886,33.333333333333336,-0.221,0.832,0.523
48864,1755587157770,10.55,59.52,65.39,824,882,859,886,875,34.48275862068966,-0.22,0.831,0.517
48893,1755587157800,10.56,59.52,65.45,821,904,854,886,886,34.48275862068966,-0.223,0.832,0.51
48923,1755587157829,10.52,59.58,65.54,819,882,851,890,883,33.333333333333336,-0.221,0.833,0.512
48953,1755587157859,10.56,59.61,65.58,821,890,862,883,889,33.333333333333336,-0.225,0.837,0.517
48982,1755587157888,10.58,59.6,65.65,825,881,850,885,890,34.48275862068966,-0.224,0.832,0.516
49012,1755587157918,10.56,59.65,65.72,821,888,858,883,888,33.333333333333336,-0.219,0.833,0.515
49041,1755587157947,10.56,59.65,65.81,831,888,858,881,905,34.48275862068966,-0.223,0.835,0.515
49071,1755587157977,10.57,59.7,65.85,826,884,863,885,890,33.333333333333336,-0.223,0.839,0.518
49100,1755587158006,10.66,59.92,65.9,824,887,858,886,891,34.48275862068966,-0.222,0.842,0.52
49130,1755587158036,10.7,59.88,65.88,825,876,859,888,889,33.333333333333336,-0.217,0.836,0.508
49159,1755587158065,10.67,59.8,65.93,825,885,854,884,876,34.48275862068966,-0.217,0.835,0.507
49189,1755587158095,10.69,59.78,65.93,821,883,850,888,879,33.333333333333336,-0.215,0.84,0.513
49218,1755587158124,10.73,59.84,65.91,823,887,860,885,881,34.48275862068966,-0.215,0.84,0.515
49247,1755587158153,10.76,59.9,65.88,816,887,854,885,892,34.48275862068966,-0.216,0.841,0.509
49277,1755587158183,10.73,59.81,65.9,822,886,858,884,882,33.333333333333336,-0.218,0.835,0.503
49306,1755587158212,10.72,59.7,65.92,823,882,851,889,891,34.48275862068966,-0.221,0.837,0.507
49336,1755587158242,10.78,59.74,65.94,820,883,858,876,871,33.333333333333336,-0.224,0.843,0.514
49365,1755587158271,10.79,59.82,65.95,807,888,851,888,883,34.48275862068966,-0.221,0.841,0.511
49395,1755587158300,10.79,59.7,65.97,817,888,850,885,886,33.333333333333336,-0.219,0.833,0.507
49424,1755587158330,10.78,59.64,66.04,821,883,853,883,886,34.48275862068966,-0.222,0.835,0.511
49453,1755587158360,10.77,59.65,66.11,821,893,858,883,886,34.48275862068966,-0.222,0.84,0.514
49483,1755587158390,10.78,59.64,66.12,819,879,850,882,885,33.333333333333336,-0.219,0.84,0.512
49503,1755587158409,10.78,59.6,66.13,825,909,861,885,885,50.0,-0.216,0.838,0.51
49533,1755587158439,10.74,59.57,66.13,822,889,850,874,890,33.333333333333336,-0.216,0.839,0.511
49562,1755587158468,10.77,59.61,66.13,821,887,849,886,880,34.48275862068966,-0.225,0.839,0.509
49592,1755587158498,10.77,59.54,66.15,825,886,853,882,890,33.333333333333336,-0.227,0.834,0.505
49621,1755587158527,10.82,59.45,66.15,817,890,851,882,894,34.48275862068966,-0.228,0.835,0.507
49651,1755587158556,10.75,59.5,66.27,824,893,847,886,894,33.333333333333336,-0.224,0.837,0.516
49680,1755587158586,10.73,59.51,66.29,825,892,858,887,881,34.48275862068966,-0.22,0.839,0.522
49709,1755587158615,10.73,59.55,66.28,820,893,847,874,889,34.48275862068966,-0.216,0.834,0.52
49739,1755587158645,10.67,59.57,66.31,818,888,849,887,896,33.333333333333336,-0.217,0.834,0.512
49768,1755587158675,10.62,59.53,66.39,819,888,858,883,904,34.48275862068966,-0.223,0.834,0.512
49788,1755587158694,10.61,59.59,66.48,822,887,862,891,880,50.0,-0.228,0.839,0.52
49818,1755587158723,10.59,59.87,66.79,819,885,850,883,877,33.333333333333336,-0.234,0.84,0.526
49847,1755587158753,10.48,60.24,67.21,818,895,856,881,888,34.48275862068966,-0.232,0.838,0.519
49877,1755587158783,10.38,60.48,67.55,822,887,847,890,885,33.333333333333336,-0.227,0.839,0.508
49906,1755587158812,10.19,60.67,67.99,827,888,854,880,881,34.48275862068966,-0.216,0.845,0.504
49936,1755587158842,10.1,60.93,68.19,820,890,860,882,892,33.333333333333336,-0.202,0.849,0.505
49965,1755587158872,10.18,61.16,68.14,825,887,852,885,890,34.48275862068966,-0.197,0.845,0.501
49995,1755587158901,10.18,61.36,68.14,825,893,860,881,885,33.333333333333336,-0.196,0.849,0.496
50024,1755587158930,10.15,61.39,68.2,815,888,852,879,874,34.48275862068966,-0.193,0.848,0.492
50054,1755587158960,10.36,61.7,68.21,820,889,859,886,896,33.333333333333336,-0.193,0.853,0.497
50083,1755587158989,10.54,62.04,68.27,827,899,853,880,887,34.48275862068966,-0.198,0.862,0.493
50113,1755587159019,10.51,62.31,68.3,817,888,852,876,890,33.333333333333336,-0.196,0.866,0.476
50142,1755587159048,10.49,62.07,68.32,832,899,859,886,886,34.48275862068966,-0.192,0.853,0.47
50172,1755587159078,10.42,62.04,68.49,821,880,859,882,886,33.333333333333336,-0.195,0.864,0.473
50201,1755587159108,10.35,62.02,68.55,819,887,861,879,912,34.48275862068966,-0.192,0.87,0.471
50231,1755587159137,10.31,61.98,68.52,823,888,859,892,886,33.333333333333336,-0.191,0.866,0.472
50261,1755587159167,10.28,62.02,68.58,825,885,861,883,877,33.333333333333336,-0.191,0.862,0.474
50290,1755587159196,10.26,61.97,68.61,817,886,850,884,879,34.48275862068966,-0.194,0.864,0.468
50320,1755587159226,10.2,61.94,68.68,822,887,857,879,878,33.333333333333336,-0.194,0.862,0.471
50349,1755587159255,10.18,62.04,68.74,830,890,858,884,877,34.48275862068966,-0.192,0.867,0.479
50379,1755587159285,10.19,62.19,68.76,825,883,844,878,907,33.333333333333336,-0.186,0.87,0.471
50409,1755587159315,10.15,62.15,68.7,824,879,859,883,887,33.333333333333336,-0.188,0.866,0.465
50438,1755587159344,10.09,62.07,68.73,825,894,856,891,918,34.48275862068966,-0.189,0.869,0.473
50468,1755587159374,10.09,62.17,68.77,816,892,857,888,886,33.333333333333336,-0.188,0.874,0.472
50497,1755587159403,10.06,62.18,68.74,817,891,860,887,884,34.48275862068966,-0.188,0.867,0.47
50526,1755587159432,10.03,62.15,68.76,821,892,849,883,884,34.48275862068966,-0.192,0.865,0.469
50556,1755587159462,9.99,62.16,68.79,825,890,855,879,885,33.333333333333336,-0.19,0.87,0.469
50585,1755587159491,10.0,62.18,68.68,823,884,861,887,881,34.48275862068966,-0.185,0.87,0.467
50615,1755587159521,9.99,62.09,68.62,823,888,844,878,888,33.333333333333336,-0.191,0.869,0.467
50644,1755587159550,9.89,61.94,68.59,826,886,851,889,888,34.48275862068966,-0.192,0.865,0.472
50674,1755587159580,9.96,61.98,68.49,822,880,858,896,891,33.333333333333336,-0.194,0.869,0.474
50703,1755587159609,10.0,62.05,68.49,817,885,846,884,888,34.48275862068966,-0.198,0.868,0.468
50733,1755587159639,9.97,61.87,68.51,826,884,840,876,885,33.333333333333336,-0.199,0.865,0.465
50762,1755587159669,9.92,61.72,68.48,824,884,858,888,888,34.48275862068966,-0.198,0.868,0.465
50792,1755587159698,9.93,61.79,68.45,819,893,857,886,888,33.333333333333336,-0.199,0.869,0.475
50822,1755587159728,9.89,61.78,68.47,824,887,856,883,875,33.333333333333336,-0.197,0.866,0.477
50851,1755587159757,9.88,61.64,68.45,824,889,865,887,882,34.48275862068966,-0.196,0.862,0.472
50881,1755587159786,9.86,61.57,68.34,821,886,866,894,885,33.333333333333336,-0.197,0.861,0.471
50910,1755587159816,9.84,61.5,68.31,826,878,847,875,879,34.48275862068966,-0.203,0.86,0.475
50940,1755587159846,9.84,61.42,68.32,822,904,863,883,885,33.333333333333336,-0.208,0.857,0.482
50969,1755587159875,9.85,61.48,68.34,828,886,856,883,882,34.48275862068966,-0.207,0.86,0.483
50998,1755587159904,9.8,61.34,68.37,817,885,852,882,884,34.48275862068966,-0.203,0.855,0.479
51028,1755587159934,9.73,61.13,68.38,821,883,855,880,886,33.333333333333336,-0.199,0.856,0.479
51057,1755587159963,9.73,61.08,68.25,827,892,857,872,883,34.48275862068966,-0.199,0.861,0.485
51087,1755587159993,9.8,61.11,68.07,817,881,857,880,895,33.333333333333336,-0.207,0.857,0.489
51116,1755587160022,9.81,61.1,68.12,821,881,862,883,885,34.48275862068966,-0.214,0.852,0.486
51146,1755587160052,9.79,61.01,68.25,821,892,854,873,882,33.333333333333336,-0.216,0.85,0.486
51175,1755587160081,9.79,60.97,68.29,820,887,858,879,894,34.48275862068966,-0.211,0.854,0.49
51205,1755587160111,9.77,61.02,68.3,820,888,856,881,878,33.333333333333336,-0.21,0.857,0.493
51234,1755587160140,9.7,60.95,68.29,817,881,854,884,898,34.48275862068966,-0.207,0.855,0.49
51264,1755587160170,9.67,60.82,68.27,820,887,859,878,885,33.333333333333336,-0.208,0.85,0.495
51293,1755587160199,9.73,60.81,68.29,827,885,860,878,880,34.48275862068966,-0.214,0.852,0.503
51323,1755587160229,9.77,60.98,68.35,822,887,862,877,870,33.333333333333336,-0.215,0.853,0.499
51352,1755587160258,9.8,60.95,68.37,822,884,859,880,884,34.48275862068966,-0.215,0.851,0.49
51382,1755587160288,9.77,60.86,68.47,810,874,855,881,884,33.333333333333336,-0.212,0.85,0.494
51411,1755587160317,9.78,60.98,68.45,827,886,852,879,883,34.48275862068966,-0.208,0.851,0.496
51441,1755587160346,9.83,61.08,68.47,818,882,855,887,881,33.333333333333336,-0.213,0.847,0.494
51470,1755587160376,9.8,61.1,68.52,822,885,852,887,879,34.48275862068966,-0.212,0.851,0.496
51499,1755587160405,9.86,61.19,68.55,823,885,836,875,888,34.48275862068966,-0.214,0.849,0.501
51529,1755587160435,9.96,61.38,68.62,825,893,861,885,889,33.333333333333336,-0.215,0.851,0.497
51558,1755587160464,9.98,61.36,68.65,813,882,855,882,890,34.48275862068966,-0.21,0.849,0.485
51588,1755587160493,9.99,61.19,68.61,825,894,875,879,883,33.333333333333336,-0.206,0.85,0.479
51617,1755587160523,9.96,61.21,68.62,814,885,846,888,895,34.48275862068966,-0.208,0.853,0.494
51646,1755587160552,10.02,61.26,68.57,818,880,847,882,883,34.48275862068966,-0.214,0.851,0.499
51675,1755587160581,10.02,61.3,68.64,822,885,851,885,893,34.48275862068966,-0.214,0.847,0.487
51705,1755587160611,9.99,61.19,68.68,816,884,855,888,882,33.333333333333336,-0.212,0.851,0.481
51734,1755587160640,9.97,61.12,68.7,822,883,862,882,885,34.48275862068966,-0.213,0.854,0.486
51763,1755587160669,10.01,61.13,68.61,826,888,861,886,888,34.48275862068966,-0.213,0.857,0.493
51793,1755587160699,10.04,61.11,68.57,819,880,868,881,885,33.333333333333336,-0.215,0.85,0.492
51822,1755587160729,10.03,61.09,68.66,821,870,849,895,887,34.48275862068966,-0.217,0.845,0.488
51852,1755587160758,10.01,61.02,68.71,825,889,861,890,882,33.333333333333336,-0.215,0.851,0.488
51882,1755587160787,10.05,61.02,68.67,823,905,858,880,888,33.333333333333336,-0.213,0.856,0.494
51911,1755587160817,10.15,61.11,68.59,823,892,857,885,880,34.48275862068966,-0.215,0.851,0.493
51940,1755587160846,10.08,61.12,68.7,814,897,862,881,885,34.48275862068966,-0.217,0.846,0.486
51970,1755587160876,10.05,60.97,68.74,819,885,856,899,882,33.333333333333336,-0.219,0.848,0.483
51999,1755587160905,10.05,60.88,68.79,816,888,859,880,889,34.48275862068966,-0.221,0.849,0.489
52029,1755587160935,10.0,60.9,68.86,821,882,847,886,881,33.333333333333336,-0.217,0.851,0.498
52059,1755587160964,10.06,60.94,68.79,821,893,856,886,886,33.333333333333336,-0.215,0.847,0.501
52088,1755587160994,10.07,61.02,68.85,823,881,860,882,888,34.48275862068966,-0.215,0.847,0.494
52117,1755587161024,10.05,60.95,68.87,819,883,852,879,877,34.48275862068966,-0.216,0.847,0.49
52147,1755587161053,10.08,60.91,68.87,816,880,861,885,882,33.333333333333336,-0.219,0.85,0.492
52176,1755587161082,10.09,60.96,68.89,823,886,859,881,881,34.48275862068966,-0.218,0.851,0.495
52206,1755587161112,10.08,60.95,68.92,825,886,851,872,885,33.333333333333336,-0.217,0.847,0.497
52235,1755587161141,10.12,60.94,68.96,821,892,853,882,881,34.48275862068966,-0.218,0.843,0.496
52264,1755587161171,10.13,60.92,68.98,813,866,861,886,901,34.48275862068966,-0.218,0.848,0.493
52294,1755587161200,10.12,60.9,69.04,819,892,860,879,886,33.333333333333336,-0.22,0.848,0.496
52323,1755587161229,10.14,60.93,69.03,817,897,850,883,880,34.48275862068966,-0.218,0.851,0.495
52353,1755587161259,10.17,61.01,69.04,820,892,850,883,884,33.333333333333336,-0.217,0.849,0.494
52382,1755587161288,10.15,60.97,69.06,818,882,862,887,885,34.48275862068966,-0.216,0.847,0.487
52411,1755587161317,10.13,60.86,69.06,824,888,849,892,883,34.48275862068966,-0.217,0.848,0.485
52441,1755587161347,10.15,60.89,69.05,824,902,856,875,886,33.333333333333336,-0.222,0.851,0.498
52470,1755587161377,10.23,60.99,69.05,820,885,853,869,881,34.48275862068966,-0.226,0.849,0.501
52500,1755587161406,10.22,60.92,69.13,820,890,839,881,885,33.333333333333336,-0.22,0.846,0.491
52530,1755587161436,10.14,60.71,69.14,821,884,854,876,891,33.333333333333336,-0.217,0.851,0.49
52559,1755587161466,10.07,60.49,69.08,827,883,857,879,890,34.48275862068966,-0.214,0.848,0.502
52589,1755587161495,10.2,60.57,69.02,819,885,852,876,880,33.333333333333336,-0.222,0.847,0.508
