timestamp_ms,recv_timestamp_ms,pitch,roll,yaw,flex1,flex2,flex3,flex4,flex5,sampling_hz,accel_x,accel_y,accel_z
82729,1755586587629,35.56,176.71,-34.39,805,769,810,848,868,34.48275862068966,-0.574,0.051,-0.828
82759,1755586587658,35.55,176.67,-34.4,805,768,819,861,878,33.333333333333336,-0.572,0.051,-0.829
82788,1755586587688,35.5,176.65,-34.4,808,766,826,864,879,34.48275862068966,-0.574,0.051,-0.824
82818,1755586587717,35.5,176.69,-34.37,807,765,822,861,873,33.333333333333336,-0.574,0.051,-0.824
82847,1755586587747,35.53,176.67,-34.38,805,764,825,877,877,34.48275862068966,-0.571,0.052,-0.826
82877,1755586587776,35.46,176.67,-34.45,811,768,819,862,866,33.333333333333336,-0.572,0.053,-0.824
82906,1755586587806,35.42,176.73,-34.48,809,767,821,861,879,34.48275862068966,-0.575,0.051,-0.823
82936,1755586587835,35.44,176.77,-34.45,810,774,818,868,870,33.333333333333336,-0.577,0.049,-0.824
82965,1755586587865,35.45,176.78,-34.44,809,772,815,855,873,34.48275862068966,-0.576,0.049,-0.828
82995,1755586587894,35.39,176.77,-34.45,803,772,818,859,880,33.333333333333336,-0.575,0.051,-0.825
83024,1755586587924,35.36,176.81,-34.47,817,775,820,860,867,34.48275862068966,-0.576,0.05,-0.822
83054,1755586587953,35.37,176.85,-34.45,815,758,817,855,881,33.333333333333336,-0.579,0.049,-0.821
83083,1755586587982,35.39,176.85,-34.46,800,765,828,854,873,34.48275862068966,-0.575,0.05,-0.829
83113,1755586588012,35.36,176.77,-34.51,801,773,819,855,868,33.333333333333336,-0.574,0.047,-0.83
83142,1755586588041,35.37,176.77,-34.52,807,769,819,864,882,34.48275862068966,-0.576,0.046,-0.824
83171,1755586588071,35.35,176.87,-34.48,809,772,814,871,870,34.48275862068966,-0.575,0.047,-0.824
83201,1755586588100,35.34,176.88,-34.46,811,772,833,867,871,33.333333333333336,-0.577,0.046,-0.825
83230,1755586588129,35.38,176.91,-34.43,811,771,819,866,884,34.48275862068966,-0.575,0.046,-0.825
83260,1755586588159,35.36,176.95,-34.4,810,771,814,877,878,33.333333333333336,-0.576,0.046,-0.827
83289,1755586588188,35.33,176.98,-34.35,804,773,816,864,878,34.48275862068966,-0.577,0.045,-0.823
83319,1755586588218,35.31,177.05,-34.32,807,772,820,860,878,33.333333333333336,-0.574,0.048,-0.825
83348,1755586588248,35.25,177.05,-34.36,802,765,820,861,866,34.48275862068966,-0.571,0.048,-0.824
83378,1755586588278,35.14,177.12,-34.41,811,772,823,854,863,33.333333333333336,-0.573,0.049,-0.821
83408,1755586588307,35.06,177.2,-34.46,811,768,811,865,875,33.333333333333336,-0.573,0.047,-0.826
83437,1755586588337,35.02,177.18,-34.49,812,773,816,873,871,34.48275862068966,-0.575,0.043,-0.827
83457,1755586588357,35.05,177.17,-34.48,808,761,817,863,874,50.0,-0.579,0.04,-0.822
83487,1755586588387,35.03,177.25,-34.45,809,778,816,857,869,33.333333333333336,-0.579,0.043,-0.825
83517,1755586588416,34.94,177.24,-34.51,825,771,819,862,874,33.333333333333336,-0.574,0.044,-0.83
83546,1755586588445,34.89,177.2,-34.59,810,770,808,862,873,34.48275862068966,-0.574,0.042,-0.824
83576,1755586588475,34.83,177.25,-34.62,810,763,822,867,879,33.333333333333336,-0.577,0.042,-0.822
83605,1755586588504,34.76,177.28,-34.69,808,771,819,861,868,34.48275862068966,-0.579,0.041,-0.825
83635,1755586588534,34.76,177.28,-34.73,809,772,818,856,867,33.333333333333336,-0.577,0.038,-0.824
83664,1755586588563,34.72,177.28,-34.78,806,778,821,860,871,34.48275862068966,-0.581,0.04,-0.823
83693,1755586588593,34.6,177.27,-34.87,813,770,821,864,860,34.48275862068966,-0.584,0.038,-0.821
83723,1755586588622,34.58,177.29,-34.89,802,766,809,870,862,33.333333333333336,-0.582,0.037,-0.817
83752,1755586588652,34.61,177.32,-34.94,813,768,819,864,869,34.48275862068966,-0.582,0.039,-0.82
83782,1755586588681,34.51,177.31,-35.05,810,766,819,863,868,33.333333333333336,-0.582,0.038,-0.82
83812,1755586588711,34.43,177.31,-35.16,810,772,823,857,867,33.333333333333336,-0.586,0.035,-0.816
83841,1755586588741,34.42,177.32,-35.18,803,766,817,861,871,34.48275862068966,-0.594,0.03,-0.814
83871,1755586588770,34.47,177.39,-35.08,806,762,823,862,871,33.333333333333336,-0.599,0.029,-0.813
83900,1755586588800,34.55,177.45,-34.97,813,765,820,864,877,34.48275862068966,-0.59,0.028,-0.814
83930,1755586588830,34.55,177.51,-34.98,810,767,824,864,870,33.333333333333336,-0.578,0.036,-0.818
83959,1755586588859,34.44,177.49,-35.12,806,777,823,854,871,34.48275862068966,-0.58,0.037,-0.817
83989,1755586588889,34.48,177.55,-35.16,805,767,814,864,866,33.333333333333336,-0.587,0.033,-0.813
84019,1755586588918,34.54,177.59,-35.13,806,774,821,850,870,33.333333333333336,-0.593,0.027,-0.812
84048,1755586588948,34.63,177.6,-35.12,813,779,808,861,869,34.48275862068966,-0.592,0.03,-0.817
84078,1755586588977,34.6,177.54,-35.18,811,763,821,863,869,33.333333333333336,-0.59,0.03,-0.813
84107,1755586589007,34.64,177.65,-35.2,803,772,827,862,871,34.48275862068966,-0.594,0.031,-0.813
84137,1755586589037,34.63,177.7,-35.24,808,764,826,865,875,33.333333333333336,-0.596,0.029,-0.818
84167,1755586589066,34.67,177.66,-35.22,812,772,825,861,867,33.333333333333336,-0.597,0.025,-0.813
84196,1755586589095,34.75,177.7,-35.18,814,773,812,869,877,34.48275862068966,-0.594,0.03,-0.815
84226,1755586589125,34.75,177.71,-35.17,812,767,820,866,875,33.333333333333336,-0.594,0.028,-0.813
84255,1755586589154,34.83,177.8,-35.08,811,762,821,862,876,34.48275862068966,-0.597,0.026,-0.808
84285,1755586589184,34.96,177.86,-34.97,818,765,816,861,873,33.333333333333336,-0.594,0.028,-0.816
84314,1755586589213,35.01,177.85,-34.95,809,771,817,859,873,34.48275862068966,-0.587,0.028,-0.822
84344,1755586589243,34.93,177.82,-35.01,814,771,825,870,874,33.333333333333336,-0.586,0.029,-0.819
84373,1755586589273,34.93,177.85,-35.04,807,768,820,867,876,34.48275862068966,-0.589,0.028,-0.815
84403,1755586589302,35.0,177.89,-35.04,808,775,824,858,850,33.333333333333336,-0.594,0.027,-0.812
84432,1755586589332,35.05,177.89,-35.02,803,773,809,857,877,34.48275862068966,-0.596,0.028,-0.814
84462,1755586589361,35.13,177.84,-35.04,808,767,805,878,870,33.333333333333336,-0.591,0.029,-0.814
84492,1755586589391,35.13,177.81,-35.14,805,771,824,862,879,33.333333333333336,-0.589,0.031,-0.816
84521,1755586589420,35.08,177.76,-35.22,811,766,813,860,861,34.48275862068966,-0.594,0.029,-0.815
84550,1755586589450,35.11,177.82,-35.24,803,764,825,862,867,34.48275862068966,-0.595,0.027,-0.81
84580,1755586589479,35.15,177.87,-35.25,802,765,808,868,871,33.333333333333336,-0.594,0.027,-0.816
84609,1755586589509,35.09,177.89,-35.28,808,772,821,858,876,34.48275862068966,-0.593,0.027,-0.819
84639,1755586589538,35.05,177.88,-35.31,808,766,822,863,867,33.333333333333336,-0.591,0.025,-0.814
84668,1755586589568,35.15,177.95,-35.26,807,783,813,860,873,34.48275862068966,-0.593,0.024,-0.81
84698,1755586589597,35.24,178.03,-35.19,811,762,819,868,868,33.333333333333336,-0.593,0.024,-0.818
84727,1755586589626,35.22,178.02,-35.16,809,766,821,864,879,34.48275862068966,-0.587,0.024,-0.823
84757,1755586589656,35.24,178.01,-35.19,800,770,820,856,866,33.333333333333336,-0.585,0.027,-0.817
84787,1755586589686,35.21,178.07,-35.26,810,771,819,862,863,33.333333333333336,-0.592,0.029,-0.81
84807,1755586589706,35.21,178.13,-35.29,810,763,806,864,867,50.0,-0.601,0.027,-0.807
84836,1755586589736,35.34,178.23,-35.17,809,771,821,853,870,34.48275862068966,-0.598,0.022,-0.812
84866,1755586589765,35.48,178.25,-35.08,807,772,817,867,871,33.333333333333336,-0.587,0.021,-0.821
84895,1755586589795,35.37,178.18,-35.16,806,774,822,863,870,34.48275862068966,-0.584,0.024,-0.826
84925,1755586589824,35.26,178.12,-35.24,802,771,818,859,873,33.333333333333336,-0.59,0.022,-0.818
84954,1755586589853,35.33,178.12,-35.22,805,763,825,866,893,34.48275862068966,-0.595,0.022,-0.812
84984,1755586589883,35.4,178.12,-35.19,808,763,823,857,875,33.333333333333336,-0.595,0.022,-0.813
85013,1755586589912,35.42,178.1,-35.2,813,774,818,853,869,34.48275862068966,-0.589,0.026,-0.813
85042,1755586589942,35.39,178.04,-35.28,810,766,817,861,875,34.48275862068966,-0.588,0.023,-0.813
85072,1755586589972,35.38,178.02,-35.3,799,768,828,870,873,33.333333333333336,-0.59,0.023,-0.813
85102,1755586590001,35.38,178.02,-35.33,808,770,820,863,874,33.333333333333336,-0.591,0.024,-0.813
85131,1755586590030,35.38,178.04,-35.34,803,761,822,856,882,34.48275862068966,-0.592,0.022,-0.813
85161,1755586590060,35.41,178.04,-35.32,808,763,813,862,871,33.333333333333336,-0.594,0.021,-0.812
85190,1755586590090,35.51,178.06,-35.25,805,764,821,861,869,34.48275862068966,-0.595,0.022,-0.812
85220,1755586590119,35.55,178.07,-35.23,806,772,817,866,879,33.333333333333336,-0.591,0.027,-0.816
85249,1755586590148,35.47,178.07,-35.33,810,770,827,863,869,34.48275862068966,-0.584,0.029,-0.817
85279,1755586590178,35.41,178.05,-35.45,813,771,814,860,867,33.333333333333336,-0.585,0.028,-0.818
85308,1755586590208,35.38,178.02,-35.55,812,773,825,863,872,34.48275862068966,-0.591,0.025,-0.814
85338,1755586590238,35.43,178.1,-35.5,809,768,812,867,870,33.333333333333336,-0.591,0.019,-0.813
85368,1755586590267,35.5,178.14,-35.44,813,774,818,863,868,33.333333333333336,-0.588,0.021,-0.82
85398,1755586590297,35.46,178.11,-35.46,806,768,827,864,856,33.333333333333336,-0.587,0.023,-0.82
85427,1755586590326,35.37,178.14,-35.49,808,775,813,859,882,34.48275862068966,-0.588,0.023,-0.816
85456,1755586590356,35.4,178.17,-35.47,813,771,818,855,864,34.48275862068966,-0.591,0.021,-0.816
85486,1755586590385,35.47,178.21,-35.41,812,770,829,857,863,33.333333333333336,-0.588,0.024,-0.816
85515,1755586590415,35.44,178.21,-35.45,804,767,814,868,869,34.48275862068966,-0.589,0.026,-0.818
85545,1755586590444,35.41,178.67,-35.47,810,770,822,856,866,33.333333333333336,-0.59,0.022,-0.815
85574,1755586590474,35.49,178.71,-35.43,812,765,821,869,872,34.48275862068966,-0.59,0.018,-0.816
85604,1755586590504,35.42,178.69,-35.4,807,757,823,862,862,33.333333333333336,-0.592,0.018,-0.819
85634,1755586590533,35.32,178.7,-35.43,810,767,821,856,875,33.333333333333336,-0.59,0.023,-0.815
85663,1755586590563,35.25,178.69,-35.48,812,768,817,882,870,34.48275862068966,-0.591,0.023,-0.813
85693,1755586590592,35.28,178.67,-35.5,805,769,826,861,870,33.333333333333336,-0.596,0.021,-0.812
85722,1755586590621,35.26,178.68,-35.51,818,771,828,859,873,34.48275862068966,-0.595,0.021,-0.811
85752,1755586590651,35.25,178.69,-35.54,808,763,819,863,869,33.333333333333336,-0.595,0.021,-0.812
85781,1755586590681,35.26,178.69,-35.57,811,765,811,865,868,34.48275862068966,-0.597,0.022,-0.808
85811,1755586590710,35.32,178.7,-35.56,811,769,822,857,878,33.333333333333336,-0.599,0.019,-0.809
85840,1755586590740,35.32,178.67,-35.56,809,774,818,861,871,34.48275862068966,-0.599,0.018,-0.813
85870,1755586590769,35.34,178.67,-35.53,813,771,820,859,858,33.333333333333336,-0.599,0.018,-0.809
85899,1755586590799,35.39,178.68,-35.5,809,765,821,866,865,34.48275862068966,-0.595,0.021,-0.811
85929,1755586590828,35.48,178.6,-35.52,807,770,822,856,865,33.333333333333336,-0.596,0.02,-0.811
85958,1755586590858,35.53,178.54,-35.49,811,765,818,862,863,34.48275862068966,-0.599,0.017,-0.804
85988,1755586590887,35.67,178.62,-35.37,810,769,819,866,869,33.333333333333336,-0.594,0.023,-0.81
86018,1755586590917,35.72,178.6,-35.34,803,768,819,862,878,33.333333333333336,-0.589,0.023,-0.814
86047,1755586590947,35.71,178.61,-35.39,808,772,812,853,869,34.48275862068966,-0.586,0.025,-0.809
86077,1755586590976,35.67,178.7,-35.45,808,770,814,868,866,33.333333333333336,-0.586,0.028,-0.811
86107,1755586591006,35.58,178.77,-35.54,808,773,827,856,870,33.333333333333336,-0.585,0.026,-0.813
86136,1755586591035,35.58,178.81,-35.63,812,766,822,863,867,34.48275862068966,-0.59,0.025,-0.815
86166,1755586591065,35.47,178.83,-35.75,812,767,817,862,871,33.333333333333336,-0.59,0.022,-0.814
86195,1755586591094,35.36,178.89,-35.79,811,790,818,864,870,34.48275862068966,-0.596,0.015,-0.808
86224,1755586591124,35.41,179.02,-35.72,807,769,816,862,867,34.48275862068966,-0.601,0.012,-0.809
86254,1755586591153,35.47,179.09,-35.65,810,771,823,868,867,33.333333333333336,-0.598,0.013,-0.813
86283,1755586591183,35.41,179.04,-35.65,814,773,812,863,864,34.48275862068966,-0.595,0.014,-0.813
86313,1755586591212,35.37,179.03,-35.66,810,774,810,871,865,33.333333333333336,-0.594,0.015,-0.812
86342,1755586591242,35.37,178.94,-35.73,805,768,830,854,871,34.48275862068966,-0.591,0.018,-0.814
86372,1755586591271,35.32,178.8,-35.84,807,768,824,854,883,33.333333333333336,-0.593,0.019,-0.814
86401,1755586591300,35.25,178.71,-35.98,820,772,822,863,881,34.48275862068966,-0.596,0.016,-0.805
86431,1755586591330,35.29,178.76,-35.99,814,766,821,857,857,33.333333333333336,-0.602,0.01,-0.805
86460,1755586591359,35.43,178.85,-35.85,808,771,816,861,874,34.48275862068966,-0.602,0.008,-0.811
86490,1755586591389,35.49,178.81,-35.8,810,765,821,859,861,33.333333333333336,-0.598,0.012,-0.808
86519,1755586591419,35.49,178.85,-35.81,813,769,816,864,875,34.48275862068966,-0.598,0.018,-0.806
86539,1755586591439,35.5,178.88,-35.82,801,775,818,861,871,50.0,-0.599,0.02,-0.806
86569,1755586591468,35.58,178.89,-35.82,808,769,823,869,864,33.333333333333336,-0.597,0.018,-0.809
86598,1755586591498,35.62,178.83,-35.88,808,766,814,865,874,34.48275862068966,-0.597,0.019,-0.812
86628,1755586591527,35.59,178.84,-35.95,808,766,817,862,874,33.333333333333336,-0.599,0.016,-0.806
86657,1755586591557,35.68,178.95,-35.88,807,774,827,858,872,34.48275862068966,-0.602,0.011,-0.804
86687,1755586591587,35.84,179.01,-35.75,808,764,820,854,873,33.333333333333336,-0.599,0.013,-0.809
86717,1755586591616,35.85,179.04,-35.75,813,768,818,860,867,33.333333333333336,-0.59,0.018,-0.815
86746,1755586591646,35.74,179.01,-35.88,804,775,819,871,873,34.48275862068966,-0.591,0.017,-0.816
86776,1755586591675,35.73,179.05,-35.9,812,766,817,867,893,33.333333333333336,-0.597,0.013,-0.809
86805,1755586591705,35.78,179.12,-35.86,802,770,815,859,864,34.48275862068966,-0.6,0.013,-0.808
86835,1755586591734,35.77,179.14,-35.89,808,777,815,856,860,33.333333333333336,-0.597,0.012,-0.815
86864,1755586591764,35.66,179.07,-35.96,807,772,820,861,876,34.48275862068966,-0.595,0.012,-0.813
86894,1755586591793,35.61,179.07,-36.01,806,773,818,864,869,33.333333333333336,-0.596,0.014,-0.808
86923,1755586591823,35.54,179.12,-36.07,810,774,831,873,871,34.48275862068966,-0.603,0.01,-0.804
86953,1755586591852,35.56,179.21,-36.03,810,770,818,855,870,33.333333333333336,-0.604,0.009,-0.806
86983,1755586591882,35.67,179.17,-36.0,803,771,825,862,874,33.333333333333336,-0.603,0.01,-0.809
87012,1755586591911,35.67,179.14,-36.01,812,764,814,860,869,34.48275862068966,-0.599,0.008,-0.808
87041,1755586591941,35.66,179.15,-36.0,811,767,819,865,872,34.48275862068966,-0.6,0.011,-0.808
87071,1755586591970,35.7,179.13,-36.04,808,771,813,864,862,33.333333333333336,-0.6,0.012,-0.809
87100,1755586592000,35.71,179.12,-36.06,804,766,817,858,866,34.48275862068966,-0.6,0.009,-0.805
87130,1755586592029,35.74,179.14,-36.02,813,769,817,870,874,33.333333333333336,-0.604,0.008,-0.806
87160,1755586592059,35.8,179.15,-35.99,807,766,822,861,879,33.333333333333336,-0.604,0.008,-0.806
87189,1755586592089,35.83,179.19,-35.95,805,768,807,859,862,34.48275862068966,-0.603,0.008,-0.805
87209,1755586592108,35.85,179.24,-35.91,803,780,813,860,866,50.0,-0.603,0.007,-0.804
87239,1755586592138,35.84,179.28,-35.89,812,767,810,858,868,33.333333333333336,-0.605,0.008,-0.805
87268,1755586592168,35.86,179.31,-35.87,808,769,817,856,865,34.48275862068966,-0.6,0.01,-0.807
87298,1755586592197,35.82,179.37,-35.92,799,777,815,860,889,33.333333333333336,-0.599,0.009,-0.808
87328,1755586592227,35.69,179.4,-35.94,809,768,820,863,867,33.333333333333336,-0.601,0.009,-0.811
87357,1755586592257,35.77,179.36,-35.93,806,772,809,859,882,34.48275862068966,-0.601,0.01,-0.807
87387,1755586592286,35.79,179.37,-35.95,810,770,820,852,880,33.333333333333336,-0.602,0.01,-0.804
87416,1755586592316,35.77,179.38,-35.97,817,772,813,865,870,34.48275862068966,-0.603,0.009,-0.806
87446,1755586592345,35.78,179.37,-35.99,807,766,816,864,877,33.333333333333336,-0.602,0.007,-0.805
87475,1755586592375,35.84,179.36,-36.0,814,765,817,860,865,34.48275862068966,-0.603,0.007,-0.807
87505,1755586592404,35.84,179.37,-36.0,804,769,822,861,860,33.333333333333336,-0.603,0.005,-0.804
87535,1755586592434,35.91,179.39,-35.99,807,771,814,862,871,33.333333333333336,-0.604,0.007,-0.804
87564,1755586592463,35.94,179.39,-36.02,807,769,827,850,873,34.48275862068966,-0.6,0.011,-0.809
87593,1755586592493,35.87,179.34,-36.13,807,772,822,860,869,34.48275862068966,-0.599,0.009,-0.809
87623,1755586592522,35.86,179.33,-36.2,810,770,831,861,870,33.333333333333336,-0.601,0.007,-0.807
87652,1755586592552,35.87,179.31,-36.26,805,770,819,857,874,34.48275862068966,-0.603,0.008,-0.805
87682,1755586592581,35.9,179.3,-36.31,810,761,808,865,869,33.333333333333336,-0.608,0.003,-0.804
87711,1755586592611,35.95,179.31,-36.25,811,773,818,860,909,34.48275862068966,-0.608,0.003,-0.804
87741,1755586592640,36.01,179.3,-36.25,815,768,813,863,869,33.333333333333336,-0.603,0.007,-0.806
87771,1755586592670,35.98,179.29,-36.3,804,778,823,863,867,33.333333333333336,-0.605,0.005,-0.803
87800,1755586592700,36.02,179.33,-36.29,810,774,824,862,867,34.48275862068966,-0.607,0.005,-0.803
87830,1755586592729,36.07,179.28,-36.29,809,764,817,856,864,33.333333333333336,-0.606,0.006,-0.808
87859,1755586592758,36.09,179.25,-36.31,811,772,845,860,873,34.48275862068966,-0.604,0.005,-0.804
87889,1755586592788,36.12,179.31,-36.31,810,768,818,863,869,33.333333333333336,-0.604,0.007,-0.804
87918,1755586592817,36.11,179.34,-36.33,808,768,818,860,871,34.48275862068966,-0.605,0.005,-0.804
87948,1755586592847,36.15,179.34,-36.32,811,768,827,857,864,33.333333333333336,-0.605,0.004,-0.806
87977,1755586592876,36.13,179.34,-36.33,809,772,825,857,870,34.48275862068966,-0.602,0.006,-0.807
88007,1755586592906,36.12,179.34,-36.36,813,766,818,866,863,33.333333333333336,-0.604,0.005,-0.806
88036,1755586592935,36.11,179.33,-36.36,809,770,821,859,877,34.48275862068966,-0.606,0.003,-0.805
88065,1755586592965,36.16,179.33,-36.34,813,773,801,857,872,34.48275862068966,-0.605,0.004,-0.806
88095,1755586592994,36.14,179.32,-36.36,815,776,822,863,868,33.333333333333336,-0.603,0.007,-0.804
88124,1755586593024,36.14,179.31,-36.39,811,768,817,856,867,34.48275862068966,-0.605,0.007,-0.803
88154,1755586593053,36.16,179.34,-36.39,814,760,821,859,869,33.333333333333336,-0.605,0.006,-0.803
88183,1755586593083,36.19,179.38,-36.38,811,763,821,861,870,34.48275862068966,-0.604,0.005,-0.806
88213,1755586593112,36.15,179.37,-36.45,811,771,814,867,871,33.333333333333336,-0.6,0.009,-0.805
88242,1755586593142,36.02,179.4,-36.54,811,775,820,860,871,34.48275862068966,-0.6,0.005,-0.803
88272,1755586593171,36.05,179.43,-36.54,806,771,831,873,857,33.333333333333336,-0.606,0.003,-0.802
88301,1755586593201,36.15,179.46,-36.5,805,765,820,860,871,34.48275862068966,-0.604,0.003,-0.802
88331,1755586593230,36.18,179.49,-36.52,808,775,808,859,873,33.333333333333336,-0.603,0.004,-0.805
88360,1755586593260,36.17,179.5,-36.55,806,765,813,863,866,34.48275862068966,-0.603,0.004,-0.806
88390,1755586593289,36.19,179.5,-36.53,809,785,825,854,875,33.333333333333336,-0.604,0.003,-0.807
88419,1755586593319,36.22,179.51,-36.52,805,760,811,861,863,34.48275862068966,-0.602,0.003,-0.807
88449,1755586593348,36.16,179.46,-36.61,812,769,829,866,873,33.333333333333336,-0.596,0.006,-0.811
88479,1755586593378,36.02,179.36,-36.78,807,768,818,863,874,33.333333333333336,-0.601,0.006,-0.809
88508,1755586593407,35.94,179.4,-36.81,813,769,820,864,866,34.48275862068966,-0.609,0.002,-0.798
88537,1755586593437,36.05,172.28,-36.73,811,767,821,860,877,34.48275862068966,-0.613,-0.0,-0.797
88567,1755586593466,36.13,165.22,-36.68,797,764,820,860,866,33.333333333333336,-0.61,-0.0,-0.803
88596,1755586593496,36.14,165.51,-36.66,806,764,827,866,875,34.48275862068966,-0.607,0.001,-0.801
88626,1755586593525,36.14,165.82,-36.65,806,769,812,859,879,33.333333333333336,-0.609,0.001,-0.801
88655,1755586593555,36.19,166.13,-36.59,809,768,823,856,869,34.48275862068966,-0.611,0.0,-0.801
88685,1755586593584,36.28,166.4,-36.52,805,773,824,857,867,33.333333333333336,-0.61,0.001,-0.801
88715,1755586593614,36.32,166.69,-36.49,808,772,820,857,873,33.333333333333336,-0.608,0.003,-0.802
88744,1755586593643,36.29,167.01,-36.5,813,777,824,866,877,34.48275862068966,-0.607,0.004,-0.802
88773,1755586593673,36.27,167.33,-36.5,811,766,804,865,872,34.48275862068966,-0.608,0.002,-0.804
88803,1755586593703,36.3,167.55,-36.49,814,768,812,855,872,33.333333333333336,-0.607,0.002,-0.806
88833,1755586593732,36.29,167.78,-36.49,812,767,823,862,867,33.333333333333336,-0.606,0.002,-0.803
88862,1755586593762,36.32,168.04,-36.45,812,768,820,864,872,34.48275862068966,-0.608,0.001,-0.802
88892,1755586593791,36.37,168.3,-36.41,811,769,810,859,870,33.333333333333336,-0.606,0.002,-0.805
88922,1755586593821,36.37,168.52,-36.42,807,767,818,866,855,33.333333333333336,-0.606,0.003,-0.805
88951,1755586593850,36.37,168.73,-36.42,812,771,828,861,870,34.48275862068966,-0.607,0.002,-0.804
88980,1755586593880,36.42,168.98,-36.38,808,775,815,862,867,34.48275862068966,-0.608,0.002,-0.802
89010,1755586593909,36.41,169.23,-36.4,810,773,819,855,867,33.333333333333336,-0.604,0.006,-0.804
89039,1755586593939,36.3,169.45,-36.47,811,769,823,862,872,34.48275862068966,-0.605,0.005,-0.803
89068,1755586593968,36.3,169.69,-36.46,806,765,827,857,869,34.48275862068966,-0.608,0.001,-0.802
89098,1755586593998,36.37,162.69,-36.44,811,770,814,856,856,33.333333333333336,-0.609,-0.0,-0.804
89128,1755586594027,36.4,163.03,-36.41,810,772,814,860,872,33.333333333333336,-0.608,0.001,-0.804
89157,1755586594057,36.42,163.4,-36.39,810,770,826,858,868,34.48275862068966,-0.608,0.003,-0.802
89187,1755586594086,36.44,163.73,-36.38,809,767,821,863,864,33.333333333333336,-0.61,0.003,-0.802
89216,1755586594115,36.43,164.07,-36.38,804,772,814,863,866,34.48275862068966,-0.606,0.004,-0.805
89246,1755586594145,36.41,164.34,-36.42,810,765,818,857,873,33.333333333333336,-0.607,0.003,-0.804
89275,1755586594174,36.41,164.71,-36.42,805,770,817,854,872,34.48275862068966,-0.61,0.002,-0.799
89304,1755586594204,36.4,165.08,-36.4,808,770,820,862,873,34.48275862068966,-0.609,0.001,-0.801
89334,1755586594234,36.45,165.37,-36.37,809,763,818,864,870,33.333333333333336,-0.607,0.0,-0.806
89363,1755586594263,36.44,165.62,-36.39,811,762,822,860,880,34.48275862068966,-0.605,0.002,-0.806
89393,1755586594292,36.4,165.9,-36.41,808,767,827,859,869,33.333333333333336,-0.609,0.002,-0.8
89422,1755586594322,36.43,166.22,-36.4,809,772,821,851,872,34.48275862068966,-0.612,0.001,-0.798
89452,1755586594351,36.45,166.52,-36.38,807,768,824,863,871,33.333333333333336,-0.609,0.002,-0.802
89481,1755586594380,36.47,166.74,-36.4,805,774,824,864,869,34.48275862068966,-0.609,0.001,-0.804
89511,1755586594410,36.48,159.79,-36.4,809,769,817,862,860,33.333333333333336,-0.609,-0.0,-0.802
89540,1755586594440,36.52,160.17,-36.35,803,773,818,864,869,34.48275862068966,-0.613,0.0,-0.802
89570,1755586594469,36.58,160.58,-36.32,813,774,825,860,863,33.333333333333336,-0.61,0.001,-0.8
89599,1755586594499,36.58,161.0,-36.32,815,767,816,866,866,34.48275862068966,-0.61,0.002,-0.801
89629,1755586594528,36.6,161.4,-36.3,806,772,810,861,873,33.333333333333336,-0.611,0.002,-0.802
89658,1755586594558,36.62,161.74,-36.3,810,769,814,860,877,34.48275862068966,-0.609,0.001,-0.804
89688,1755586594587,36.62,162.06,-36.3,807,772,822,865,872,33.333333333333336,-0.607,0.002,-0.804
89717,1755586594617,36.63,162.39,-36.29,807,769,820,864,874,34.48275862068966,-0.608,0.002,-0.801
89747,1755586594646,36.64,162.76,-36.27,807,767,820,860,879,33.333333333333336,-0.608,0.003,-0.802
89776,1755586594676,36.66,163.12,-36.26,806,768,827,860,866,34.48275862068966,-0.608,0.002,-0.801
89806,1755586594706,36.66,163.51,-36.25,805,780,817,858,863,33.333333333333336,-0.61,0.002,-0.8
89835,1755586594735,36.68,163.85,-36.23,808,773,826,859,868,34.48275862068966,-0.608,0.003,-0.806
89865,1755586594764,36.64,164.13,-36.27,808,770,816,865,868,33.333333333333336,-0.605,0.004,-0.806
89894,1755586594793,36.57,164.44,-36.32,810,770,821,864,869,34.48275862068966,-0.608,0.003,-0.8
89923,1755586594823,36.62,164.82,-36.29,812,764,826,866,860,34.48275862068966,-0.613,0.001,-0.796
89953,1755586594852,36.67,165.2,-36.22,808,770,823,861,870,33.333333333333336,-0.61,0.001,-0.801
89982,1755586594882,36.65,165.49,-36.23,809,760,821,860,869,34.48275862068966,-0.606,0.002,-0.806
90012,1755586594911,36.61,165.73,-36.27,805,760,815,858,876,33.333333333333336,-0.607,0.002,-0.803
90041,1755586594941,36.64,166.01,-36.27,808,766,825,863,884,34.48275862068966,-0.61,0.001,-0.799
90071,1755586594971,36.68,166.31,-36.25,804,768,815,851,870,33.333333333333336,-0.611,0.001,-0.8
90101,1755586595000,36.69,166.59,-36.24,809,769,814,865,863,33.333333333333336,-0.609,0.002,-0.8
90131,1755586595030,36.69,166.81,-36.27,810,770,826,855,863,33.333333333333336,-0.61,0.002,-0.8
90160,1755586595060,36.73,167.08,-36.26,810,776,825,861,873,34.48275862068966,-0.611,0.002,-0.798
90190,1755586595089,36.76,167.37,-36.24,808,770,818,852,871,33.333333333333336,-0.608,0.002,-0.802
90219,1755586595119,36.74,167.58,-36.27,808,768,817,859,872,34.48275862068966,-0.607,0.003,-0.806
90249,1755586595148,36.74,167.78,-36.3,805,765,821,867,868,33.333333333333336,-0.61,0.002,-0.801
90278,1755586595177,36.78,168.06,-36.28,806,766,817,860,871,34.48275862068966,-0.612,0.001,-0.798
90308,1755586595207,36.82,168.31,-36.23,817,774,821,859,858,33.333333333333336,-0.612,0.002,-0.801
90337,1755586595236,36.81,168.52,-36.23,805,766,821,860,871,34.48275862068966,-0.609,0.003,-0.801
90367,1755586595266,36.77,168.76,-36.27,809,770,810,864,864,33.333333333333336,-0.608,0.003,-0.8
90396,1755586595295,36.78,168.99,-36.27,805,769,816,852,882,34.48275862068966,-0.611,0.001,-0.8
90425,1755586595325,36.83,169.19,-36.23,814,769,816,857,865,34.48275862068966,-0.612,0.0,-0.8
90455,1755586595355,36.85,169.41,-36.2,812,768,815,861,867,33.333333333333336,-0.611,0.001,-0.799
90485,1755586595384,36.88,169.65,-36.18,806,765,827,864,870,33.333333333333336,-0.609,0.004,-0.8
90514,1755586595414,36.86,169.86,-36.21,810,767,818,864,865,34.48275862068966,-0.607,0.006,-0.803
90534,1755586595434,36.83,170.05,-36.25,806,773,815,861,863,50.0,-0.607,0.004,-0.804
90564,1755586595463,36.84,170.23,-36.26,809,774,847,853,872,33.333333333333336,-0.609,0.002,-0.802
90593,1755586595493,36.87,170.43,-36.26,809,763,810,860,862,34.48275862068966,-0.61,0.004,-0.799
90623,1755586595522,36.86,170.67,-36.25,810,772,823,858,865,33.333333333333336,-0.609,0.003,-0.801
90652,1755586595552,36.86,170.87,-36.24,814,769,819,860,877,34.48275862068966,-0.607,0.004,-0.806
90673,1755586595572,36.84,171.01,-36.27,809,771,820,861,873,47.61904761904762,-0.604,0.003,-0.805
90702,1755586595601,36.84,171.21,-36.29,811,769,814,859,869,34.48275862068966,-0.608,0.001,-0.802
90731,1755586595631,36.85,171.41,-36.25,806,767,818,855,868,34.48275862068966,-0.611,0.001,-0.802
90761,1755586595660,36.87,171.58,-36.21,806,767,818,856,881,33.333333333333336,-0.609,0.001,-0.8
90790,1755586595690,36.91,171.75,-36.2,808,764,827,858,857,34.48275862068966,-0.608,0.002,-0.801
90820,1755586595719,36.91,171.9,-36.21,809,771,819,866,854,33.333333333333336,-0.61,0.003,-0.801
90849,1755586595749,36.93,172.05,-36.21,808,761,829,842,874,34.48275862068966,-0.611,0.003,-0.799
90879,1755586595778,36.96,172.23,-36.18,808,769,819,863,867,33.333333333333336,-0.61,0.002,-0.8
90908,1755586595808,36.95,172.4,-36.18,807,771,821,865,874,34.48275862068966,-0.609,0.003,-0.801
90938,1755586595837,36.94,172.54,-36.2,799,769,818,864,863,33.333333333333336,-0.61,0.002,-0.8
90967,1755586595867,36.92,172.7,-36.21,812,772,812,861,867,34.48275862068966,-0.61,0.003,-0.8
90997,1755586595896,36.91,172.83,-36.22,807,769,823,856,867,33.333333333333336,-0.611,0.002,-0.803
91027,1755586595926,36.9,172.95,-36.22,808,768,819,862,868,33.333333333333336,-0.61,0.001,-0.8
91056,1755586595956,36.92,173.11,-36.2,810,771,820,858,858,34.48275862068966,-0.612,0.002,-0.798
91086,1755586595985,36.94,173.27,-36.18,812,763,815,859,874,33.333333333333336,-0.611,0.002,-0.798
91115,1755586596014,36.95,173.44,-36.16,810,764,820,867,870,34.48275862068966,-0.61,0.003,-0.8
91144,1755586596044,36.93,173.56,-36.16,809,771,821,867,872,34.48275862068966,-0.609,0.001,-0.801
91174,1755586596074,36.93,173.7,-36.16,806,765,818,860,869,33.333333333333336,-0.609,0.002,-0.8
91204,1755586596103,36.92,173.83,-36.16,808,756,815,863,867,33.333333333333336,-0.611,0.002,-0.8
91233,1755586596133,36.93,173.97,-36.16,813,772,817,874,860,34.48275862068966,-0.611,0.002,-0.799
91263,1755586596162,36.92,174.1,-36.14,810,774,820,865,866,33.333333333333336,-0.611,0.001,-0.8
91292,1755586596192,36.94,174.21,-36.12,809,770,818,859,868,34.48275862068966,-0.613,0.001,-0.799
91322,1755586596221,36.97,174.32,-36.1,804,783,830,860,870,33.333333333333336,-0.613,0.003,-0.797
91351,1755586596251,37.0,174.44,-36.1,806,773,818,867,901,34.48275862068966,-0.612,0.005,-0.797
91381,1755586596280,37.0,174.54,-36.13,805,772,819,858,869,33.333333333333336,-0.609,0.005,-0.799
91410,1755586596310,36.97,174.63,-36.18,810,774,815,859,873,34.48275862068966,-0.609,0.002,-0.801
91440,1755586596339,36.95,174.73,-36.19,811,767,818,854,874,33.333333333333336,-0.612,0.001,-0.8
91469,1755586596370,36.98,167.64,-36.16,810,768,819,863,870,34.48275862068966,-0.614,-0.0,-0.798
91490,1755586596389,37.02,160.7,-36.13,810,776,820,862,864,47.61904761904762,-0.615,-0.001,-0.798
