timestamp_ms,recv_timestamp_ms,pitch,roll,yaw,flex1,flex2,flex3,flex4,flex5,sampling_hz,accel_x,accel_y,accel_z
31634,1755586304458,12.04,62.2,11.91,832,772,874,901,894,34.48275862068966,-0.229,0.856,0.452
31664,1755586304488,11.28,62.03,11.55,831,761,870,907,891,33.333333333333336,-0.224,0.863,0.461
31693,1755586304517,10.53,61.82,11.31,830,777,876,899,905,34.48275862068966,-0.221,0.86,0.464
31722,1755586304546,10.0,61.55,11.05,825,772,868,894,904,34.48275862068966,-0.211,0.849,0.471
31752,1755586304576,9.77,61.31,10.79,830,769,868,901,901,33.333333333333336,-0.223,0.848,0.481
31781,1755586304605,9.39,61.13,10.87,823,767,864,898,899,34.48275862068966,-0.234,0.847,0.482
31811,1755586304635,9.31,60.96,10.81,834,783,860,892,914,33.333333333333336,-0.224,0.849,0.487
31840,1755586304664,9.38,60.89,10.88,834,773,863,894,900,34.48275862068966,-0.226,0.843,0.5
31870,1755586304694,9.49,60.56,10.91,836,772,861,902,899,33.333333333333336,-0.22,0.842,0.499
31899,1755586304724,9.47,60.55,11.0,834,774,870,896,898,34.48275862068966,-0.211,0.848,0.509
31929,1755586304753,9.65,60.62,11.0,840,771,873,904,901,33.333333333333336,-0.207,0.851,0.519
31958,1755586304782,9.72,60.67,11.07,835,769,867,901,904,34.48275862068966,-0.213,0.847,0.507
31988,1755586304812,9.59,60.47,11.12,838,777,867,900,904,33.333333333333336,-0.214,0.839,0.501
32017,1755586304841,9.51,60.22,11.09,833,771,870,900,895,34.48275862068966,-0.208,0.839,0.507
32047,1755586304871,9.53,60.25,11.24,837,767,868,898,904,33.333333333333336,-0.209,0.842,0.519
32076,1755586304900,9.62,60.1,11.19,838,765,867,895,901,34.48275862068966,-0.206,0.84,0.516
32106,1755586304930,9.66,60.0,11.22,832,768,864,889,896,33.333333333333336,-0.204,0.84,0.518
32135,1755586304959,9.6,59.95,11.3,838,772,874,898,896,34.48275862068966,-0.202,0.843,0.517
32165,1755586304989,9.7,59.85,11.29,832,774,878,905,896,33.333333333333336,-0.203,0.844,0.518
32194,1755586305018,9.77,59.72,11.34,834,773,870,900,891,34.48275862068966,-0.2,0.839,0.524
32223,1755586305047,9.83,59.62,11.36,835,774,863,896,896,34.48275862068966,-0.199,0.841,0.527
32253,1755586305077,9.84,59.57,11.4,840,763,860,900,901,33.333333333333336,-0.198,0.836,0.527
32282,1755586305106,9.89,59.55,11.4,837,772,870,895,907,34.48275862068966,-0.198,0.838,0.533
32312,1755586305136,9.95,59.63,11.47,826,778,869,903,901,33.333333333333336,-0.196,0.835,0.536
32341,1755586305165,10.05,59.68,11.46,840,769,867,905,894,34.48275862068966,-0.192,0.836,0.535
32371,1755586305195,10.1,59.75,11.44,839,771,866,895,898,33.333333333333336,-0.195,0.834,0.532
32400,1755586305224,10.18,59.8,11.45,838,772,868,893,892,34.48275862068966,-0.195,0.833,0.531
32430,1755586305254,10.28,59.91,11.43,836,773,884,896,905,33.333333333333336,-0.198,0.837,0.529
32459,1755586305283,10.36,59.95,11.46,835,774,857,898,888,34.48275862068966,-0.201,0.837,0.523
32489,1755586305313,10.32,59.92,11.51,830,782,876,892,904,33.333333333333336,-0.196,0.833,0.52
32518,1755586305342,10.39,59.92,11.53,835,770,869,904,899,34.48275862068966,-0.199,0.838,0.522
32547,1755586305372,10.45,59.91,11.54,826,784,868,896,893,34.48275862068966,-0.199,0.834,0.524
32577,1755586305401,10.56,60.02,11.58,834,775,879,881,888,33.333333333333336,-0.199,0.836,0.528
32606,1755586305431,10.69,60.1,11.58,828,770,869,892,903,34.48275862068966,-0.201,0.836,0.52
32636,1755586305460,10.75,60.17,11.62,838,775,875,897,900,33.333333333333336,-0.201,0.841,0.517
32665,1755586305489,10.77,60.17,11.65,836,768,868,899,893,34.48275862068966,-0.196,0.838,0.51
32695,1755586305519,10.84,60.1,11.68,840,772,868,896,943,33.333333333333336,-0.198,0.839,0.511
32724,1755586305548,10.99,60.21,11.72,837,782,863,896,928,34.48275862068966,-0.2,0.842,0.513
32754,1755586305578,11.06,60.24,11.79,832,766,879,893,914,33.333333333333336,-0.201,0.84,0.509
32783,1755586305607,11.07,60.24,11.86,829,772,869,898,894,34.48275862068966,-0.201,0.843,0.511
32813,1755586305637,11.07,60.29,11.93,835,768,857,899,902,33.333333333333336,-0.194,0.841,0.51
32842,1755586305666,11.08,60.29,11.95,832,770,859,899,894,34.48275862068966,-0.195,0.84,0.506
32872,1755586305696,11.1,60.26,11.97,836,773,872,890,895,33.333333333333336,-0.193,0.844,0.504
32901,1755586305725,11.12,60.22,11.94,834,768,870,895,903,34.48275862068966,-0.193,0.844,0.509
32930,1755586305755,11.16,60.25,11.97,832,777,871,884,895,34.48275862068966,-0.196,0.842,0.508
32960,1755586305784,11.19,60.21,12.03,833,773,870,895,890,33.333333333333336,-0.196,0.842,0.502
32989,1755586305814,11.15,60.17,12.05,836,763,860,896,899,34.48275862068966,-0.195,0.85,0.501
33019,1755586305843,11.17,60.15,12.03,837,777,865,897,902,33.333333333333336,-0.194,0.848,0.502
33049,1755586305873,11.22,60.11,12.08,841,770,851,896,899,33.333333333333336,-0.197,0.848,0.506
33078,1755586305902,11.26,60.07,12.14,837,770,868,891,891,34.48275862068966,-0.195,0.847,0.504
33107,1755586305932,11.27,60.08,12.17,834,764,868,894,899,34.48275862068966,-0.193,0.848,0.504
33137,1755586305962,11.29,60.13,12.21,832,762,853,902,895,33.333333333333336,-0.193,0.848,0.504
33167,1755586305991,11.29,60.12,12.26,837,772,873,899,898,33.333333333333336,-0.197,0.847,0.504
33197,1755586306020,11.21,60.1,12.37,835,766,873,898,899,33.333333333333336,-0.195,0.846,0.505
33226,1755586306050,11.2,60.09,12.35,837,773,871,904,902,34.48275862068966,-0.189,0.849,0.507
33255,1755586306079,11.21,60.11,12.36,836,772,867,895,895,34.48275862068966,-0.188,0.847,0.507
33284,1755586306109,11.18,60.07,12.35,841,773,870,882,899,34.48275862068966,-0.188,0.848,0.506
33314,1755586306138,11.13,60.07,12.35,833,771,864,893,913,33.333333333333336,-0.188,0.85,0.504
33344,1755586306168,11.08,60.03,12.3,837,768,856,885,894,33.333333333333336,-0.186,0.848,0.503
33373,1755586306198,11.07,59.93,12.29,838,769,865,892,896,34.48275862068966,-0.191,0.847,0.505
33403,1755586306227,11.04,59.85,12.33,833,777,862,895,901,33.333333333333336,-0.192,0.849,0.504
33432,1755586306256,11.01,59.78,12.36,835,776,890,893,899,34.48275862068966,-0.189,0.847,0.506
33462,1755586306286,11.01,59.7,12.35,836,777,866,907,882,33.333333333333336,-0.19,0.846,0.509
33491,1755586306315,10.99,59.6,12.4,837,772,874,897,893,34.48275862068966,-0.189,0.847,0.511
33520,1755586306344,11.02,59.54,12.42,834,769,867,910,892,34.48275862068966,-0.187,0.842,0.516
33550,1755586306374,11.09,59.57,12.51,839,770,873,893,889,33.333333333333336,-0.187,0.845,0.514
33570,1755586306394,11.11,59.55,12.57,832,775,863,885,898,50.0,-0.188,0.846,0.512
33599,1755586306423,11.13,59.49,12.62,835,772,865,893,895,34.48275862068966,-0.187,0.849,0.513
33628,1755586306453,11.15,59.43,12.71,833,774,857,905,894,34.48275862068966,-0.184,0.848,0.514
33658,1755586306482,11.18,59.44,12.76,838,770,876,895,901,33.333333333333336,-0.181,0.848,0.515
33688,1755586306512,11.22,59.43,12.86,828,765,859,895,903,33.333333333333336,-0.186,0.845,0.516
33717,1755586306541,11.31,59.49,13.03,827,772,877,900,892,34.48275862068966,-0.184,0.844,0.517
33746,1755586306571,11.4,59.52,13.05,838,777,873,896,896,34.48275862068966,-0.18,0.846,0.517
33767,1755586306591,11.45,59.54,13.07,829,774,874,886,896,47.61904761904762,-0.181,0.847,0.514
33796,1755586306620,11.51,59.52,13.14,843,780,874,900,896,34.48275862068966,-0.181,0.843,0.515
33825,1755586306649,11.61,59.56,13.29,834,771,863,900,895,34.48275862068966,-0.185,0.842,0.517
33855,1755586306679,11.73,59.56,13.41,833,767,869,892,900,33.333333333333336,-0.188,0.844,0.512
33884,1755586306708,11.87,59.52,13.55,834,773,873,899,885,34.48275862068966,-0.191,0.842,0.509
33914,1755586306738,11.98,59.46,13.7,835,774,859,899,892,33.333333333333336,-0.185,0.845,0.511
33943,1755586306767,12.04,59.43,13.83,831,767,866,897,892,34.48275862068966,-0.176,0.847,0.509
33972,1755586306797,12.08,59.45,13.96,833,772,870,897,904,34.48275862068966,-0.172,0.847,0.506
34002,1755586306826,12.09,59.45,13.99,828,779,871,886,904,33.333333333333336,-0.171,0.849,0.505
34031,1755586306855,12.08,59.4,14.0,834,769,863,891,895,34.48275862068966,-0.175,0.847,0.506
34060,1755586306885,12.07,59.43,14.03,828,767,869,899,895,34.48275862068966,-0.175,0.847,0.512
34090,1755586306914,12.12,59.59,14.14,837,774,865,897,899,33.333333333333336,-0.178,0.848,0.518
34119,1755586306943,12.17,59.67,14.21,836,776,869,896,895,34.48275862068966,-0.178,0.847,0.514
34149,1755586306973,12.17,59.72,14.22,833,776,873,903,891,33.333333333333336,-0.172,0.847,0.51
34178,1755586307002,12.14,59.83,14.18,834,775,867,899,896,34.48275862068966,-0.171,0.85,0.507
34207,1755586307032,12.08,59.89,14.13,832,771,864,890,896,34.48275862068966,-0.169,0.851,0.508
34237,1755586307061,12.05,59.95,14.12,833,766,864,896,909,33.333333333333336,-0.172,0.855,0.506
34266,1755586307090,12.04,59.89,14.1,830,769,853,897,900,34.48275862068966,-0.169,0.85,0.502
34295,1755586307120,12.02,59.94,14.11,832,774,866,896,896,34.48275862068966,-0.17,0.854,0.503
34325,1755586307149,12.03,60.0,14.15,834,766,865,893,905,33.333333333333336,-0.172,0.854,0.501
34354,1755586307179,12.05,59.89,14.15,832,767,863,889,895,34.48275862068966,-0.175,0.851,0.498
34384,1755586307208,12.06,59.9,14.21,835,772,871,899,902,33.333333333333336,-0.177,0.854,0.502
34414,1755586307238,12.08,59.96,14.23,833,763,850,895,894,33.333333333333336,-0.175,0.856,0.503
34443,1755586307267,12.1,59.94,14.25,833,768,870,899,893,34.48275862068966,-0.173,0.853,0.503
34473,1755586307297,12.1,59.95,14.28,834,773,856,896,898,33.333333333333336,-0.171,0.853,0.503
34502,1755586307326,12.16,59.99,14.3,831,767,868,898,899,34.48275862068966,-0.172,0.856,0.502
34531,1755586307355,12.2,60.04,14.34,833,770,855,897,894,34.48275862068966,-0.173,0.855,0.501
34561,1755586307385,12.19,60.03,14.39,831,773,866,883,904,33.333333333333336,-0.172,0.854,0.499
34590,1755586307414,12.15,59.98,14.48,839,771,869,894,892,34.48275862068966,-0.172,0.855,0.493
34619,1755586307443,12.18,59.9,14.52,832,770,860,907,886,34.48275862068966,-0.171,0.856,0.494
34649,1755586307473,12.26,59.98,14.61,835,770,864,895,896,33.333333333333336,-0.172,0.857,0.497
34678,1755586307502,12.32,59.98,14.73,831,780,862,894,895,34.48275862068966,-0.173,0.857,0.494
34708,1755586307532,12.28,59.91,14.77,830,769,856,891,897,33.333333333333336,-0.171,0.856,0.498
34737,1755586307561,12.27,59.91,14.77,840,758,862,898,899,34.48275862068966,-0.171,0.856,0.497
34767,1755586307591,12.27,59.85,14.85,833,771,868,887,896,33.333333333333336,-0.172,0.856,0.495
34796,1755586307620,12.24,59.84,14.96,838,768,866,889,896,34.48275862068966,-0.171,0.856,0.502
34826,1755586307650,12.2,59.85,15.0,831,770,868,893,892,33.333333333333336,-0.168,0.855,0.503
34855,1755586307679,12.14,59.79,14.99,836,771,847,899,897,34.48275862068966,-0.164,0.855,0.499
34884,1755586307708,12.11,59.84,15.0,831,769,875,902,889,34.48275862068966,-0.166,0.859,0.499
34914,1755586307738,12.07,59.76,14.98,838,768,867,902,896,33.333333333333336,-0.17,0.851,0.503
34943,1755586307767,12.07,59.83,15.11,835,767,871,897,894,34.48275862068966,-0.174,0.856,0.504
34972,1755586307797,12.05,59.82,15.13,833,763,866,895,891,34.48275862068966,-0.17,0.854,0.5
35002,1755586307826,12.04,59.69,15.12,835,772,871,883,887,33.333333333333336,-0.167,0.857,0.495
35031,1755586307855,12.0,59.58,15.09,827,780,858,894,897,34.48275862068966,-0.165,0.854,0.496
35061,1755586307885,11.84,59.55,15.14,838,776,872,891,906,33.333333333333336,-0.163,0.853,0.503
35090,1755586307914,11.75,59.52,15.14,833,774,868,891,896,34.48275862068966,-0.165,0.853,0.506
35119,1755586307944,11.67,59.5,15.16,830,779,859,890,885,34.48275862068966,-0.165,0.853,0.506
35149,1755586307973,11.62,59.47,15.15,832,765,865,892,882,33.333333333333336,-0.163,0.854,0.504
35178,1755586308002,11.54,59.4,15.15,831,769,861,890,890,34.48275862068966,-0.16,0.853,0.505
35208,1755586308032,11.44,59.33,15.16,838,760,860,887,885,33.333333333333336,-0.159,0.852,0.509
35237,1755586308062,11.42,59.33,15.12,837,771,868,890,897,34.48275862068966,-0.163,0.853,0.512
35267,1755586308091,11.42,59.38,15.13,830,782,869,898,894,33.333333333333336,-0.165,0.849,0.513
35296,1755586308120,11.47,59.45,15.13,827,774,859,896,896,34.48275862068966,-0.163,0.851,0.512
35326,1755586308150,11.54,59.51,15.13,831,769,866,894,898,33.333333333333336,-0.164,0.851,0.509
35355,1755586308180,11.55,59.49,15.12,835,776,853,900,897,34.48275862068966,-0.166,0.851,0.507
35385,1755586308209,11.46,59.38,15.13,834,767,863,889,895,33.333333333333336,-0.165,0.85,0.504
35414,1755586308238,11.36,59.31,15.13,836,772,868,899,890,34.48275862068966,-0.16,0.851,0.508
35444,1755586308268,11.35,59.27,15.07,835,770,867,894,891,33.333333333333336,-0.161,0.851,0.513
35473,1755586308297,11.34,59.24,15.06,841,770,872,897,889,34.48275862068966,-0.164,0.85,0.512
35502,1755586308327,11.33,59.21,15.07,835,772,859,891,896,34.48275862068966,-0.168,0.851,0.51
35532,1755586308356,11.24,59.12,15.14,835,776,864,889,898,33.333333333333336,-0.168,0.846,0.51
35561,1755586308386,11.17,59.0,15.17,833,775,855,887,901,34.48275862068966,-0.167,0.851,0.51
35591,1755586308415,11.12,59.03,15.16,832,765,854,885,893,33.333333333333336,-0.164,0.85,0.514
35620,1755586308445,11.08,59.03,15.18,838,768,857,892,891,34.48275862068966,-0.163,0.848,0.515
35650,1755586308474,11.02,58.99,15.16,832,772,863,887,897,33.333333333333336,-0.162,0.848,0.513
35679,1755586308504,10.96,58.92,15.16,832,774,876,906,899,34.48275862068966,-0.162,0.848,0.515
35709,1755586308533,10.92,58.92,15.14,835,772,860,893,906,33.333333333333336,-0.163,0.847,0.518
35739,1755586308563,10.87,58.89,15.13,836,768,871,899,884,33.333333333333336,-0.163,0.84,0.518
35768,1755586308592,10.83,58.88,15.16,833,770,869,896,883,34.48275862068966,-0.161,0.84,0.517
35797,1755586308621,10.78,58.84,15.13,833,765,873,889,897,34.48275862068966,-0.161,0.84,0.519
35827,1755586308651,10.75,58.81,15.14,832,777,857,891,891,33.333333333333336,-0.162,0.842,0.519
35856,1755586308681,10.74,58.71,15.14,825,767,870,896,894,34.48275862068966,-0.163,0.843,0.518
35886,1755586308710,10.71,58.62,15.14,836,763,881,913,902,33.333333333333336,-0.162,0.842,0.521
35915,1755586308740,10.67,58.65,15.16,842,765,874,902,895,34.48275862068966,-0.16,0.841,0.526
35945,1755586308769,10.64,58.67,15.17,829,778,869,893,896,33.333333333333336,-0.16,0.842,0.523
35975,1755586308799,10.61,58.58,15.13,834,772,854,895,890,33.333333333333336,-0.16,0.84,0.523
36004,1755586308828,10.58,58.57,15.12,832,773,861,889,895,34.48275862068966,-0.158,0.842,0.526
36033,1755586308858,10.58,58.57,15.07,837,768,862,890,893,34.48275862068966,-0.16,0.841,0.525
36063,1755586308887,10.56,58.54,15.1,837,771,873,898,890,33.333333333333336,-0.162,0.841,0.525
36092,1755586308917,10.55,58.55,15.09,831,770,865,890,883,34.48275862068966,-0.159,0.842,0.527
36122,1755586308946,10.54,58.57,15.06,835,773,864,895,895,33.333333333333336,-0.161,0.84,0.528
36151,1755586308976,10.53,58.56,15.06,829,770,863,886,892,34.48275862068966,-0.161,0.839,0.526
36181,1755586309005,10.54,58.56,15.02,833,776,859,889,883,33.333333333333336,-0.161,0.84,0.524
36210,1755586309035,10.53,58.55,15.0,834,773,870,887,896,34.48275862068966,-0.164,0.842,0.523
36240,1755586309064,10.53,58.57,14.98,833,770,861,897,890,33.333333333333336,-0.164,0.841,0.526
36269,1755586309094,10.56,58.6,14.98,837,771,865,885,887,34.48275862068966,-0.164,0.841,0.528
36299,1755586309123,10.55,58.65,15.01,837,770,873,891,896,33.333333333333336,-0.165,0.841,0.523
36328,1755586309153,10.54,58.6,14.97,836,775,856,891,882,34.48275862068966,-0.165,0.842,0.522
36358,1755586309182,10.49,58.62,15.02,833,773,859,885,889,33.333333333333336,-0.163,0.842,0.526
36387,1755586309212,10.48,58.61,15.0,834,766,865,895,890,34.48275862068966,-0.162,0.841,0.526
36417,1755586309241,10.45,58.55,14.98,830,777,869,899,890,33.333333333333336,-0.162,0.842,0.523
36447,1755586309272,10.39,58.49,15.0,831,775,867,884,895,33.333333333333336,-0.164,0.84,0.522
36467,1755586309291,10.35,58.42,15.01,834,774,865,886,897,50.0,-0.165,0.841,0.523
36496,1755586309320,10.35,58.44,15.01,836,772,865,888,891,34.48275862068966,-0.165,0.843,0.528
36526,1755586309351,10.32,58.42,15.01,835,778,864,894,895,33.333333333333336,-0.162,0.841,0.525
36546,1755586309370,10.27,58.4,15.01,831,766,856,892,890,50.0,-0.162,0.84,0.522
36575,1755586309400,10.2,58.32,14.96,835,769,858,891,892,34.48275862068966,-0.161,0.84,0.525
36605,1755586309429,10.18,58.3,14.93,833,775,871,891,893,33.333333333333336,-0.163,0.839,0.528
36634,1755586309459,10.14,58.26,14.91,832,768,866,892,897,34.48275862068966,-0.161,0.84,0.526
36664,1755586309488,10.1,58.19,14.88,835,768,876,896,891,33.333333333333336,-0.164,0.839,0.526
36694,1755586309518,10.08,58.09,14.86,836,769,860,896,891,33.333333333333336,-0.165,0.835,0.528
36723,1755586309548,10.1,58.02,14.84,831,770,861,892,908,34.48275862068966,-0.164,0.835,0.532
36753,1755586309577,10.12,57.88,14.76,826,777,858,892,891,33.333333333333336,-0.16,0.832,0.533
36782,1755586309606,10.12,57.75,14.7,830,772,861,884,901,34.48275862068966,-0.159,0.832,0.538
36811,1755586309636,10.13,57.77,14.64,833,770,860,890,882,34.48275862068966,-0.161,0.835,0.542
36841,1755586309665,10.17,57.83,14.6,832,771,868,893,884,33.333333333333336,-0.169,0.833,0.54
36870,1755586309695,10.31,57.86,14.61,833,775,860,891,890,34.48275862068966,-0.174,0.83,0.541
36900,1755586309724,10.48,57.92,14.7,838,769,862,889,882,33.333333333333336,-0.17,0.83,0.543
36930,1755586309754,10.67,58.11,14.82,832,776,868,897,899,33.333333333333336,-0.17,0.831,0.544
36959,1755586309783,10.92,58.43,14.91,831,768,862,891,894,34.48275862068966,-0.164,0.834,0.541
36988,1755586309813,11.2,58.73,14.97,833,779,866,903,892,34.48275862068966,-0.167,0.837,0.538
37018,1755586309842,11.37,58.9,15.08,829,771,865,885,891,33.333333333333336,-0.172,0.835,0.531
37047,1755586309871,11.44,59.0,15.19,837,774,863,890,885,34.48275862068966,-0.172,0.837,0.526
37077,1755586309901,11.39,58.99,15.22,831,774,865,891,892,33.333333333333336,-0.166,0.841,0.515
37106,1755586309931,11.32,58.96,15.21,834,775,866,892,897,34.48275862068966,-0.166,0.843,0.516
37136,1755586309960,11.28,58.93,15.18,835,773,854,887,891,33.333333333333336,-0.168,0.844,0.522
37165,1755586309989,11.27,58.93,15.14,829,771,860,890,886,34.48275862068966,-0.171,0.842,0.518
37195,1755586310019,11.21,58.89,15.2,835,760,856,890,887,33.333333333333336,-0.173,0.843,0.51
37224,1755586310048,11.14,58.79,15.23,833,771,865,885,892,34.48275862068966,-0.171,0.845,0.513
37253,1755586310078,11.13,58.79,15.22,831,775,861,890,890,34.48275862068966,-0.169,0.847,0.519
37283,1755586310107,11.12,58.81,15.24,832,776,852,891,894,33.333333333333336,-0.168,0.845,0.516
37312,1755586310137,11.06,58.71,15.27,836,760,872,876,888,34.48275862068966,-0.166,0.843,0.51
37342,1755586310166,11.02,58.64,15.22,832,778,865,888,887,33.333333333333336,-0.168,0.845,0.515
37372,1755586310196,11.0,58.61,15.23,833,775,861,884,887,33.333333333333336,-0.173,0.842,0.519
37401,1755586310225,10.97,58.56,15.27,830,775,869,897,895,34.48275862068966,-0.175,0.842,0.518
37430,1755586310254,10.9,58.54,15.33,833,770,867,893,891,34.48275862068966,-0.168,0.844,0.52
37460,1755586310284,10.85,58.45,15.24,834,770,850,891,920,33.333333333333336,-0.165,0.84,0.524
37489,1755586310314,10.82,58.51,15.32,835,773,863,888,895,34.48275862068966,-0.169,0.842,0.525
37519,1755586310343,10.82,58.48,15.28,828,765,866,895,889,33.333333333333336,-0.167,0.845,0.517
37548,1755586310372,10.74,58.37,15.28,825,775,854,897,896,34.48275862068966,-0.171,0.841,0.517
37577,1755586310402,10.7,58.27,15.28,836,773,861,885,900,34.48275862068966,-0.169,0.843,0.521
37607,1755586310431,10.7,58.25,15.22,832,777,854,889,899,33.333333333333336,-0.17,0.841,0.525
37636,1755586310460,10.65,58.21,15.28,836,771,859,894,895,34.48275862068966,-0.17,0.84,0.524
37666,1755586310490,10.6,58.09,15.28,837,772,859,895,885,33.333333333333336,-0.168,0.84,0.526
37695,1755586310519,10.53,58.08,15.33,832,774,868,888,894,34.48275862068966,-0.166,0.839,0.531
37724,1755586310549,10.51,58.11,15.32,829,778,862,892,893,34.48275862068966,-0.161,0.837,0.527
37754,1755586310578,10.48,58.09,15.23,836,771,861,892,886,33.333333333333336,-0.16,0.839,0.521
37783,1755586310607,10.42,58.04,15.16,829,769,867,894,896,34.48275862068966,-0.166,0.838,0.525
37813,1755586310637,10.44,58.05,15.13,822,776,861,889,891,33.333333333333336,-0.172,0.836,0.535
37842,1755586310667,10.49,58.1,15.17,833,772,859,888,894,34.48275862068966,-0.175,0.836,0.535
37872,1755586310696,10.45,58.04,15.19,835,761,860,895,894,33.333333333333336,-0.164,0.837,0.529
37901,1755586310726,10.44,57.94,15.13,835,770,865,891,891,34.48275862068966,-0.16,0.835,0.529
37931,1755586310755,10.49,57.79,15.12,834,768,861,880,891,33.333333333333336,-0.169,0.83,0.532
37960,1755586310784,10.51,57.83,15.28,828,773,854,895,892,34.48275862068966,-0.177,0.831,0.536
37990,1755586310814,10.51,57.85,15.37,837,770,858,893,890,33.333333333333336,-0.174,0.834,0.534
38019,1755586310843,10.56,57.87,15.36,831,776,856,888,892,34.48275862068966,-0.167,0.839,0.534
38048,1755586310872,10.54,57.87,15.33,826,769,877,890,887,34.48275862068966,-0.163,0.838,0.532
38078,1755586310902,10.47,57.83,15.33,829,768,848,892,889,33.333333333333336,-0.163,0.832,0.536
38107,1755586310932,10.44,57.83,15.33,833,769,866,889,896,34.48275862068966,-0.167,0.834,0.54
38137,1755586310961,10.42,57.87,15.33,833,779,859,891,885,33.333333333333336,-0.168,0.836,0.538
38166,1755586310991,10.4,57.93,15.34,833,772,865,889,895,34.48275862068966,-0.166,0.836,0.536
38196,1755586311020,10.47,57.93,15.39,831,769,861,887,894,33.333333333333336,-0.165,0.832,0.536
38225,1755586311050,10.59,57.93,15.49,834,768,854,884,897,34.48275862068966,-0.165,0.834,0.54
38255,1755586311079,10.72,58.15,15.65,835,776,861,900,926,33.333333333333336,-0.158,0.84,0.538
38284,1755586311108,10.89,58.31,15.56,827,769,866,887,889,34.48275862068966,-0.163,0.837,0.53
38313,1755586311138,10.83,58.29,15.56,828,763,854,888,893,34.48275862068966,-0.164,0.834,0.525
38343,1755586311167,10.79,58.25,15.5,831,769,870,883,891,33.333333333333336,-0.165,0.838,0.532
38372,1755586311197,10.79,58.28,15.48,833,766,866,890,887,34.48275862068966,-0.167,0.837,0.54
38402,1755586311226,10.84,58.38,15.47,831,766,857,886,888,33.333333333333336,-0.168,0.836,0.535
38432,1755586311256,10.82,58.41,15.49,836,761,862,891,889,33.333333333333336,-0.168,0.839,0.524
38461,1755586311285,10.77,58.41,15.45,832,774,879,892,892,34.48275862068966,-0.166,0.842,0.523
38490,1755586311315,10.74,58.41,15.48,830,769,872,900,887,34.48275862068966,-0.17,0.839,0.526
38520,1755586311344,10.74,58.39,15.49,833,756,845,893,892,33.333333333333336,-0.171,0.839,0.523
38549,1755586311374,10.71,58.34,15.51,824,766,866,889,887,34.48275862068966,-0.171,0.839,0.519
38579,1755586311404,10.64,58.28,15.55,833,777,866,893,898,33.333333333333336,-0.17,0.838,0.524
38609,1755586311433,10.65,58.32,15.52,834,775,859,904,889,33.333333333333336,-0.166,0.842,0.533
38638,1755586311463,10.68,58.4,15.5,831,778,857,891,893,34.48275862068966,-0.169,0.841,0.527
38668,1755586311492,10.61,58.34,15.55,832,770,862,893,893,33.333333333333336,-0.168,0.839,0.52
38697,1755586311521,10.53,58.28,15.53,832,771,860,897,902,34.48275862068966,-0.164,0.84,0.527
38727,1755586311551,10.51,58.33,15.52,831,768,852,888,889,33.333333333333336,-0.165,0.841,0.528
38756,1755586311580,10.5,58.38,15.5,834,774,849,884,887,34.48275862068966,-0.168,0.842,0.524
38785,1755586311609,10.49,58.37,15.48,827,774,853,893,892,34.48275862068966,-0.17,0.839,0.521
38815,1755586311639,10.46,58.31,15.51,828,772,854,887,899,33.333333333333336,-0.17,0.838,0.523
38844,1755586311669,10.42,58.27,15.53,835,773,861,885,885,34.48275862068966,-0.166,0.841,0.528
38874,1755586311698,10.43,58.3,15.5,831,766,866,893,894,33.333333333333336,-0.162,0.843,0.529
38903,1755586311727,10.41,58.31,15.45,832,766,857,891,895,34.48275862068966,-0.16,0.841,0.522
38933,1755586311757,10.34,58.28,15.42,834,772,855,887,890,33.333333333333336,-0.163,0.842,0.523
38962,1755586311786,10.34,58.2,15.37,825,769,849,888,888,34.48275862068966,-0.17,0.839,0.526
38991,1755586311816,10.32,58.13,15.45,829,774,858,889,886,34.48275862068966,-0.173,0.838,0.529
39021,1755586311845,10.27,58.13,15.49,838,772,865,892,892,33.333333333333336,-0.165,0.841,0.528
39050,1755586311875,10.2,58.13,15.45,827,782,858,886,887,34.48275862068966,-0.163,0.84,0.528
39080,1755586311904,10.16,58.07,15.39,827,775,848,896,889,33.333333333333336,-0.166,0.837,0.53
39109,1755586311934,10.11,58.02,15.43,833,779,858,876,888,34.48275862068966,-0.17,0.837,0.53
39139,1755586311964,10.05,57.94,15.49,838,765,856,897,893,33.333333333333336,-0.169,0.836,0.53
39169,1755586311993,10.01,57.92,15.57,832,763,857,886,882,33.333333333333336,-0.168,0.838,0.534
39198,1755586312022,9.98,57.86,15.63,830,771,852,896,894,34.48275862068966,-0.165,0.836,0.54
39227,1755586312052,9.97,57.79,15.71,831,774,865,894,890,34.48275862068966,-0.165,0.837,0.536
39257,1755586312081,9.9,57.66,15.86,835,771,864,891,894,33.333333333333336,-0.162,0.835,0.54
39286,1755586312110,9.81,57.73,16.01,833,770,861,889,888,34.48275862068966,-0.161,0.835,0.548
39315,1755586312140,9.89,57.85,16.02,835,768,851,885,893,34.48275862068966,-0.158,0.833,0.545
39345,1755586312169,9.88,57.91,16.06,834,780,870,896,896,33.333333333333336,-0.154,0.837,0.536
39374,1755586312198,9.84,57.89,16.01,829,769,866,882,890,34.48275862068966,-0.149,0.838,0.535
39404,1755586312229,9.82,57.89,16.0,833,778,855,891,888,33.333333333333336,-0.155,0.836,0.537
39424,1755586312248,9.8,57.89,16.04,829,775,860,888,891,50.0,-0.159,0.837,0.539
39453,1755586312278,9.79,57.92,16.07,831,765,846,887,895,34.48275862068966,-0.155,0.839,0.539
39483,1755586312307,9.78,57.88,16.03,827,766,858,894,895,33.333333333333336,-0.152,0.837,0.534
39512,1755586312337,9.74,57.83,16.04,833,766,855,887,889,34.48275862068966,-0.153,0.837,0.534
39542,1755586312366,9.73,57.85,16.06,833,771,853,887,911,33.333333333333336,-0.154,0.839,0.535
39571,1755586312395,9.73,57.85,16.07,827,773,858,894,882,34.48275862068966,-0.153,0.838,0.533
39600,1755586312425,9.68,57.75,16.12,835,773,860,893,892,34.48275862068966,-0.152,0.837,0.533
39630,1755586312454,9.66,57.73,16.12,832,770,866,892,888,33.333333333333336,-0.15,0.839,0.539
39659,1755586312484,9.68,57.8,16.13,834,767,860,894,894,34.48275862068966,-0.15,0.84,0.536
39689,1755586312514,9.64,57.73,16.16,827,773,858,883,893,33.333333333333336,-0.15,0.837,0.531
39719,1755586312543,9.59,57.66,16.18,831,772,865,884,894,33.333333333333336,-0.148,0.84,0.536
39748,1755586312572,9.57,57.63,16.18,832,780,849,893,908,34.48275862068966,-0.146,0.84,0.533
39777,1755586312602,9.58,57.51,16.19,833,767,857,882,893,34.48275862068966,-0.153,0.835,0.536
39807,1755586312631,9.57,57.5,16.32,832,774,861,887,886,33.333333333333336,-0.153,0.837,0.54
39837,1755586312661,9.6,57.56,16.32,828,762,886,888,894,33.333333333333336,-0.147,0.839,0.54
39866,1755586312690,9.63,57.57,16.22,833,781,869,888,891,34.48275862068966,-0.146,0.839,0.539
39895,1755586312720,9.67,57.58,16.14,823,768,862,897,887,34.48275862068966,-0.143,0.836,0.542
39925,1755586312749,9.68,57.56,15.99,834,767,854,889,889,33.333333333333336,-0.138,0.834,0.542
39954,1755586312779,9.63,57.59,15.92,826,770,855,887,890,34.48275862068966,-0.144,0.838,0.54
39984,1755586312808,9.6,57.57,15.85,834,780,854,899,889,33.333333333333336,-0.149,0.834,0.541
40013,1755586312838,9.62,57.58,15.88,831,765,868,902,894,34.48275862068966,-0.158,0.831,0.543
40043,1755586312868,9.61,57.63,16.0,831,764,865,892,898,33.333333333333336,-0.159,0.837,0.54
40073,1755586312897,9.6,57.64,16.0,842,770,862,888,895,33.333333333333336,-0.152,0.839,0.537
40102,1755586312927,9.59,57.63,15.97,833,774,860,898,890,34.48275862068966,-0.15,0.832,0.54
40132,1755586312956,9.58,57.63,15.99,830,765,848,891,891,33.333333333333336,-0.15,0.832,0.54
40161,1755586312986,9.57,57.64,16.01,828,768,857,887,887,34.48275862068966,-0.152,0.837,0.539
40191,1755586313015,9.56,57.64,15.96,830,775,863,887,887,33.333333333333336,-0.151,0.837,0.539
40220,1755586313044,9.56,57.67,15.98,832,767,870,886,885,34.48275862068966,-0.154,0.834,0.536
40250,1755586313074,9.55,57.58,16.01,835,770,861,888,891,33.333333333333336,-0.154,0.835,0.533
40280,1755586313104,9.53,57.55,16.0,835,773,867,887,885,33.333333333333336,-0.151,0.838,0.539
40309,1755586313133,9.5,57.56,16.01,833,770,877,885,889,34.48275862068966,-0.148,0.837,0.542
40338,1755586313163,9.48,57.58,16.01,825,769,854,890,886,34.48275862068966,-0.148,0.835,0.541
40368,1755586313192,9.45,57.56,16.0,830,773,858,903,889,33.333333333333336,-0.148,0.835,0.538
40397,1755586313222,9.39,57.55,15.99,830,771,854,896,891,34.48275862068966,-0.151,0.836,0.539
