timestamp_ms,recv_timestamp_ms,pitch,roll,yaw,flex1,flex2,flex3,flex4,flex5,sampling_hz,accel_x,accel_y,accel_z
73644,1755586236294,21.8,-34.6,-12.69,768,770,763,756,814,34.48275862068966,-0.387,-0.526,0.76
73673,1755586236323,21.79,-34.57,-12.71,761,772,767,756,813,34.48275862068966,-0.383,-0.525,0.765
73703,1755586236353,21.79,-34.54,-12.72,769,775,771,759,819,33.333333333333336,-0.387,-0.528,0.763
73732,1755586236382,21.83,-34.57,-12.7,766,776,773,755,815,34.48275862068966,-0.388,-0.525,0.757
73762,1755586236412,21.8,-34.62,-12.71,769,776,768,754,813,33.333333333333336,-0.388,-0.522,0.757
73792,1755586236442,21.75,-34.65,-12.72,767,778,777,759,814,33.333333333333336,-0.389,-0.523,0.762
73821,1755586236472,21.76,-34.63,-12.71,766,770,776,750,818,34.48275862068966,-0.386,-0.525,0.765
73842,1755586236491,21.78,-34.6,-12.71,768,773,775,757,818,47.61904761904762,-0.384,-0.527,0.764
73871,1755586236521,21.73,-34.56,-12.73,771,772,768,755,818,34.48275862068966,-0.384,-0.525,0.759
73901,1755586236551,21.74,-34.61,-12.74,764,771,767,754,812,33.333333333333336,-0.387,-0.525,0.759
73930,1755586236580,21.74,-34.61,-12.71,771,779,773,759,844,34.48275862068966,-0.386,-0.526,0.762
73960,1755586236610,21.73,-34.57,-12.71,774,766,776,751,812,33.333333333333336,-0.385,-0.525,0.763
73990,1755586236639,21.71,-34.55,-12.72,762,770,762,760,816,33.333333333333336,-0.386,-0.523,0.761
74019,1755586236669,21.71,-34.62,-12.72,769,769,773,751,819,34.48275862068966,-0.385,-0.522,0.756
74048,1755586236698,21.71,-34.7,-12.73,767,767,773,752,822,34.48275862068966,-0.385,-0.525,0.758
74078,1755586236728,21.66,-34.7,-12.73,766,768,771,756,813,33.333333333333336,-0.384,-0.528,0.766
74108,1755586236757,21.66,-34.62,-12.73,770,770,765,753,818,33.333333333333336,-0.385,-0.529,0.766
74137,1755586236787,21.71,-34.6,-12.7,770,764,773,753,808,34.48275862068966,-0.385,-0.529,0.762
74167,1755586236817,21.69,-34.6,-12.68,766,763,770,757,816,33.333333333333336,-0.383,-0.525,0.759
74187,1755586236837,21.67,-34.63,-12.68,771,764,769,754,816,50.0,-0.383,-0.522,0.758
74217,1755586236867,21.68,-34.68,-12.7,770,765,776,749,815,33.333333333333336,-0.387,-0.525,0.763
74246,1755586236896,21.68,-34.65,-12.69,769,780,776,762,820,34.48275862068966,-0.384,-0.526,0.764
74276,1755586236925,21.72,-34.61,-12.68,762,781,774,752,819,33.333333333333336,-0.382,-0.524,0.762
74305,1755586236955,21.66,-34.63,-12.71,768,768,776,763,808,34.48275862068966,-0.383,-0.524,0.76
74335,1755586236985,21.68,-34.65,-12.7,770,772,769,755,820,33.333333333333336,-0.385,-0.524,0.759
74364,1755586237014,21.76,-34.7,-12.68,769,764,767,751,819,34.48275862068966,-0.385,-0.524,0.763
74394,1755586237044,21.69,-34.65,-12.7,770,770,768,757,821,33.333333333333336,-0.383,-0.523,0.763
74424,1755586237074,21.7,-34.65,-12.72,760,777,770,759,815,33.333333333333336,-0.383,-0.525,0.762
74453,1755586237103,21.73,-34.64,-12.72,769,769,777,754,815,34.48275862068966,-0.384,-0.524,0.762
74483,1755586237133,21.73,-34.63,-12.74,771,768,768,753,818,33.333333333333336,-0.383,-0.523,0.763
74512,1755586237163,21.74,-34.65,-12.76,764,772,772,756,815,34.48275862068966,-0.384,-0.525,0.763
74542,1755586237192,21.75,-34.63,-12.75,766,775,782,755,815,33.333333333333336,-0.386,-0.525,0.761
74572,1755586237222,21.73,-34.59,-12.75,768,766,766,762,816,33.333333333333336,-0.384,-0.524,0.762
74601,1755586237251,21.77,-34.64,-12.79,768,768,769,755,816,34.48275862068966,-0.383,-0.523,0.762
74630,1755586237280,21.77,-34.66,-12.8,769,773,774,755,820,34.48275862068966,-0.386,-0.526,0.76
74660,1755586237310,21.77,-34.71,-12.79,771,777,773,750,826,33.333333333333336,-0.386,-0.525,0.759
74690,1755586237339,21.78,-34.75,-12.82,772,785,771,750,818,33.333333333333336,-0.386,-0.525,0.763
74719,1755586237369,21.7,-34.75,-12.83,765,771,766,758,820,34.48275862068966,-0.391,-0.532,0.762
74749,1755586237399,21.74,-34.78,-12.76,770,773,774,758,814,33.333333333333336,-0.386,-0.53,0.758
74778,1755586237428,21.76,-34.83,-12.77,767,775,768,753,815,34.48275862068966,-0.383,-0.525,0.761
74808,1755586237458,21.68,-34.81,-12.8,776,768,767,754,813,33.333333333333336,-0.387,-0.529,0.764
74838,1755586237487,21.78,-34.8,-12.76,769,768,778,753,822,33.333333333333336,-0.389,-0.529,0.762
74867,1755586237517,21.85,-34.79,-12.72,767,769,778,759,813,34.48275862068966,-0.388,-0.529,0.762
74897,1755586237547,21.79,-34.75,-12.75,763,779,766,753,819,33.333333333333336,-0.386,-0.526,0.761
74927,1755586237576,21.82,-34.73,-12.76,772,767,768,758,814,33.333333333333336,-0.387,-0.526,0.758
74956,1755586237606,21.81,-34.75,-12.74,767,772,775,752,820,34.48275862068966,-0.39,-0.528,0.757
74986,1755586237636,21.82,-34.74,-12.72,767,774,782,754,813,33.333333333333336,-0.387,-0.527,0.76
75016,1755586237665,21.83,-34.71,-12.71,768,774,770,760,815,33.333333333333336,-0.382,-0.526,0.762
75045,1755586237695,21.8,-34.67,-12.74,769,770,775,758,817,34.48275862068966,-0.384,-0.525,0.762
75074,1755586237724,21.76,-34.67,-12.76,767,766,772,756,827,34.48275862068966,-0.388,-0.527,0.76
75104,1755586237754,21.81,-34.67,-12.72,764,767,769,755,800,33.333333333333336,-0.387,-0.526,0.76
75133,1755586237783,21.81,-34.66,-12.73,768,771,772,754,814,34.48275862068966,-0.382,-0.524,0.762
75163,1755586237813,21.78,-34.65,-12.75,768,772,770,760,817,33.333333333333336,-0.383,-0.524,0.761
75193,1755586237843,21.78,-34.63,-12.74,769,776,769,759,822,33.333333333333336,-0.386,-0.527,0.761
75222,1755586237872,21.77,-34.58,-12.71,771,769,773,755,815,34.48275862068966,-0.385,-0.526,0.761
75252,1755586237902,21.82,-34.56,-12.73,770,778,765,750,816,33.333333333333336,-0.383,-0.524,0.763
75281,1755586237931,21.75,-34.56,-12.78,771,768,769,751,815,34.48275862068966,-0.386,-0.523,0.758
75311,1755586237961,21.79,-34.6,-12.77,762,770,777,756,819,33.333333333333336,-0.39,-0.524,0.757
75341,1755586237991,21.81,-34.61,-12.74,769,772,786,760,817,33.333333333333336,-0.388,-0.526,0.763
75370,1755586238020,21.79,-34.57,-12.75,768,768,765,753,820,34.48275862068966,-0.382,-0.524,0.764
75400,1755586238050,21.77,-34.54,-12.78,766,771,769,756,821,33.333333333333336,-0.381,-0.522,0.759
75429,1755586238079,21.77,-34.58,-12.8,771,771,778,758,818,34.48275862068966,-0.384,-0.523,0.758
75459,1755586238109,21.76,-34.61,-12.79,769,774,776,754,814,33.333333333333336,-0.388,-0.526,0.762
75488,1755586238138,21.75,-34.55,-12.76,765,768,773,751,809,34.48275862068966,-0.384,-0.524,0.763
75518,1755586238168,21.82,-34.57,-12.79,763,776,769,761,817,33.333333333333336,-0.386,-0.525,0.763
75547,1755586238197,21.72,-34.55,-12.82,763,772,771,755,814,34.48275862068966,-0.388,-0.527,0.762
75577,1755586238227,21.78,-34.56,-12.8,769,774,771,754,801,33.333333333333336,-0.385,-0.523,0.761
75606,1755586238256,21.79,-34.55,-12.83,762,775,772,755,823,34.48275862068966,-0.387,-0.523,0.765
75636,1755586238286,21.75,-34.57,-12.84,770,775,768,745,820,33.333333333333336,-0.386,-0.525,0.763
75666,1755586238316,21.81,-34.56,-12.82,770,765,772,762,817,33.333333333333336,-0.385,-0.526,0.762
75696,1755586238346,21.78,-34.55,-12.83,763,772,773,759,817,33.333333333333336,-0.384,-0.525,0.763
75726,1755586238376,21.78,-34.55,-12.85,773,778,773,758,822,33.333333333333336,-0.384,-0.522,0.763
75746,1755586238396,21.78,-34.56,-12.86,771,769,770,757,809,50.0,-0.388,-0.523,0.763
75776,1755586238426,21.79,-34.58,-12.85,766,770,774,752,815,33.333333333333336,-0.39,-0.525,0.763
75805,1755586238455,21.79,-34.56,-12.84,765,767,779,759,814,34.48275862068966,-0.386,-0.526,0.762
75835,1755586238485,21.8,-34.58,-12.86,767,768,773,751,813,33.333333333333336,-0.383,-0.523,0.762
75865,1755586238515,21.76,-34.61,-12.9,769,770,772,755,813,33.333333333333336,-0.387,-0.529,0.763
75894,1755586238544,21.77,-34.63,-12.87,766,768,767,755,811,34.48275862068966,-0.387,-0.531,0.764
75924,1755586238574,21.75,-34.17,-12.85,765,774,785,754,817,33.333333333333336,-0.383,-0.529,0.763
75953,1755586238603,21.71,-34.2,-12.88,772,773,780,757,821,34.48275862068966,-0.379,-0.523,0.761
75983,1755586238632,21.69,-34.21,-12.91,767,776,779,753,820,33.333333333333336,-0.386,-0.527,0.763
76012,1755586238662,21.69,-34.27,-12.89,767,769,774,760,816,34.48275862068966,-0.384,-0.528,0.762
76042,1755586238692,21.75,-34.26,-12.87,763,777,770,751,826,33.333333333333336,-0.381,-0.527,0.763
76071,1755586238721,21.7,-34.23,-12.89,766,762,773,749,821,34.48275862068966,-0.383,-0.526,0.764
76101,1755586238751,21.7,-34.25,-12.9,768,780,768,754,817,33.333333333333336,-0.386,-0.526,0.761
76131,1755586238780,21.76,-34.29,-12.88,767,774,770,759,818,33.333333333333336,-0.387,-0.527,0.761
76160,1755586238810,21.72,-34.31,-12.87,767,781,765,759,808,34.48275862068966,-0.383,-0.526,0.76
76190,1755586238839,21.68,-34.29,-12.91,763,781,774,760,818,33.333333333333336,-0.383,-0.524,0.762
76219,1755586238869,21.7,-34.32,-12.93,768,766,771,760,814,34.48275862068966,-0.387,-0.525,0.762
76249,1755586238898,21.68,-34.29,-12.88,771,777,775,756,819,33.333333333333336,-0.388,-0.528,0.761
76278,1755586238928,21.72,-34.26,-12.85,770,768,770,756,808,34.48275862068966,-0.38,-0.525,0.763
76308,1755586238957,21.69,-34.26,-12.91,768,772,780,757,808,33.333333333333336,-0.38,-0.524,0.763
76337,1755586238987,21.65,-34.26,-12.92,764,778,770,759,820,34.48275862068966,-0.389,-0.525,0.76
76367,1755586239017,21.72,-34.29,-12.86,770,777,767,754,821,33.333333333333336,-0.386,-0.525,0.761
76397,1755586239047,21.65,-34.28,-12.88,767,772,773,757,820,33.333333333333336,-0.376,-0.521,0.763
76426,1755586239076,21.62,-34.25,-12.96,773,770,770,757,853,34.48275862068966,-0.376,-0.523,0.766
76456,1755586239106,21.63,-34.25,-12.96,765,771,770,764,813,33.333333333333336,-0.388,-0.527,0.764
76485,1755586239135,21.69,-34.26,-12.9,771,772,770,749,813,34.48275862068966,-0.39,-0.525,0.76
76515,1755586239165,21.69,-34.27,-12.89,767,770,774,757,813,33.333333333333336,-0.384,-0.523,0.76
76545,1755586239195,21.64,-34.28,-12.93,763,770,768,758,814,33.333333333333336,-0.38,-0.522,0.763
76574,1755586239224,21.64,-34.28,-12.96,767,773,766,763,820,34.48275862068966,-0.381,-0.525,0.765
76604,1755586239254,21.67,-34.25,-12.95,761,775,769,758,824,33.333333333333336,-0.384,-0.526,0.763
76633,1755586239283,21.69,-34.25,-12.95,764,774,766,752,816,34.48275862068966,-0.385,-0.525,0.762
76663,1755586239313,21.63,-34.27,-12.96,768,777,769,754,815,33.333333333333336,-0.385,-0.523,0.759
76692,1755586239342,21.66,-34.34,-12.96,765,772,761,763,816,34.48275862068966,-0.385,-0.524,0.761
76722,1755586239371,21.66,-34.37,-12.97,767,773,771,756,821,33.333333333333336,-0.383,-0.524,0.766
76751,1755586239401,21.63,-34.33,-13.0,763,773,775,752,821,34.48275862068966,-0.383,-0.526,0.762
76781,1755586239431,21.65,-34.34,-12.99,769,767,770,756,822,33.333333333333336,-0.385,-0.525,0.758
76810,1755586239460,21.67,-34.4,-12.97,768,770,768,760,814,34.48275862068966,-0.386,-0.525,0.762
76840,1755586239490,21.67,-34.4,-12.98,768,772,766,758,817,33.333333333333336,-0.38,-0.525,0.765
76870,1755586239520,21.68,-34.37,-13.0,767,772,774,757,817,33.333333333333336,-0.381,-0.528,0.765
76899,1755586239549,21.64,-34.37,-12.99,769,768,771,752,811,34.48275862068966,-0.384,-0.527,0.76
76929,1755586239579,21.68,-34.38,-12.98,762,773,771,758,819,33.333333333333336,-0.385,-0.523,0.759
76959,1755586239608,21.62,-34.39,-12.98,767,776,788,760,815,33.333333333333336,-0.383,-0.524,0.763
76988,1755586239638,21.65,-34.39,-12.98,768,777,764,759,814,34.48275862068966,-0.382,-0.527,0.766
77017,1755586239667,21.65,-34.37,-12.99,771,772,774,753,822,34.48275862068966,-0.381,-0.525,0.763
77047,1755586239697,21.66,-34.38,-12.99,768,764,773,755,812,33.333333333333336,-0.381,-0.525,0.76
77067,1755586239717,21.66,-34.42,-13.0,763,772,774,756,814,50.0,-0.384,-0.524,0.76
77096,1755586239746,21.64,-34.48,-12.94,767,773,770,750,825,34.48275862068966,-0.388,-0.526,0.762
77126,1755586239776,21.72,-34.5,-12.89,770,773,769,765,809,33.333333333333336,-0.39,-0.528,0.764
77156,1755586239805,21.72,-34.47,-12.88,769,778,769,758,821,33.333333333333336,-0.383,-0.526,0.762
77185,1755586239835,21.73,-34.5,-12.92,774,771,767,754,820,34.48275862068966,-0.384,-0.527,0.762
77214,1755586239864,21.67,-34.53,-12.94,770,774,770,749,812,34.48275862068966,-0.388,-0.528,0.763
77244,1755586239894,21.72,-34.53,-12.9,765,766,772,758,815,33.333333333333336,-0.387,-0.527,0.763
77273,1755586239923,21.76,-34.52,-12.89,760,770,772,752,818,34.48275862068966,-0.387,-0.526,0.765
77303,1755586239953,21.74,-34.51,-12.9,771,777,771,759,825,33.333333333333336,-0.385,-0.525,0.763
77332,1755586239982,21.79,-34.51,-12.91,774,772,775,755,822,34.48275862068966,-0.387,-0.525,0.762
77362,1755586240012,21.74,-34.51,-12.9,769,776,771,761,810,33.333333333333336,-0.389,-0.526,0.763
77391,1755586240041,21.73,-34.51,-12.89,773,770,779,749,819,34.48275862068966,-0.387,-0.525,0.761
77421,1755586240072,21.69,-34.53,-12.87,762,772,770,755,809,33.333333333333336,-0.381,-0.525,0.762
77441,1755586240091,21.72,-34.55,-12.88,768,766,771,753,822,50.0,-0.378,-0.523,0.765
77471,1755586240121,21.69,-34.53,-12.93,759,774,776,751,827,33.333333333333336,-0.383,-0.524,0.766
77500,1755586240150,21.73,-34.52,-12.92,772,761,773,760,818,34.48275862068966,-0.39,-0.528,0.762
77530,1755586240180,21.75,-34.54,-12.86,767,772,769,755,825,33.333333333333336,-0.386,-0.526,0.759
77559,1755586240209,21.76,-34.56,-12.87,763,771,769,756,815,34.48275862068966,-0.381,-0.524,0.764
77589,1755586240240,21.69,-34.48,-12.92,770,777,773,761,811,33.333333333333336,-0.382,-0.526,0.767
77609,1755586240259,21.7,-34.42,-12.93,764,785,777,753,816,50.0,-0.385,-0.528,0.766
77639,1755586240289,21.71,-34.31,-12.9,766,767,773,754,815,33.333333333333336,-0.383,-0.522,0.762
77668,1755586240318,21.67,-34.28,-12.96,769,764,763,755,812,34.48275862068966,-0.383,-0.52,0.759
77698,1755586240348,21.7,-34.35,-12.96,766,766,771,757,832,33.333333333333336,-0.384,-0.522,0.759
77727,1755586240377,21.89,-34.44,-12.9,770,765,768,750,809,34.48275862068966,-0.386,-0.524,0.762
77757,1755586240406,21.99,-34.4,-12.81,765,784,780,761,821,33.333333333333336,-0.388,-0.527,0.766
77786,1755586240436,21.97,-34.29,-12.8,766,767,774,756,814,34.48275862068966,-0.386,-0.525,0.763
77816,1755586240465,21.99,-34.23,-12.79,768,776,777,755,817,33.333333333333336,-0.388,-0.523,0.758
77845,1755586240496,21.98,-34.3,-12.78,771,763,770,756,826,34.48275862068966,-0.39,-0.523,0.757
77865,1755586240515,22.0,-34.34,-12.75,771,778,769,759,823,50.0,-0.391,-0.525,0.762
77895,1755586240545,21.97,-34.3,-12.71,768,775,774,763,814,33.333333333333336,-0.392,-0.525,0.765
77924,1755586240575,22.03,-34.26,-12.65,766,771,766,765,819,34.48275862068966,-0.392,-0.52,0.762
77944,1755586240595,22.08,-34.28,-12.64,763,767,767,751,813,50.0,-0.394,-0.516,0.759
77974,1755586240624,22.02,-34.3,-12.64,770,772,775,754,816,33.333333333333336,-0.391,-0.516,0.759
78004,1755586240654,22.01,-34.36,-12.67,768,776,767,747,809,33.333333333333336,-0.39,-0.519,0.759
78033,1755586240683,22.02,-34.35,-12.65,766,770,773,757,820,34.48275862068966,-0.39,-0.519,0.761
78063,1755586240714,21.98,-34.36,-12.65,766,773,777,759,814,33.333333333333336,-0.386,-0.515,0.762
78084,1755586240733,22.02,-34.38,-12.68,764,771,773,754,817,47.61904761904762,-0.386,-0.516,0.764
78113,1755586240763,21.99,-34.34,-12.7,768,766,776,754,803,34.48275862068966,-0.39,-0.52,0.764
78143,1755586240793,22.03,-34.37,-12.71,766,781,774,754,809,33.333333333333336,-0.392,-0.52,0.759
78163,1755586240813,22.07,-34.38,-12.72,768,765,771,760,819,50.0,-0.395,-0.52,0.757
78192,1755586240843,22.06,-34.42,-12.72,762,777,773,753,822,34.48275862068966,-0.394,-0.52,0.758
78212,1755586240862,22.07,-34.44,-12.73,765,774,770,752,817,50.0,-0.393,-0.522,0.76
78242,1755586240892,22.05,-34.47,-12.75,767,773,773,753,811,33.333333333333336,-0.392,-0.522,0.759
78271,1755586240922,22.02,-34.43,-12.74,769,778,774,751,815,34.48275862068966,-0.393,-0.524,0.758
78301,1755586240951,22.0,-34.45,-12.73,773,765,767,754,815,33.333333333333336,-0.392,-0.522,0.758
78331,1755586240981,21.99,-34.46,-12.74,765,770,770,758,814,33.333333333333336,-0.391,-0.522,0.761
78361,1755586241011,21.94,-34.45,-12.74,766,770,767,756,810,33.333333333333336,-0.39,-0.523,0.759
78391,1755586241040,21.92,-34.49,-12.76,766,769,772,758,818,33.333333333333336,-0.391,-0.521,0.757
78420,1755586241070,21.93,-34.5,-12.76,771,770,774,757,822,34.48275862068966,-0.393,-0.524,0.759
78450,1755586241100,21.95,-34.52,-12.74,766,771,768,756,812,33.333333333333336,-0.389,-0.521,0.76
78479,1755586241129,21.97,-34.54,-12.75,765,778,770,759,801,34.48275862068966,-0.384,-0.52,0.76
78509,1755586241158,21.94,-34.54,-12.79,762,769,772,756,812,33.333333333333336,-0.386,-0.524,0.762
78538,1755586241188,21.93,-34.54,-12.79,761,776,773,753,819,34.48275862068966,-0.391,-0.525,0.759
78568,1755586241218,21.99,-34.56,-12.77,775,773,769,755,814,33.333333333333336,-0.392,-0.523,0.76
78597,1755586241247,21.94,-34.53,-12.77,764,771,779,751,810,34.48275862068966,-0.39,-0.521,0.761
78627,1755586241277,21.93,-34.54,-12.79,764,773,770,759,816,33.333333333333336,-0.388,-0.522,0.76
78657,1755586241306,21.94,-34.59,-12.81,770,766,771,754,811,33.333333333333336,-0.388,-0.523,0.761
78686,1755586241336,21.99,-34.59,-12.8,765,772,770,761,821,34.48275862068966,-0.389,-0.524,0.762
78715,1755586241366,21.98,-34.59,-12.82,768,765,766,755,814,34.48275862068966,-0.388,-0.523,0.759
78745,1755586241395,21.98,-34.59,-12.84,771,767,771,755,816,33.333333333333336,-0.39,-0.525,0.759
78775,1755586241425,21.97,-34.6,-12.82,764,773,770,755,820,33.333333333333336,-0.389,-0.525,0.76
78804,1755586241454,22.01,-34.58,-12.82,765,765,776,756,816,34.48275862068966,-0.389,-0.524,0.762
78834,1755586241484,21.97,-34.54,-12.84,771,771,770,760,816,33.333333333333336,-0.39,-0.525,0.76
78863,1755586241513,21.98,-34.56,-12.84,763,770,772,757,820,34.48275862068966,-0.392,-0.525,0.756
78893,1755586241543,21.98,-34.6,-12.84,776,773,789,756,817,33.333333333333336,-0.391,-0.524,0.759
78923,1755586241572,21.96,-34.58,-12.86,765,772,776,762,822,33.333333333333336,-0.387,-0.523,0.763
78952,1755586241602,21.95,-34.56,-12.89,768,763,770,759,821,34.48275862068966,-0.387,-0.524,0.762
78982,1755586241632,21.97,-34.58,-12.9,770,773,777,751,813,33.333333333333336,-0.392,-0.524,0.757
79011,1755586241661,21.96,-34.62,-12.88,763,768,768,762,817,34.48275862068966,-0.396,-0.527,0.758
79041,1755586241691,22.01,-34.61,-12.84,768,770,769,757,811,33.333333333333336,-0.39,-0.526,0.762
79070,1755586241720,22.0,-34.58,-12.87,766,774,777,744,810,34.48275862068966,-0.385,-0.524,0.761
79100,1755586241750,21.92,-34.56,-12.9,772,767,786,752,814,33.333333333333336,-0.386,-0.525,0.759
79130,1755586241780,21.91,-34.6,-12.9,768,774,767,750,815,33.333333333333336,-0.387,-0.524,0.759
79160,1755586241810,21.95,-34.6,-12.91,768,771,779,755,819,33.333333333333336,-0.393,-0.527,0.763
79189,1755586241839,21.9,-34.55,-12.9,773,774,766,756,819,34.48275862068966,-0.391,-0.527,0.76
79219,1755586241869,21.95,-34.54,-12.89,772,770,772,758,819,33.333333333333336,-0.387,-0.524,0.757
79249,1755586241899,21.92,-34.58,-12.91,766,773,773,757,814,33.333333333333336,-0.391,-0.525,0.76
79278,1755586241928,21.92,-34.61,-12.89,758,772,770,757,811,34.48275862068966,-0.391,-0.525,0.761
79308,1755586241957,22.0,-34.58,-12.87,767,774,782,757,806,33.333333333333336,-0.388,-0.524,0.763
79337,1755586241987,21.96,-34.55,-12.92,766,773,770,754,821,34.48275862068966,-0.388,-0.522,0.76
79367,1755586242016,21.98,-34.6,-12.94,771,774,772,754,818,33.333333333333336,-0.39,-0.523,0.755
79396,1755586242046,21.99,-34.63,-12.92,761,781,773,759,813,34.48275862068966,-0.392,-0.527,0.757
79425,1755586242075,22.0,-34.6,-12.89,763,768,761,756,822,34.48275862068966,-0.387,-0.526,0.761
79455,1755586242105,21.99,-34.53,-12.93,765,769,768,753,810,33.333333333333336,-0.383,-0.525,0.762
79485,1755586242135,21.99,-34.54,-12.94,773,776,772,751,819,33.333333333333336,-0.388,-0.525,0.757
79514,1755586242164,22.04,-34.58,-12.92,770,777,771,756,820,34.48275862068966,-0.39,-0.524,0.758
79544,1755586242194,21.98,-34.54,-12.93,765,772,768,757,819,33.333333333333336,-0.387,-0.523,0.761
79573,1755586242223,21.97,-34.5,-12.94,769,767,777,770,820,34.48275862068966,-0.386,-0.522,0.76
79603,1755586242253,22.01,-34.54,-12.97,764,771,775,746,815,33.333333333333336,-0.39,-0.525,0.757
79632,1755586242282,21.96,-34.58,-12.95,767,765,767,754,809,34.48275862068966,-0.389,-0.526,0.755
79662,1755586242312,22.01,-34.58,-12.92,769,773,765,744,814,33.333333333333336,-0.385,-0.522,0.76
79691,1755586242342,22.02,-34.59,-12.96,765,774,772,759,809,34.48275862068966,-0.388,-0.524,0.763
79721,1755586242371,22.01,-34.6,-12.95,768,767,767,756,821,33.333333333333336,-0.392,-0.528,0.756
79751,1755586242401,22.06,-34.65,-12.91,765,766,767,755,813,33.333333333333336,-0.391,-0.524,0.754
79780,1755586242430,21.99,-34.64,-12.94,769,771,774,752,808,34.48275862068966,-0.389,-0.522,0.761
79810,1755586242460,22.0,-34.64,-12.95,763,776,767,756,814,33.333333333333336,-0.389,-0.527,0.762
79840,1755586242489,22.04,-34.64,-12.91,770,777,763,757,826,33.333333333333336,-0.387,-0.526,0.757
79869,1755586242519,22.04,-34.67,-12.94,759,773,772,760,821,34.48275862068966,-0.386,-0.524,0.757
79898,1755586242549,21.97,-34.66,-12.97,768,776,770,756,817,34.48275862068966,-0.391,-0.526,0.758
79928,1755586242579,21.97,-34.66,-12.94,763,775,774,756,820,33.333333333333336,-0.392,-0.528,0.757
79958,1755586242609,22.01,-34.68,-12.91,764,764,776,753,813,33.333333333333336,-0.387,-0.526,0.758
79988,1755586242638,21.99,-34.69,-12.95,770,772,766,759,813,33.333333333333336,-0.384,-0.525,0.76
80018,1755586242668,21.96,-34.67,-12.98,768,767,773,758,811,33.333333333333336,-0.388,-0.526,0.758
80047,1755586242697,22.0,-34.69,-12.94,766,776,773,757,814,34.48275862068966,-0.394,-0.529,0.762
80076,1755586242726,22.01,-34.69,-12.9,770,768,765,749,815,34.48275862068966,-0.389,-0.525,0.762
80106,1755586242756,22.0,-34.7,-12.93,766,773,760,762,810,33.333333333333336,-0.386,-0.525,0.763
80135,1755586242786,21.94,-34.69,-12.93,769,772,771,754,814,34.48275862068966,-0.386,-0.527,0.762
80156,1755586242805,21.97,-34.7,-12.92,762,771,765,759,818,47.61904761904762,-0.388,-0.526,0.76
80185,1755586242835,21.96,-34.68,-12.92,768,761,772,756,817,34.48275862068966,-0.39,-0.526,0.759
80215,1755586242864,21.95,-34.68,-12.91,767,772,771,758,819,33.333333333333336,-0.387,-0.526,0.759
80244,1755586242894,21.96,-34.72,-12.93,769,775,766,757,817,34.48275862068966,-0.386,-0.525,0.759
80274,1755586242924,21.95,-34.74,-12.92,767,774,773,747,820,33.333333333333336,-0.389,-0.527,0.759
80304,1755586242954,21.98,-34.73,-12.91,772,774,774,756,816,33.333333333333336,-0.388,-0.525,0.76
80333,1755586242984,21.99,-34.7,-12.93,770,771,767,747,817,34.48275862068966,-0.391,-0.524,0.76
80363,1755586243013,21.96,-34.71,-12.94,770,771,773,750,824,33.333333333333336,-0.392,-0.527,0.756
80393,1755586243043,21.99,-34.77,-12.92,765,776,769,757,811,33.333333333333336,-0.388,-0.528,0.756
80422,1755586243072,21.99,-34.75,-12.93,764,775,774,751,815,34.48275862068966,-0.385,-0.526,0.761
80452,1755586243101,21.94,-34.71,-12.96,767,777,775,758,815,33.333333333333336,-0.388,-0.527,0.762
80481,1755586243131,21.99,-34.68,-12.93,768,772,765,758,813,34.48275862068966,-0.389,-0.527,0.757
80511,1755586243161,22.04,-34.71,-12.9,765,764,770,756,819,33.333333333333336,-0.387,-0.523,0.758
80541,1755586243190,21.97,-34.72,-12.95,767,773,773,758,822,33.333333333333336,-0.388,-0.522,0.759
80570,1755586243220,21.99,-34.73,-12.95,762,772,773,761,817,34.48275862068966,-0.392,-0.527,0.758
80600,1755586243250,22.01,-34.73,-12.92,766,768,767,758,806,33.333333333333336,-0.391,-0.527,0.756
80630,1755586243280,22.0,-34.74,-12.93,770,769,774,753,814,33.333333333333336,-0.387,-0.524,0.758
80659,1755586243309,21.97,-34.72,-12.95,769,762,778,758,808,34.48275862068966,-0.386,-0.528,0.76
80689,1755586243338,22.01,-34.72,-12.94,763,769,778,760,813,33.333333333333336,-0.386,-0.528,0.759
80718,1755586243368,22.01,-34.71,-12.96,766,775,767,757,818,34.48275862068966,-0.389,-0.524,0.757
80748,1755586243397,22.01,-34.68,-12.97,770,769,768,762,819,33.333333333333336,-0.393,-0.528,0.758
80777,1755586243427,22.04,-34.68,-12.92,768,772,774,757,821,34.48275862068966,-0.389,-0.528,0.758
80807,1755586243456,22.04,-34.66,-12.93,768,770,769,756,818,33.333333333333336,-0.385,-0.524,0.758
80836,1755586243486,21.99,-34.66,-12.99,763,774,769,753,815,34.48275862068966,-0.388,-0.523,0.758
80866,1755586243516,22.02,-34.66,-12.96,762,773,769,754,817,33.333333333333336,-0.395,-0.529,0.758
80895,1755586243545,22.03,-34.66,-12.9,771,776,778,749,816,34.48275862068966,-0.389,-0.526,0.758
80925,1755586243575,22.03,-34.66,-12.96,768,780,773,751,807,33.333333333333336,-0.388,-0.524,0.76
80955,1755586243605,21.99,-34.66,-12.98,768,772,783,757,807,33.333333333333336,-0.395,-0.529,0.758
80985,1755586243635,22.1,-34.71,-12.91,768,767,772,754,814,33.333333333333336,-0.394,-0.528,0.757
81014,1755586243664,22.1,-34.7,-12.91,769,778,770,757,819,34.48275862068966,-0.39,-0.524,0.76
81044,1755586243694,22.03,-34.67,-12.97,767,771,765,761,815,33.333333333333336,-0.39,-0.525,0.759
81073,1755586243723,22.08,-34.68,-12.95,766,774,771,753,818,34.48275862068966,-0.391,-0.527,0.758
81103,1755586243753,22.14,-34.73,-12.96,763,771,772,751,813,33.333333333333336,-0.39,-0.525,0.76
81133,1755586243782,22.07,-34.7,-12.97,763,773,771,758,807,33.333333333333336,-0.392,-0.527,0.76
81162,1755586243812,22.13,-34.68,-12.95,768,773,764,761,816,34.48275862068966,-0.394,-0.528,0.759
81192,1755586243842,22.1,-34.67,-12.95,769,768,769,758,821,33.333333333333336,-0.39,-0.524,0.758
81221,1755586243871,22.06,-34.65,-12.97,768,769,770,758,813,34.48275862068966,-0.388,-0.523,0.759
81251,1755586243901,22.08,-34.69,-12.97,775,762,771,752,816,33.333333333333336,-0.389,-0.525,0.759
81280,1755586243930,22.11,-34.7,-12.97,768,771,773,754,838,34.48275862068966,-0.39,-0.526,0.76
81310,1755586243960,22.04,-34.66,-13.03,766,776,775,757,818,33.333333333333336,-0.388,-0.524,0.758
81339,1755586243990,22.0,-34.69,-13.09,769,769,770,752,827,34.48275862068966,-0.392,-0.529,0.759
81369,1755586244019,22.04,-34.68,-13.06,767,776,773,751,815,33.333333333333336,-0.395,-0.529,0.762
81399,1755586244049,22.07,-34.66,-13.05,764,770,776,752,818,33.333333333333336,-0.394,-0.529,0.762
81428,1755586244078,21.99,-34.66,-13.05,767,776,775,752,817,34.48275862068966,-0.39,-0.528,0.757
81458,1755586244108,21.98,-34.69,-13.06,759,773,772,763,817,33.333333333333336,-0.388,-0.527,0.759
81488,1755586244138,22.02,-34.72,-13.05,767,764,766,754,846,33.333333333333336,-0.391,-0.529,0.763
81517,1755586244167,22.02,-34.69,-13.04,769,772,760,764,807,34.48275862068966,-0.393,-0.528,0.761
81546,1755586244197,22.02,-34.66,-13.02,767,776,772,754,823,34.48275862068966,-0.389,-0.526,0.76
81576,1755586244226,22.04,-34.69,-13.03,773,772,778,749,815,33.333333333333336,-0.388,-0.525,0.761
81596,1755586244246,22.02,-34.7,-13.04,761,777,776,759,812,50.0,-0.39,-0.525,0.759
81625,1755586244275,22.09,-34.72,-13.02,767,771,771,754,822,34.48275862068966,-0.392,-0.527,0.762
81655,1755586244305,22.09,-34.68,-12.99,761,761,771,754,824,33.333333333333336,-0.389,-0.526,0.761
81684,1755586244335,22.16,-34.66,-13.0,772,775,776,756,814,34.48275862068966,-0.386,-0.523,0.76
81714,1755586244364,22.14,-34.68,-13.04,765,772,771,760,814,33.333333333333336,-0.389,-0.524,0.756
81744,1755586244394,22.26,-34.75,-13.01,771,774,776,753,820,33.333333333333336,-0.395,-0.525,0.755
81773,1755586244423,22.26,-34.78,-13.01,771,773,772,756,824,34.48275862068966,-0.39,-0.525,0.759
81803,1755586244453,22.22,-34.74,-13.05,760,765,776,753,815,33.333333333333336,-0.385,-0.524,0.759
81833,1755586244482,22.26,-34.77,-13.07,763,777,772,759,835,33.333333333333336,-0.388,-0.525,0.759
81862,1755586244512,22.25,-34.78,-13.07,769,771,771,757,816,34.48275862068966,-0.388,-0.526,0.759
81892,1755586244542,22.29,-34.75,-13.09,766,778,779,751,826,33.333333333333336,-0.39,-0.525,0.759
81921,1755586244572,22.2,-34.76,-13.13,763,768,777,756,811,34.48275862068966,-0.39,-0.526,0.754
81951,1755586244601,22.23,-34.8,-13.12,769,772,778,757,815,33.333333333333336,-0.39,-0.526,0.754
81981,1755586244631,22.25,-34.85,-13.12,769,772,771,762,819,33.333333333333336,-0.39,-0.526,0.757
82010,1755586244660,22.22,-34.83,-13.17,767,770,780,757,812,34.48275862068966,-0.392,-0.525,0.756
82040,1755586244690,22.2,-34.82,-13.17,770,766,770,753,819,33.333333333333336,-0.396,-0.529,0.753
82070,1755586244720,22.22,-34.84,-13.13,762,769,765,752,821,33.333333333333336,-0.394,-0.529,0.752
82099,1755586244749,22.2,-34.85,-13.15,766,766,773,759,812,34.48275862068966,-0.389,-0.528,0.755
82129,1755586244779,22.19,-34.82,-13.16,765,776,769,755,820,33.333333333333336,-0.396,-0.53,0.756
82158,1755586244808,22.16,-34.79,-13.15,766,770,768,761,817,34.48275862068966,-0.399,-0.53,0.751
82188,1755586244838,22.21,-34.82,-13.11,763,772,772,760,812,33.333333333333336,-0.394,-0.528,0.752
82218,1755586244868,22.15,-34.83,-13.11,759,779,772,755,811,33.333333333333336,-0.388,-0.528,0.755
82247,1755586244897,22.11,-34.8,-13.13,775,773,769,752,827,34.48275862068966,-0.388,-0.526,0.756
82277,1755586244927,22.14,-34.83,-13.14,767,776,763,761,820,33.333333333333336,-0.394,-0.525,0.756
82306,1755586244956,22.11,-34.83,-13.11,771,768,769,757,827,34.48275862068966,-0.397,-0.528,0.754
82336,1755586244986,22.16,-34.9,-13.08,764,774,762,754,819,33.333333333333336,-0.391,-0.527,0.754
82365,1755586245015,22.1,-34.9,-13.11,778,765,772,762,822,34.48275862068966,-0.388,-0.527,0.757
