timestamp_ms,recv_timestamp_ms,pitch,roll,yaw,flex1,flex2,flex3,flex4,flex5,sampling_hz,accel_x,accel_y,accel_z
34114,1755585422263,11.08,-65.05,-38.02,803,781,779,799,833,34.48275862068966,-0.193,-0.876,0.413
34144,1755585422293,11.14,-65.16,-38.04,800,775,765,794,831,33.333333333333336,-0.195,-0.886,0.416
34173,1755585422322,10.96,-65.12,-38.18,796,771,773,800,834,34.48275862068966,-0.191,-0.884,0.42
34203,1755585422352,10.85,-65.07,-38.18,803,773,764,808,824,33.333333333333336,-0.19,-0.882,0.422
34233,1755585422382,11.01,-65.0,-38.13,792,767,779,803,833,33.333333333333336,-0.187,-0.891,0.422
34262,1755585422412,10.96,-64.92,-38.14,797,774,768,802,828,34.48275862068966,-0.184,-0.883,0.417
34283,1755585422432,10.96,-65.01,-38.1,801,772,771,797,817,47.61904761904762,-0.184,-0.882,0.415
34312,1755585422461,11.09,-64.99,-37.99,793,768,765,795,821,34.48275862068966,-0.182,-0.884,0.418
34342,1755585422491,11.13,-65.06,-37.95,803,768,776,800,834,33.333333333333336,-0.175,-0.88,0.416
34371,1755585422520,11.13,-65.18,-37.96,793,774,777,804,831,34.48275862068966,-0.178,-0.889,0.419
34401,1755585422550,11.16,-65.0,-37.92,796,775,764,794,824,33.333333333333336,-0.179,-0.886,0.419
34431,1755585422580,11.27,-65.03,-37.86,803,772,777,804,825,33.333333333333336,-0.177,-0.884,0.419
34460,1755585422609,11.32,-64.89,-37.86,798,774,771,795,819,34.48275862068966,-0.183,-0.89,0.421
34490,1755585422639,11.31,-64.78,-37.84,795,772,774,800,828,33.333333333333336,-0.185,-0.888,0.416
34519,1755585422668,11.42,-64.82,-37.71,803,774,772,813,820,34.48275862068966,-0.185,-0.886,0.416
34549,1755585422698,11.47,-64.71,-37.76,794,778,767,804,829,33.333333333333336,-0.187,-0.891,0.421
34578,1755585422727,11.41,-64.64,-37.75,794,775,767,804,824,34.48275862068966,-0.186,-0.883,0.417
34608,1755585422757,11.49,-64.68,-37.68,796,769,771,800,825,33.333333333333336,-0.187,-0.885,0.417
34637,1755585422786,11.41,-64.67,-37.74,798,771,775,807,826,34.48275862068966,-0.188,-0.882,0.418
34667,1755585422816,11.39,-64.69,-37.71,796,778,782,806,819,33.333333333333336,-0.186,-0.883,0.419
34687,1755585422836,11.5,-64.75,-37.63,801,770,771,808,833,50.0,-0.188,-0.885,0.422
34716,1755585422865,11.67,-64.85,-37.52,796,770,781,799,826,34.48275862068966,-0.186,-0.884,0.423
34746,1755585422895,11.68,-64.92,-37.57,799,775,768,802,822,33.333333333333336,-0.188,-0.887,0.422
34766,1755585422915,11.65,-64.89,-37.6,797,778,776,805,823,50.0,-0.191,-0.886,0.418
34795,1755585422945,11.72,-64.87,-37.6,794,771,773,801,826,34.48275862068966,-0.197,-0.887,0.415
34825,1755585422974,11.73,-64.8,-37.57,795,771,772,802,833,33.333333333333336,-0.198,-0.888,0.415
34855,1755585423004,11.64,-64.86,-37.62,797,774,774,797,825,33.333333333333336,-0.199,-0.888,0.415
34884,1755585423033,11.65,-64.76,-37.61,808,770,772,806,829,34.48275862068966,-0.199,-0.888,0.418
34914,1755585423063,11.66,-64.69,-37.63,796,767,781,798,834,33.333333333333336,-0.195,-0.885,0.42
34944,1755585423092,11.6,-64.65,-37.7,793,777,769,800,831,33.333333333333336,-0.193,-0.886,0.418
34973,1755585423122,11.48,-64.66,-37.81,795,777,771,806,822,34.48275862068966,-0.192,-0.884,0.415
35003,1755585423152,11.42,-64.59,-37.85,796,770,776,804,829,33.333333333333336,-0.193,-0.883,0.417
35023,1755585423172,11.41,-64.64,-37.87,796,771,767,802,825,50.0,-0.191,-0.882,0.415
35052,1755585423201,11.36,-64.76,-37.95,794,773,767,805,819,34.48275862068966,-0.196,-0.885,0.423
35082,1755585423232,11.35,-64.62,-37.88,798,778,771,803,824,33.333333333333336,-0.192,-0.883,0.423
35102,1755585423251,11.39,-64.64,-37.86,801,767,779,804,818,50.0,-0.189,-0.885,0.42
35132,1755585423281,11.35,-64.67,-37.89,793,769,768,806,830,33.333333333333336,-0.189,-0.882,0.418
35161,1755585423310,11.38,-64.64,-37.87,789,776,772,805,830,34.48275862068966,-0.191,-0.885,0.419
35191,1755585423340,11.42,-64.6,-37.82,798,768,772,803,831,33.333333333333336,-0.194,-0.887,0.42
35220,1755585423369,11.54,-64.69,-37.67,798,785,776,806,824,34.48275862068966,-0.191,-0.884,0.421
35250,1755585423399,11.65,-64.76,-37.56,802,777,775,801,830,33.333333333333336,-0.19,-0.886,0.424
35280,1755585423429,11.59,-64.61,-37.55,793,769,770,805,827,33.333333333333336,-0.19,-0.882,0.42
35309,1755585423458,11.63,-64.62,-37.46,795,771,779,806,827,34.48275862068966,-0.192,-0.884,0.416
35339,1755585423487,11.77,-64.64,-37.37,796,764,773,803,831,33.333333333333336,-0.193,-0.885,0.421
35368,1755585423517,11.71,-64.53,-37.41,788,775,769,795,838,34.48275862068966,-0.193,-0.884,0.425
35398,1755585423547,11.64,-64.43,-37.46,795,771,773,803,860,33.333333333333336,-0.195,-0.882,0.42
35427,1755585423577,11.68,-64.46,-37.41,807,769,777,796,826,34.48275862068966,-0.197,-0.881,0.416
35457,1755585423606,11.75,-64.54,-37.37,805,776,774,797,826,33.333333333333336,-0.198,-0.881,0.419
35487,1755585423637,11.71,-64.5,-37.4,793,763,775,799,829,33.333333333333336,-0.198,-0.884,0.424
35517,1755585423666,11.72,-64.5,-37.42,800,778,779,794,835,33.333333333333336,-0.193,-0.883,0.418
35546,1755585423695,11.74,-64.5,-37.39,799,771,766,805,829,34.48275862068966,-0.198,-0.884,0.419
35576,1755585423725,11.76,-64.5,-37.41,798,772,769,798,823,33.333333333333336,-0.199,-0.881,0.418
35605,1755585423754,11.81,-64.5,-37.38,799,774,777,804,823,34.48275862068966,-0.199,-0.88,0.419
35635,1755585423784,11.84,-64.49,-37.38,792,765,774,795,829,33.333333333333336,-0.201,-0.88,0.422
35664,1755585423813,11.83,-64.49,-37.41,799,772,772,801,832,34.48275862068966,-0.197,-0.881,0.42
35694,1755585423843,11.85,-64.51,-37.41,794,762,769,795,833,33.333333333333336,-0.2,-0.88,0.417
35723,1755585423872,11.93,-64.56,-37.34,794,774,769,806,832,34.48275862068966,-0.201,-0.882,0.419
35753,1755585423902,12.0,-64.47,-37.3,798,780,771,793,821,33.333333333333336,-0.201,-0.882,0.423
35783,1755585423931,11.99,-64.39,-37.32,797,776,770,800,837,33.333333333333336,-0.199,-0.879,0.42
35812,1755585423961,12.04,-64.47,-37.32,802,779,767,802,828,34.48275862068966,-0.202,-0.879,0.42
35842,1755585423991,12.12,-64.46,-37.3,797,781,775,806,826,33.333333333333336,-0.2,-0.881,0.419
35871,1755585424020,12.05,-64.4,-37.39,792,777,775,808,829,34.48275862068966,-0.202,-0.879,0.42
35901,1755585424050,12.07,-64.36,-37.37,795,770,767,800,821,33.333333333333336,-0.203,-0.88,0.419
35931,1755585424080,12.14,-64.29,-37.32,787,780,774,799,829,33.333333333333336,-0.206,-0.884,0.421
35960,1755585424110,12.12,-64.24,-37.32,796,766,775,806,822,34.48275862068966,-0.205,-0.881,0.417
35990,1755585424139,12.15,-64.35,-37.34,796,773,769,800,822,33.333333333333336,-0.205,-0.879,0.418
36020,1755585424169,12.21,-64.17,-37.32,793,773,771,818,825,33.333333333333336,-0.207,-0.882,0.424
36040,1755585424189,12.24,-63.98,-37.29,796,775,771,799,830,50.0,-0.207,-0.884,0.428
36070,1755585424219,12.21,-63.81,-37.29,807,784,772,805,827,33.333333333333336,-0.202,-0.879,0.426
36100,1755585424248,12.22,-63.8,-37.29,795,776,768,805,826,33.333333333333336,-0.205,-0.878,0.426
36129,1755585424278,12.2,-63.64,-37.29,799,770,771,803,824,34.48275862068966,-0.209,-0.878,0.427
36159,1755585424307,12.17,-63.41,-37.26,792,771,770,812,825,33.333333333333336,-0.207,-0.875,0.428
36188,1755585424337,12.17,-63.39,-37.3,801,780,771,802,819,34.48275862068966,-0.208,-0.876,0.43
36217,1755585424366,12.19,-63.32,-37.27,790,789,769,802,839,34.48275862068966,-0.209,-0.873,0.434
36247,1755585424396,12.28,-63.27,-37.19,789,775,789,792,823,33.333333333333336,-0.205,-0.871,0.433
36276,1755585424425,12.31,-63.28,-37.21,801,769,774,808,834,34.48275862068966,-0.207,-0.871,0.433
36306,1755585424455,12.3,-63.21,-37.19,793,768,774,804,831,33.333333333333336,-0.206,-0.871,0.43
36336,1755585424485,12.36,-63.31,-37.12,795,773,769,798,832,33.333333333333336,-0.204,-0.871,0.431
36365,1755585424514,12.36,-63.31,-37.14,798,772,777,809,816,34.48275862068966,-0.206,-0.873,0.439
36395,1755585424544,12.28,-63.3,-37.17,796,776,766,799,827,33.333333333333336,-0.201,-0.867,0.435
36424,1755585424573,12.33,-63.45,-37.22,797,770,777,807,830,34.48275862068966,-0.202,-0.871,0.436
36454,1755585424603,12.32,-63.27,-37.27,799,770,761,801,826,33.333333333333336,-0.211,-0.872,0.435
36483,1755585424633,12.34,-63.22,-37.26,804,774,773,804,822,34.48275862068966,-0.211,-0.869,0.431
36513,1755585424662,12.38,-63.29,-37.26,795,773,776,797,823,33.333333333333336,-0.209,-0.87,0.435
36543,1755585424692,12.31,-63.35,-37.32,798,776,775,805,824,33.333333333333336,-0.208,-0.869,0.438
36572,1755585424721,12.33,-63.3,-37.32,797,790,766,797,834,34.48275862068966,-0.212,-0.873,0.439
36602,1755585424751,12.33,-63.27,-37.28,793,773,772,795,829,33.333333333333336,-0.214,-0.875,0.436
36631,1755585424780,12.35,-63.36,-37.23,799,765,765,807,832,34.48275862068966,-0.212,-0.874,0.435
36661,1755585424810,12.34,-63.32,-37.17,797,772,765,798,828,33.333333333333336,-0.208,-0.872,0.44
36691,1755585424840,12.32,-63.21,-37.15,797,766,769,787,822,33.333333333333336,-0.205,-0.869,0.439
36720,1755585424869,12.29,-63.22,-36.7,797,769,776,800,830,34.48275862068966,-0.206,-0.868,0.437
36750,1755585424899,12.33,-63.28,-36.66,790,764,763,802,820,33.333333333333336,-0.209,-0.87,0.437
36779,1755585424928,12.37,-63.32,-36.63,803,785,770,798,828,34.48275862068966,-0.212,-0.871,0.44
36809,1755585424958,12.38,-63.35,-36.6,796,779,773,799,830,33.333333333333336,-0.212,-0.867,0.439
36838,1755585424987,12.43,-63.35,-36.58,798,779,777,793,825,34.48275862068966,-0.214,-0.869,0.438
36868,1755585425017,12.45,-63.36,-36.57,788,777,777,793,823,33.333333333333336,-0.214,-0.869,0.44
36898,1755585425046,12.51,-63.33,-36.53,798,773,762,803,821,33.333333333333336,-0.213,-0.871,0.443
36927,1755585425076,12.51,-63.2,-36.5,794,768,771,806,828,34.48275862068966,-0.214,-0.874,0.443
36957,1755585425106,12.49,-63.22,-36.59,796,769,767,797,817,33.333333333333336,-0.212,-0.869,0.438
36986,1755585425135,12.51,-63.31,-36.65,793,776,763,797,818,34.48275862068966,-0.212,-0.865,0.435
37016,1755585425165,12.57,-63.4,-36.67,804,771,780,793,821,33.333333333333336,-0.217,-0.869,0.435
37045,1755585425194,12.56,-63.37,-36.67,795,779,769,797,826,34.48275862068966,-0.214,-0.87,0.437
37075,1755585425224,12.59,-63.45,-36.66,800,774,766,796,833,33.333333333333336,-0.213,-0.871,0.44
37104,1755585425254,12.69,-63.36,-36.61,800,776,773,795,828,34.48275862068966,-0.214,-0.874,0.438
37134,1755585425283,12.6,-63.33,-36.68,794,769,772,796,819,33.333333333333336,-0.216,-0.871,0.429
37164,1755585425312,12.61,-63.46,-36.6,801,775,768,797,831,33.333333333333336,-0.218,-0.871,0.428
37193,1755585425342,12.57,-63.36,-36.6,806,781,768,803,825,34.48275862068966,-0.217,-0.875,0.435
37223,1755585425372,12.47,-63.3,-36.63,794,774,772,802,829,33.333333333333336,-0.214,-0.872,0.438
37252,1755585425401,12.57,-63.27,-36.57,798,769,770,797,823,34.48275862068966,-0.213,-0.875,0.442
37282,1755585425431,12.58,-63.2,-36.59,798,770,771,807,821,33.333333333333336,-0.214,-0.875,0.441
37311,1755585425461,12.55,-63.18,-36.61,799,773,769,799,832,34.48275862068966,-0.214,-0.869,0.436
37341,1755585425490,12.55,-63.2,-36.63,791,779,777,796,842,33.333333333333336,-0.214,-0.867,0.433
37371,1755585425519,12.54,-63.21,-36.65,798,766,770,793,823,33.333333333333336,-0.215,-0.869,0.434
37400,1755585425549,12.55,-63.24,-36.62,793,765,768,801,823,34.48275862068966,-0.213,-0.868,0.438
37430,1755585425579,12.62,-63.27,-36.62,792,773,769,790,821,33.333333333333336,-0.215,-0.872,0.44
37459,1755585425608,12.57,-63.23,-36.67,797,764,773,798,858,34.48275862068966,-0.218,-0.87,0.437
37489,1755585425638,12.64,-63.28,-36.65,796,775,785,805,827,33.333333333333336,-0.219,-0.866,0.433
37519,1755585425668,12.67,-63.32,-36.64,796,774,768,798,824,33.333333333333336,-0.219,-0.868,0.434
37548,1755585425698,12.63,-63.34,-36.68,800,772,776,800,819,34.48275862068966,-0.218,-0.87,0.435
37568,1755585425717,12.62,-63.36,-36.37,797,769,771,803,823,50.0,-0.219,-0.872,0.435
37598,1755585425747,12.69,-63.44,-36.33,796,772,773,796,825,33.333333333333336,-0.218,-0.872,0.435
37628,1755585425777,12.73,-63.43,-36.28,790,779,771,805,830,33.333333333333336,-0.219,-0.871,0.434
37657,1755585425806,12.7,-63.43,-36.28,799,772,766,806,829,34.48275862068966,-0.217,-0.871,0.432
37687,1755585425836,12.72,-63.46,-36.28,795,772,765,796,829,33.333333333333336,-0.216,-0.873,0.432
37716,1755585425865,12.69,-63.44,-36.3,799,766,775,802,825,34.48275862068966,-0.219,-0.875,0.433
37746,1755585425895,12.68,-63.44,-36.29,796,774,777,801,832,33.333333333333336,-0.217,-0.872,0.434
37775,1755585425925,12.72,-63.48,-36.28,795,776,780,799,835,34.48275862068966,-0.214,-0.869,0.437
37805,1755585425954,12.68,-63.48,-36.32,795,777,771,800,824,33.333333333333336,-0.214,-0.871,0.436
37834,1755585425983,12.63,-63.55,-36.41,801,772,762,804,817,34.48275862068966,-0.215,-0.872,0.432
37864,1755585426013,12.61,-63.76,-36.47,798,773,772,801,831,33.333333333333336,-0.216,-0.871,0.429
37893,1755585426042,12.66,-63.78,-36.43,791,776,763,800,833,34.48275862068966,-0.218,-0.875,0.434
37923,1755585426072,12.64,-63.68,-36.42,800,774,771,799,834,33.333333333333336,-0.215,-0.875,0.437
37943,1755585426092,12.65,-63.62,-36.4,790,771,767,811,817,50.0,-0.212,-0.875,0.437
37972,1755585426121,12.74,-63.6,-36.35,800,778,773,804,837,34.48275862068966,-0.214,-0.874,0.434
38002,1755585426151,12.78,-63.53,-36.32,800,778,771,801,823,33.333333333333336,-0.216,-0.872,0.429
38031,1755585426181,12.75,-63.54,-36.31,799,763,773,796,829,34.48275862068966,-0.218,-0.87,0.425
38061,1755585426211,12.78,-63.62,-36.28,791,774,769,796,826,33.333333333333336,-0.218,-0.872,0.427
38091,1755585426240,12.78,-63.61,-36.27,796,774,760,816,830,33.333333333333336,-0.215,-0.871,0.434
38121,1755585426270,12.84,-63.53,-36.25,794,780,772,794,823,33.333333333333336,-0.214,-0.872,0.437
38150,1755585426299,12.81,-63.44,-36.29,793,770,776,794,826,34.48275862068966,-0.218,-0.872,0.433
38180,1755585426329,12.83,-63.54,-36.3,800,772,763,794,819,33.333333333333336,-0.22,-0.872,0.423
38210,1755585426359,12.83,-63.64,-36.27,802,777,767,809,839,33.333333333333336,-0.222,-0.871,0.424
38239,1755585426388,12.81,-63.72,-36.34,796,769,772,799,814,34.48275862068966,-0.221,-0.872,0.429
38269,1755585426418,12.77,-63.6,-36.36,797,779,769,810,827,33.333333333333336,-0.219,-0.873,0.431
38298,1755585426448,12.85,-63.65,-36.3,801,768,779,805,822,34.48275862068966,-0.217,-0.874,0.428
38319,1755585426468,12.9,-63.7,-36.27,804,772,774,803,816,47.61904761904762,-0.219,-0.874,0.435
38348,1755585426497,12.91,-63.63,-36.27,795,769,774,795,823,34.48275862068966,-0.217,-0.871,0.433
38378,1755585426527,12.86,-63.64,-36.34,786,777,775,798,829,33.333333333333336,-0.217,-0.87,0.431
38407,1755585426556,12.9,-63.64,-36.33,793,772,771,802,819,34.48275862068966,-0.219,-0.875,0.428
38437,1755585426586,12.81,-63.72,-36.35,800,771,781,799,831,33.333333333333336,-0.219,-0.874,0.423
38466,1755585426615,12.89,-63.77,-36.31,798,783,771,799,825,34.48275862068966,-0.22,-0.877,0.429
38496,1755585426645,12.84,-63.74,-36.38,809,765,774,799,821,33.333333333333336,-0.219,-0.881,0.431
38525,1755585426675,12.77,-63.74,-36.38,797,766,770,795,829,34.48275862068966,-0.217,-0.875,0.425
38555,1755585426704,12.82,-63.83,-36.34,801,772,770,801,827,33.333333333333336,-0.219,-0.874,0.426
38585,1755585426734,12.85,-63.72,-36.33,798,776,765,803,822,33.333333333333336,-0.219,-0.877,0.43
38614,1755585426764,12.81,-63.69,-36.34,796,773,769,805,821,34.48275862068966,-0.217,-0.875,0.426
38634,1755585426784,12.81,-63.74,-36.31,785,769,770,804,826,50.0,-0.217,-0.873,0.424
38664,1755585426813,12.87,-63.75,-36.26,797,767,777,800,827,33.333333333333336,-0.218,-0.875,0.424
38694,1755585426843,12.87,-63.65,-36.26,796,771,767,803,825,33.333333333333336,-0.219,-0.874,0.427
38723,1755585426872,12.94,-63.56,-36.18,793,773,769,802,847,34.48275862068966,-0.217,-0.872,0.424
38753,1755585426902,13.0,-63.61,-36.15,791,770,774,802,825,33.333333333333336,-0.219,-0.874,0.424
38782,1755585426931,13.0,-63.58,-36.13,796,775,775,803,821,34.48275862068966,-0.221,-0.873,0.423
38812,1755585426961,12.98,-63.55,-36.08,804,780,769,804,825,33.333333333333336,-0.222,-0.869,0.423
38841,1755585426990,13.02,-63.61,-36.08,799,771,762,803,819,34.48275862068966,-0.221,-0.871,0.426
38871,1755585427020,13.02,-63.6,-36.08,792,780,766,807,828,33.333333333333336,-0.222,-0.872,0.429
38900,1755585427049,13.04,-63.59,-36.12,798,767,778,799,831,34.48275862068966,-0.224,-0.873,0.428
38930,1755585427079,13.11,-63.57,-36.08,797,769,773,795,832,33.333333333333336,-0.225,-0.873,0.428
38959,1755585427108,13.22,-63.52,-36.01,796,768,778,801,825,34.48275862068966,-0.227,-0.873,0.43
38989,1755585427138,13.2,-63.46,-36.0,795,775,787,801,832,33.333333333333336,-0.224,-0.871,0.427
39018,1755585427168,13.22,-63.56,-36.01,794,773,767,800,817,34.48275862068966,-0.223,-0.869,0.427
39048,1755585427197,13.27,-63.57,-35.98,797,780,772,809,831,33.333333333333336,-0.226,-0.871,0.429
39078,1755585427227,13.28,-63.54,-35.97,795,774,765,805,823,33.333333333333336,-0.228,-0.873,0.43
39107,1755585427256,13.35,-63.47,-35.89,797,776,770,799,827,34.48275862068966,-0.227,-0.871,0.43
39137,1755585427286,13.44,-63.49,-35.83,802,773,767,797,830,33.333333333333336,-0.224,-0.869,0.431
39166,1755585427316,13.45,-63.45,-35.84,793,771,765,801,827,34.48275862068966,-0.226,-0.871,0.432
39196,1755585427345,13.44,-63.38,-35.83,797,771,773,802,819,33.333333333333336,-0.229,-0.868,0.428
39226,1755585427375,13.47,-63.44,-35.79,794,766,775,801,819,33.333333333333336,-0.231,-0.867,0.425
39255,1755585427404,13.42,-63.49,-35.81,795,773,774,803,828,34.48275862068966,-0.234,-0.87,0.427
39285,1755585427434,13.38,-63.51,-35.81,794,774,769,802,827,33.333333333333336,-0.231,-0.867,0.428
39314,1755585427463,13.3,-63.57,-35.88,799,767,771,805,832,34.48275862068966,-0.228,-0.868,0.429
39344,1755585427493,13.17,-63.58,-35.96,796,774,769,797,829,33.333333333333336,-0.228,-0.87,0.43
39373,1755585427522,13.19,-63.62,-35.98,795,777,762,800,820,34.48275862068966,-0.227,-0.87,0.429
39403,1755585427552,13.23,-63.7,-35.94,791,774,768,804,822,33.333333333333336,-0.23,-0.871,0.43
39432,1755585427582,13.25,-63.68,-35.94,796,766,769,797,826,34.48275862068966,-0.231,-0.872,0.432
39462,1755585427611,13.18,-63.69,-35.98,796,768,779,797,820,33.333333333333336,-0.23,-0.87,0.427
39491,1755585427641,13.23,-63.74,-35.91,802,763,768,800,831,34.48275862068966,-0.23,-0.871,0.426
39521,1755585427670,13.24,-63.69,-35.89,798,775,769,799,822,33.333333333333336,-0.231,-0.873,0.429
39551,1755585427700,13.24,-63.62,-35.85,799,767,773,797,824,33.333333333333336,-0.227,-0.87,0.431
39580,1755585427729,13.28,-63.59,-35.83,792,778,772,796,820,34.48275862068966,-0.225,-0.869,0.431
39610,1755585427759,13.23,-63.6,-35.85,792,763,769,788,825,33.333333333333336,-0.228,-0.87,0.428
39639,1755585427788,13.26,-63.69,-35.84,797,767,764,801,824,34.48275862068966,-0.227,-0.87,0.427
39669,1755585427818,13.31,-63.74,-35.83,799,771,773,802,830,33.333333333333336,-0.23,-0.87,0.43
39698,1755585427848,13.32,-63.68,-35.83,799,765,777,792,821,34.48275862068966,-0.227,-0.869,0.432
39728,1755585427877,13.37,-63.65,-35.83,787,779,773,801,831,33.333333333333336,-0.227,-0.871,0.432
39758,1755585427907,13.39,-63.62,-35.82,801,778,782,795,828,33.333333333333336,-0.227,-0.87,0.429
39787,1755585427936,13.38,-63.66,-35.85,797,774,765,795,828,34.48275862068966,-0.228,-0.868,0.426
39817,1755585427966,13.34,-63.75,-35.91,795,777,770,798,818,33.333333333333336,-0.228,-0.867,0.424
39846,1755585427995,13.3,-63.88,-35.94,794,773,770,801,824,34.48275862068966,-0.229,-0.868,0.424
39876,1755585428025,13.29,-63.96,-35.98,791,777,772,802,812,33.333333333333336,-0.23,-0.871,0.427
39905,1755585428054,13.38,-63.85,-35.9,796,785,770,801,828,34.48275862068966,-0.232,-0.873,0.431
39935,1755585428084,13.46,-63.73,-35.85,800,776,773,799,832,33.333333333333336,-0.232,-0.875,0.429
39964,1755585428113,13.41,-63.76,-35.87,791,778,771,804,831,34.48275862068966,-0.229,-0.871,0.425
39994,1755585428143,13.51,-63.78,-35.85,790,773,772,798,831,33.333333333333336,-0.228,-0.871,0.425
40023,1755585428172,13.48,-63.72,-35.87,796,776,769,812,822,34.48275862068966,-0.23,-0.872,0.424
40053,1755585428202,13.45,-63.71,-35.86,788,772,774,805,825,33.333333333333336,-0.232,-0.873,0.422
40082,1755585428231,13.45,-63.78,-35.83,788,778,779,804,822,34.48275862068966,-0.231,-0.872,0.425
40112,1755585428261,13.49,-63.8,-35.82,797,772,762,804,827,33.333333333333336,-0.231,-0.872,0.428
40141,1755585428291,13.48,-63.71,-35.84,795,773,767,802,826,34.48275862068966,-0.231,-0.87,0.427
40171,1755585428320,13.52,-63.69,-35.84,794,778,775,800,821,33.333333333333336,-0.233,-0.871,0.423
40201,1755585428350,13.53,-63.77,-35.8,799,771,771,805,823,33.333333333333336,-0.232,-0.869,0.421
40230,1755585428379,13.57,-63.82,-35.77,801,778,772,805,824,34.48275862068966,-0.231,-0.87,0.426
40260,1755585428409,13.55,-63.73,-35.79,794,770,771,794,821,33.333333333333336,-0.23,-0.87,0.429
40289,1755585428439,13.61,-63.68,-35.76,790,771,775,804,826,34.48275862068966,-0.23,-0.87,0.428
40319,1755585428468,13.63,-63.75,-35.75,803,776,776,805,826,33.333333333333336,-0.231,-0.872,0.425
40349,1755585428498,13.63,-63.88,-35.78,798,765,757,808,823,33.333333333333336,-0.231,-0.868,0.425
40378,1755585428527,13.63,-63.93,-35.84,796,775,771,803,825,34.48275862068966,-0.231,-0.868,0.426
40408,1755585428557,13.63,-63.89,-35.89,796,764,777,798,825,33.333333333333336,-0.231,-0.869,0.427
40437,1755585428586,13.71,-63.87,-35.87,799,774,778,799,816,34.48275862068966,-0.231,-0.873,0.426
40467,1755585428616,13.68,-63.9,-35.92,795,776,765,803,824,33.333333333333336,-0.234,-0.873,0.424
40496,1755585428645,13.7,-63.84,-35.91,798,772,774,806,822,34.48275862068966,-0.235,-0.871,0.424
40526,1755585428675,13.69,-63.8,-35.94,799,769,774,812,825,33.333333333333336,-0.236,-0.869,0.424
40555,1755585428704,13.67,-63.8,-35.99,794,770,773,809,828,34.48275862068966,-0.237,-0.873,0.426
40585,1755585428734,13.6,-63.7,-36.05,789,777,776,791,822,33.333333333333336,-0.233,-0.872,0.426
40615,1755585428764,13.67,-63.74,-36.01,797,764,770,788,828,33.333333333333336,-0.231,-0.871,0.425
40644,1755585428793,13.7,-63.76,-36.01,800,779,772,809,830,34.48275862068966,-0.23,-0.872,0.428
40674,1755585428823,13.64,-63.74,-36.04,795,766,772,800,830,33.333333333333336,-0.23,-0.87,0.427
40703,1755585428853,13.64,-63.76,-36.03,793,769,765,804,820,34.48275862068966,-0.232,-0.87,0.424
40733,1755585428883,13.64,-63.81,-36.0,797,771,771,801,826,33.333333333333336,-0.233,-0.871,0.422
40763,1755585428912,13.66,-63.88,-35.98,795,782,773,796,829,33.333333333333336,-0.233,-0.874,0.425
40793,1755585428942,13.61,-63.84,-35.98,797,774,775,791,837,33.333333333333336,-0.231,-0.873,0.428
40822,1755585428971,13.59,-63.83,-35.99,795,769,769,790,838,34.48275862068966,-0.229,-0.873,0.427
40852,1755585429000,13.57,-63.89,-35.99,791,778,767,797,824,33.333333333333336,-0.228,-0.872,0.427
40881,1755585429030,13.58,-63.87,-35.99,795,777,769,804,825,34.48275862068966,-0.229,-0.872,0.427
40911,1755585429060,13.61,-63.84,-35.97,793,768,768,803,827,33.333333333333336,-0.231,-0.872,0.426
40940,1755585429089,13.64,-63.83,-35.92,790,776,769,796,819,34.48275862068966,-0.231,-0.874,0.426
40970,1755585429119,13.6,-63.84,-35.93,799,779,774,803,827,33.333333333333336,-0.23,-0.872,0.425
40999,1755585429148,13.57,-63.84,-35.94,801,768,764,800,827,34.48275862068966,-0.229,-0.871,0.422
41029,1755585429178,13.55,-63.89,-35.92,793,775,771,808,818,33.333333333333336,-0.227,-0.869,0.422
41058,1755585429207,13.61,-63.91,-35.91,799,773,772,810,820,34.48275862068966,-0.228,-0.873,0.429
41088,1755585429237,13.49,-63.84,-35.96,797,767,764,797,833,33.333333333333336,-0.229,-0.872,0.428
41117,1755585429266,13.54,-63.87,-35.92,792,770,767,816,845,34.48275862068966,-0.23,-0.869,0.424
41147,1755585429296,13.55,-63.89,-35.9,799,774,775,803,822,33.333333333333336,-0.229,-0.868,0.423
41177,1755585429326,13.55,-63.91,-35.9,791,785,772,804,824,33.333333333333336,-0.228,-0.869,0.422
41206,1755585429356,13.5,-63.92,-35.96,796,772,776,802,822,34.48275862068966,-0.23,-0.872,0.425
41226,1755585429375,13.47,-63.9,-35.98,801,774,764,794,819,50.0,-0.231,-0.873,0.426
41256,1755585429405,13.54,-63.9,-35.91,790,771,772,801,822,33.333333333333336,-0.23,-0.873,0.432
41285,1755585429435,13.57,-63.74,-35.94,797,777,776,800,820,34.48275862068966,-0.229,-0.874,0.435
41315,1755585429464,13.49,-63.58,-36.04,793,765,771,813,823,33.333333333333336,-0.223,-0.866,0.431
41345,1755585429494,13.52,-63.59,-36.13,793,777,761,799,825,33.333333333333336,-0.219,-0.865,0.428
41374,1755585429523,13.58,-63.54,-36.23,798,763,779,800,827,34.48275862068966,-0.227,-0.871,0.426
41403,1755585429553,13.57,-63.52,-36.28,795,771,765,802,824,34.48275862068966,-0.231,-0.869,0.423
41433,1755585429582,13.71,-63.6,-36.24,796,766,769,794,819,33.333333333333336,-0.234,-0.875,0.427
41463,1755585429612,13.61,-63.52,-36.27,795,771,772,799,824,33.333333333333336,-0.233,-0.874,0.424
41492,1755585429641,13.61,-63.56,-36.27,799,774,772,804,822,34.48275862068966,-0.231,-0.866,0.423
41521,1755585429671,13.64,-63.65,-36.28,800,776,775,796,826,34.48275862068966,-0.229,-0.866,0.428
41551,1755585429700,13.59,-63.59,-36.34,793,770,767,804,823,33.333333333333336,-0.231,-0.87,0.43
41581,1755585429730,13.5,-63.53,-36.39,797,766,767,793,824,33.333333333333336,-0.233,-0.87,0.427
41610,1755585429759,13.53,-63.6,-36.36,792,775,773,803,824,34.48275862068966,-0.231,-0.872,0.426
41640,1755585429789,13.51,-63.6,-36.36,794,774,770,802,824,33.333333333333336,-0.228,-0.875,0.428
41669,1755585429818,13.48,-63.58,-36.34,798,772,766,796,827,34.48275862068966,-0.223,-0.869,0.426
41699,1755585429848,13.56,-63.67,-36.33,788,773,772,796,828,33.333333333333336,-0.221,-0.869,0.431
41728,1755585429878,13.51,-63.54,-36.42,798,776,771,807,822,34.48275862068966,-0.224,-0.876,0.433
41758,1755585429907,13.45,-63.4,-36.45,800,790,767,803,832,33.333333333333336,-0.226,-0.874,0.43
41788,1755585429937,13.52,-63.42,-36.37,796,773,780,806,827,33.333333333333336,-0.225,-0.873,0.43
41817,1755585429966,13.51,-63.45,-36.39,799,773,776,798,828,34.48275862068966,-0.225,-0.873,0.436
41847,1755585429996,13.43,-63.31,-36.42,799,771,771,807,823,33.333333333333336,-0.224,-0.869,0.432
41877,1755585430026,13.52,-63.41,-36.36,798,780,768,803,823,33.333333333333336,-0.226,-0.873,0.432
41906,1755585430055,13.47,-63.42,-36.33,796,764,778,807,826,34.48275862068966,-0.228,-0.873,0.435
41936,1755585430085,13.49,-63.41,-36.29,794,765,773,805,822,33.333333333333336,-0.223,-0.868,0.435
41965,1755585430115,13.49,-63.42,-36.31,796,769,760,795,824,34.48275862068966,-0.222,-0.869,0.436
41995,1755585430144,13.46,-63.4,-36.34,795,765,767,799,830,33.333333333333336,-0.226,-0.869,0.433
42024,1755585430174,13.51,-63.46,-36.29,798,767,761,795,820,34.48275862068966,-0.228,-0.868,0.431
42054,1755585430204,13.53,-63.51,-36.28,792,767,765,798,823,33.333333333333336,-0.228,-0.872,0.435
42074,1755585430224,13.47,-63.49,-36.3,796,783,770,804,822,50.0,-0.227,-0.871,0.437
42104,1755585430253,13.48,-63.48,-36.27,791,774,774,803,819,33.333333333333336,-0.228,-0.871,0.431
42134,1755585430283,13.52,-63.54,-36.21,801,767,766,800,828,33.333333333333336,-0.228,-0.871,0.431
42164,1755585430313,13.52,-63.54,-36.22,795,773,771,800,818,33.333333333333336,-0.226,-0.87,0.434
42193,1755585430342,13.45,-63.48,-36.22,788,773,772,792,824,34.48275862068966,-0.219,-0.869,0.432
42223,1755585430372,13.49,-63.51,-36.18,796,778,770,801,826,33.333333333333336,-0.222,-0.87,0.432
42252,1755585430402,13.49,-63.53,-36.17,793,775,772,786,829,34.48275862068966,-0.223,-0.868,0.433
42282,1755585430431,13.51,-63.47,-36.18,790,764,769,805,831,33.333333333333336,-0.225,-0.867,0.434
42312,1755585430461,13.53,-63.43,-36.17,794,770,775,801,813,33.333333333333336,-0.224,-0.868,0.434
42341,1755585430490,13.57,-63.41,-36.17,790,782,780,802,823,34.48275862068966,-0.226,-0.869,0.433
42371,1755585430520,13.64,-63.38,-36.12,794,782,768,795,816,33.333333333333336,-0.227,-0.869,0.434
42400,1755585430550,13.81,-63.24,-36.02,799,768,765,799,826,34.48275862068966,-0.228,-0.87,0.439
42430,1755585430579,14.01,-62.95,-35.89,799,770,771,798,820,33.333333333333336,-0.23,-0.869,0.44
42460,1755585430609,14.14,-62.84,-35.79,784,778,776,800,827,33.333333333333336,-0.231,-0.864,0.434
42489,1755585430638,14.26,-62.9,-35.73,798,775,762,798,830,34.48275862068966,-0.232,-0.863,0.433
42519,1755585430668,14.3,-62.77,-35.71,797,773,767,795,829,33.333333333333336,-0.235,-0.862,0.435
42548,1755585430698,14.22,-62.74,-35.78,791,776,768,799,829,34.48275862068966,-0.236,-0.858,0.432
42578,1755585430727,14.19,-62.79,-35.83,790,770,769,801,829,33.333333333333336,-0.244,-0.856,0.425
42608,1755585430757,14.13,-62.87,-35.81,795,784,774,794,824,33.333333333333336,-0.245,-0.858,0.429
42637,1755585430786,14.15,-63.0,-35.76,793,772,775,800,830,34.48275862068966,-0.241,-0.866,0.444
42667,1755585430816,14.11,-63.03,-35.74,785,766,770,802,821,33.333333333333336,-0.238,-0.869,0.448
42696,1755585430845,14.07,-62.94,-35.71,800,773,771,802,815,34.48275862068966,-0.237,-0.866,0.441
42726,1755585430875,14.06,-63.03,-35.7,803,775,773,804,820,33.333333333333336,-0.238,-0.861,0.43
42755,1755585430905,14.09,-63.18,-35.71,791,774,775,797,824,34.48275862068966,-0.245,-0.86,0.428
42785,1755585430935,14.02,-63.27,-35.72,801,766,776,809,825,33.333333333333336,-0.243,-0.859,0.437
42805,1755585430954,14.06,-63.3,-35.72,792,780,771,796,830,50.0,-0.241,-0.861,0.449
42835,1755585430984,14.12,-63.17,-35.72,796,765,773,797,830,33.333333333333336,-0.241,-0.869,0.454
