timestamp_ms,recv_timestamp_ms,pitch,roll,yaw,flex1,flex2,flex3,flex4,flex5,sampling_hz,accel_x,accel_y,accel_z
29761,1755586192410,16.44,-35.25,-12.81,769,775,770,750,825,33.333333333333336,-0.301,-0.551,0.785
29790,1755586192440,16.44,-35.18,-12.85,769,775,775,752,847,34.48275862068966,-0.302,-0.55,0.784
29820,1755586192469,16.5,-35.2,-12.87,774,770,772,749,822,33.333333333333336,-0.302,-0.549,0.781
29850,1755586192499,16.53,-35.28,-12.91,764,772,774,752,818,33.333333333333336,-0.301,-0.548,0.778
29879,1755586192528,16.52,-35.31,-12.95,772,773,771,753,820,34.48275862068966,-0.302,-0.55,0.781
29909,1755586192558,16.47,-35.29,-13.0,763,773,780,748,827,33.333333333333336,-0.305,-0.551,0.783
29938,1755586192587,16.54,-35.3,-13.0,774,770,763,745,842,34.48275862068966,-0.308,-0.551,0.781
29968,1755586192617,16.6,-35.27,-12.97,772,778,766,749,820,33.333333333333336,-0.308,-0.551,0.781
29998,1755586192647,16.53,-35.25,-12.99,774,772,769,750,820,33.333333333333336,-0.306,-0.55,0.78
30027,1755586192676,16.55,-35.29,-13.01,772,770,768,749,823,34.48275862068966,-0.304,-0.548,0.78
30057,1755586192706,16.58,-35.29,-13.0,764,772,770,748,821,33.333333333333336,-0.307,-0.551,0.782
30086,1755586192735,16.53,-35.29,-13.0,771,778,765,753,817,34.48275862068966,-0.306,-0.551,0.78
30116,1755586192765,16.59,-35.31,-13.0,773,774,774,751,821,33.333333333333336,-0.303,-0.55,0.782
30145,1755586192794,16.58,-35.24,-13.02,774,776,768,752,818,34.48275862068966,-0.3,-0.55,0.784
30175,1755586192824,16.53,-35.26,-13.06,773,773,774,754,823,33.333333333333336,-0.301,-0.55,0.782
30204,1755586192853,16.57,-35.31,-13.09,772,772,774,751,812,34.48275862068966,-0.303,-0.552,0.782
30234,1755586192883,16.59,-35.29,-13.09,773,772,777,750,826,33.333333333333336,-0.303,-0.553,0.784
30263,1755586192912,16.61,-35.31,-13.12,770,772,777,751,830,34.48275862068966,-0.304,-0.552,0.783
30292,1755586192942,16.56,-35.34,-13.14,772,770,771,749,822,34.48275862068966,-0.304,-0.553,0.778
30322,1755586192971,16.53,-35.38,-13.16,772,770,768,750,823,33.333333333333336,-0.303,-0.552,0.776
30351,1755586193001,16.6,-35.43,-13.16,766,775,777,752,823,34.48275862068966,-0.302,-0.55,0.78
30381,1755586193030,16.61,-35.44,-13.17,774,771,772,750,822,33.333333333333336,-0.304,-0.553,0.783
30411,1755586193060,16.63,-35.46,-13.16,771,775,769,748,824,33.333333333333336,-0.304,-0.554,0.78
30441,1755586193090,16.68,-35.5,-13.16,774,775,773,751,814,33.333333333333336,-0.302,-0.554,0.778
30470,1755586193119,16.64,-35.56,-13.2,777,767,774,750,818,34.48275862068966,-0.301,-0.554,0.777
30500,1755586193149,16.6,-35.6,-13.22,773,776,774,750,822,33.333333333333336,-0.302,-0.555,0.78
30529,1755586193179,16.64,-35.67,-13.23,773,772,771,751,829,34.48275862068966,-0.302,-0.558,0.779
30559,1755586193208,16.65,-35.68,-13.22,772,772,772,748,823,33.333333333333336,-0.303,-0.558,0.777
30588,1755586193237,16.62,-35.66,-13.25,773,775,769,752,818,34.48275862068966,-0.301,-0.557,0.779
30618,1755586193267,16.55,-35.62,-13.3,768,764,772,753,814,33.333333333333336,-0.298,-0.556,0.777
30647,1755586193297,16.59,-35.67,-13.31,772,759,773,748,808,34.48275862068966,-0.3,-0.558,0.779
30677,1755586193326,16.66,-35.62,-13.3,775,772,769,745,815,33.333333333333336,-0.301,-0.56,0.779
30706,1755586193356,16.65,-35.65,-13.34,770,771,772,753,823,34.48275862068966,-0.301,-0.558,0.774
30736,1755586193385,16.72,-35.73,-13.35,769,767,771,754,824,33.333333333333336,-0.302,-0.559,0.772
30765,1755586193415,16.8,-35.75,-13.33,775,769,770,746,824,34.48275862068966,-0.303,-0.561,0.777
30795,1755586193444,16.83,-35.82,-13.34,770,768,772,756,817,33.333333333333336,-0.299,-0.559,0.777
30824,1755586193474,16.94,-35.93,-13.39,776,789,774,753,829,34.48275862068966,-0.299,-0.559,0.775
30854,1755586193503,16.89,-35.9,-13.42,773,768,773,749,824,33.333333333333336,-0.303,-0.561,0.775
30884,1755586193533,16.85,-36.05,-13.47,771,766,772,754,826,33.333333333333336,-0.302,-0.56,0.773
30913,1755586193562,16.91,-36.06,-13.49,770,778,775,748,826,34.48275862068966,-0.306,-0.563,0.777
30943,1755586193593,16.91,-36.02,-13.48,770,777,774,754,823,33.333333333333336,-0.305,-0.563,0.775
30963,1755586193612,16.9,-36.08,-13.48,773,772,765,757,816,50.0,-0.303,-0.562,0.771
30993,1755586193642,16.91,-36.09,-13.47,771,772,772,754,819,33.333333333333336,-0.303,-0.565,0.771
31022,1755586193671,16.85,-36.04,-13.5,774,777,773,751,821,34.48275862068966,-0.3,-0.564,0.77
31052,1755586193701,16.84,-36.11,-13.55,769,773,777,753,816,33.333333333333336,-0.299,-0.564,0.772
31081,1755586193730,16.83,-36.15,-13.6,769,771,768,756,815,34.48275862068966,-0.302,-0.567,0.772
31111,1755586193760,16.76,-36.1,-13.61,770,775,769,754,824,33.333333333333336,-0.301,-0.565,0.77
31140,1755586193789,16.86,-36.15,-13.61,766,776,768,759,818,34.48275862068966,-0.302,-0.566,0.77
31170,1755586193819,16.84,-36.26,-13.61,775,768,777,751,827,33.333333333333336,-0.304,-0.567,0.767
31199,1755586193848,16.78,-36.33,-13.64,771,782,771,755,814,34.48275862068966,-0.302,-0.568,0.77
31229,1755586193878,16.76,-36.25,-13.64,773,769,772,754,845,33.333333333333336,-0.3,-0.568,0.772
31258,1755586193907,16.78,-36.26,-13.64,773,769,776,759,818,34.48275862068966,-0.302,-0.57,0.772
31288,1755586193937,16.75,-36.29,-13.65,770,775,768,755,825,33.333333333333336,-0.301,-0.569,0.769
31317,1755586193967,16.75,-36.29,-13.65,769,773,772,753,819,34.48275862068966,-0.298,-0.568,0.769
31338,1755586193987,16.74,-36.28,-13.66,767,771,763,750,817,47.61904761904762,-0.298,-0.568,0.771
31367,1755586194016,16.65,-36.18,-13.69,771,773,775,751,821,34.48275862068966,-0.3,-0.568,0.77
31397,1755586194046,16.72,-36.22,-13.66,771,776,768,745,823,33.333333333333336,-0.301,-0.568,0.769
31426,1755586194075,16.72,-36.27,-13.65,767,770,779,747,816,34.48275862068966,-0.302,-0.568,0.767
31456,1755586194105,16.68,-36.32,-13.65,770,776,767,755,817,33.333333333333336,-0.3,-0.567,0.769
31486,1755586194135,16.73,-36.24,-13.63,766,770,770,757,810,33.333333333333336,-0.299,-0.57,0.772
31515,1755586194164,16.75,-36.21,-13.65,776,770,769,750,818,34.48275862068966,-0.302,-0.568,0.77
31545,1755586194194,16.7,-36.19,-13.69,772,774,768,749,824,33.333333333333336,-0.302,-0.568,0.768
31574,1755586194223,16.68,-36.2,-13.68,774,770,771,747,825,34.48275862068966,-0.298,-0.567,0.768
31603,1755586194253,16.68,-36.23,-13.68,771,771,770,757,822,34.48275862068966,-0.296,-0.566,0.772
31633,1755586194282,16.74,-36.25,-13.72,769,779,763,757,814,33.333333333333336,-0.297,-0.565,0.773
31662,1755586194312,16.75,-36.26,-13.73,769,774,772,750,822,34.48275862068966,-0.3,-0.572,0.771
31692,1755586194341,16.81,-36.24,-13.69,775,772,769,753,823,33.333333333333336,-0.302,-0.575,0.767
31722,1755586194371,16.82,-36.21,-13.67,768,773,768,749,822,33.333333333333336,-0.3,-0.571,0.765
31751,1755586194401,16.79,-36.26,-13.72,765,777,768,749,829,34.48275862068966,-0.299,-0.567,0.766
31781,1755586194430,16.77,-36.33,-13.74,771,775,760,749,821,33.333333333333336,-0.3,-0.565,0.77
31811,1755586194460,16.8,-36.27,-13.71,771,771,776,752,823,33.333333333333336,-0.305,-0.565,0.776
31840,1755586194489,16.8,-36.22,-13.71,771,765,781,753,818,34.48275862068966,-0.304,-0.564,0.773
31870,1755586194519,16.76,-36.27,-13.74,768,776,771,751,824,33.333333333333336,-0.304,-0.563,0.766
31899,1755586194548,16.76,-36.3,-13.72,776,766,770,754,817,34.48275862068966,-0.304,-0.567,0.767
31929,1755586194578,16.75,-36.36,-13.68,764,767,774,751,822,33.333333333333336,-0.299,-0.57,0.77
31958,1755586194608,16.74,-36.33,-13.68,772,773,761,756,819,34.48275862068966,-0.301,-0.573,0.774
31988,1755586194637,16.72,-36.23,-13.66,774,776,770,756,813,33.333333333333336,-0.301,-0.572,0.773
32018,1755586194667,16.69,-36.17,-13.63,765,770,770,753,817,33.333333333333336,-0.302,-0.569,0.766
32047,1755586194697,16.69,-36.25,-13.6,770,760,766,756,815,34.48275862068966,-0.303,-0.566,0.763
32077,1755586194726,16.65,-36.3,-13.6,769,773,768,753,819,33.333333333333336,-0.304,-0.569,0.77
32106,1755586194756,16.62,-36.27,-13.58,771,779,768,750,815,34.48275862068966,-0.303,-0.571,0.772
32136,1755586194785,16.65,-36.2,-13.52,778,770,769,755,812,33.333333333333336,-0.305,-0.572,0.771
32165,1755586194815,16.66,-36.24,-13.49,773,765,773,755,819,34.48275862068966,-0.303,-0.568,0.768
32195,1755586194844,16.58,-36.24,-13.45,772,773,769,750,826,33.333333333333336,-0.301,-0.568,0.77
32225,1755586194874,16.56,-36.22,-13.42,777,765,771,755,821,33.333333333333336,-0.297,-0.567,0.773
32254,1755586194903,16.56,-36.22,-13.42,772,773,781,760,822,34.48275862068966,-0.296,-0.567,0.775
32284,1755586194933,16.57,-36.16,-13.4,772,765,770,751,823,33.333333333333336,-0.299,-0.566,0.773
32313,1755586194962,16.59,-36.13,-13.39,773,769,781,748,823,34.48275862068966,-0.305,-0.566,0.772
32343,1755586194992,16.6,-36.16,-13.36,776,765,770,750,822,33.333333333333336,-0.304,-0.564,0.772
32372,1755586195021,16.64,-36.12,-13.31,771,774,779,750,822,34.48275862068966,-0.301,-0.566,0.777
32402,1755586195051,16.69,-36.04,-13.31,769,768,772,752,821,33.333333333333336,-0.3,-0.566,0.775
32431,1755586195081,16.73,-36.06,-13.31,773,771,768,748,823,34.48275862068966,-0.301,-0.565,0.771
32461,1755586195111,16.74,-36.02,-13.33,765,772,774,751,821,33.333333333333336,-0.302,-0.563,0.771
32491,1755586195140,16.72,-36.02,-13.36,772,769,768,752,824,33.333333333333336,-0.304,-0.561,0.773
32520,1755586195169,16.74,-35.99,-13.36,764,771,772,753,825,34.48275862068966,-0.305,-0.562,0.774
32550,1755586195199,16.77,-35.99,-13.35,769,770,766,749,824,33.333333333333336,-0.305,-0.562,0.771
32580,1755586195229,16.82,-36.03,-13.34,769,770,774,749,840,33.333333333333336,-0.303,-0.562,0.772
32609,1755586195259,16.86,-36.03,-13.38,775,775,775,746,816,34.48275862068966,-0.3,-0.559,0.774
32639,1755586195289,16.81,-36.0,-13.43,771,771,766,753,818,33.333333333333336,-0.303,-0.561,0.772
32669,1755586195318,16.85,-35.99,-13.39,770,782,772,746,823,33.333333333333336,-0.306,-0.565,0.77
32699,1755586195348,16.94,-36.02,-13.32,773,779,757,752,820,33.333333333333336,-0.306,-0.563,0.771
32728,1755586195377,16.97,-36.0,-13.3,771,776,770,749,814,34.48275862068966,-0.305,-0.562,0.771
32758,1755586195407,16.91,-35.99,-13.33,772,768,770,753,817,33.333333333333336,-0.303,-0.561,0.769
32787,1755586195436,16.94,-35.99,-13.34,775,768,776,754,821,34.48275862068966,-0.304,-0.562,0.771
32817,1755586195466,16.91,-36.02,-13.37,774,774,769,751,820,33.333333333333336,-0.304,-0.562,0.773
32847,1755586195496,16.91,-36.01,-13.38,770,770,776,753,814,33.333333333333336,-0.303,-0.56,0.771
32876,1755586195525,16.95,-35.99,-13.41,774,770,773,754,818,34.48275862068966,-0.304,-0.562,0.774
32906,1755586195555,16.84,-35.98,-13.49,774,764,770,753,815,33.333333333333336,-0.308,-0.562,0.771
32935,1755586195585,16.82,-35.99,-13.51,765,772,775,748,823,34.48275862068966,-0.31,-0.56,0.768
32965,1755586195615,16.9,-35.99,-13.49,776,767,772,751,826,33.333333333333336,-0.311,-0.562,0.771
32985,1755586195634,16.9,-35.98,-13.48,778,777,770,755,831,50.0,-0.31,-0.563,0.773
33015,1755586195664,16.87,-35.94,-13.48,772,777,764,751,818,33.333333333333336,-0.306,-0.563,0.771
33044,1755586195694,16.93,-35.92,-13.47,769,773,769,753,817,34.48275862068966,-0.303,-0.561,0.771
33064,1755586195713,16.98,-35.93,-13.48,769,771,766,753,831,50.0,-0.302,-0.561,0.771
33094,1755586195743,16.91,-35.89,-13.5,770,776,763,755,822,33.333333333333336,-0.307,-0.562,0.774
33124,1755586195773,16.93,-35.87,-13.49,772,774,771,757,815,33.333333333333336,-0.307,-0.561,0.772
33153,1755586195803,17.0,-35.85,-13.47,772,776,776,749,816,34.48275862068966,-0.307,-0.56,0.77
33183,1755586195832,16.94,-35.88,-13.46,770,771,781,752,820,33.333333333333336,-0.306,-0.559,0.769
33213,1755586195862,16.97,-35.88,-13.44,773,766,769,751,816,33.333333333333336,-0.306,-0.559,0.773
33242,1755586195891,16.97,-35.85,-13.44,762,769,771,753,815,34.48275862068966,-0.307,-0.559,0.772
33272,1755586195921,17.0,-35.87,-13.42,776,777,774,754,842,33.333333333333336,-0.308,-0.559,0.771
33301,1755586195950,17.01,-35.85,-13.4,769,768,772,746,820,34.48275862068966,-0.304,-0.558,0.772
33331,1755586195980,17.02,-35.89,-13.42,776,776,773,750,806,33.333333333333336,-0.305,-0.559,0.775
33360,1755586196010,17.02,-35.85,-13.43,771,778,766,750,817,34.48275862068966,-0.306,-0.559,0.772
33390,1755586196039,17.07,-35.88,-13.43,767,777,769,755,825,33.333333333333336,-0.308,-0.559,0.771
33419,1755586196069,17.01,-35.91,-13.44,772,774,775,755,814,34.48275862068966,-0.31,-0.558,0.771
33449,1755586196098,17.0,-35.91,-13.42,770,771,768,752,811,33.333333333333336,-0.311,-0.56,0.773
33479,1755586196128,17.03,-35.83,-13.36,775,772,774,746,813,33.333333333333336,-0.309,-0.559,0.773
33509,1755586196158,17.06,-35.92,-13.37,772,768,778,749,819,33.333333333333336,-0.307,-0.558,0.772
33538,1755586196188,17.07,-35.93,-13.38,773,771,772,756,817,34.48275862068966,-0.307,-0.558,0.772
33568,1755586196218,17.02,-35.89,-13.39,776,775,769,752,831,33.333333333333336,-0.308,-0.558,0.774
33598,1755586196247,17.0,-35.83,-13.39,767,772,774,744,825,33.333333333333336,-0.308,-0.56,0.774
33627,1755586196277,16.99,-35.86,-13.4,768,776,773,753,820,34.48275862068966,-0.307,-0.557,0.77
33657,1755586196306,17.0,-35.88,-13.42,771,770,775,752,821,33.333333333333336,-0.306,-0.556,0.77
33687,1755586196336,16.96,-35.86,-13.43,771,770,772,758,819,33.333333333333336,-0.309,-0.558,0.775
33716,1755586196365,17.0,-35.85,-13.44,770,772,779,751,821,34.48275862068966,-0.31,-0.559,0.774
33746,1755586196395,17.02,-35.85,-13.41,769,787,774,748,819,33.333333333333336,-0.311,-0.559,0.769
33775,1755586196424,17.04,-35.88,-13.38,776,773,769,755,813,34.48275862068966,-0.311,-0.56,0.77
33805,1755586196454,16.98,-35.86,-13.37,773,774,771,745,820,33.333333333333336,-0.313,-0.561,0.773
33834,1755586196484,16.97,-35.85,-13.36,771,778,772,751,815,34.48275862068966,-0.312,-0.561,0.773
33854,1755586196504,16.99,-35.86,-13.34,772,773,774,749,824,50.0,-0.308,-0.559,0.773
33884,1755586196533,16.97,-35.82,-13.33,771,788,766,748,819,33.333333333333336,-0.308,-0.557,0.772
33914,1755586196563,16.92,-35.84,-13.31,771,773,778,750,818,33.333333333333336,-0.309,-0.556,0.77
33943,1755586196593,17.03,-35.92,-13.26,775,773,773,752,820,34.48275862068966,-0.308,-0.559,0.774
33973,1755586196622,16.98,-35.93,-13.26,766,777,772,753,820,33.333333333333336,-0.309,-0.558,0.776
34003,1755586196652,16.98,-35.85,-13.25,772,768,775,744,819,33.333333333333336,-0.31,-0.557,0.774
34032,1755586196681,16.97,-35.84,-13.23,767,761,777,755,826,34.48275862068966,-0.31,-0.558,0.771
34062,1755586196711,16.95,-35.88,-13.23,775,764,764,755,821,33.333333333333336,-0.309,-0.558,0.772
34091,1755586196741,16.91,-35.86,-13.24,774,773,769,751,824,34.48275862068966,-0.306,-0.559,0.775
34121,1755586196771,16.95,-35.83,-13.23,767,777,775,749,820,33.333333333333336,-0.305,-0.561,0.774
34151,1755586196800,16.97,-35.8,-13.24,774,768,774,756,819,33.333333333333336,-0.31,-0.558,0.772
34180,1755586196830,16.91,-35.8,-13.25,773,767,770,747,824,34.48275862068966,-0.31,-0.554,0.771
34210,1755586196860,16.96,-35.79,-13.25,771,767,766,751,824,33.333333333333336,-0.311,-0.555,0.775
34240,1755586196889,16.95,-35.76,-13.23,773,766,772,752,821,33.333333333333336,-0.31,-0.555,0.777
34270,1755586196919,16.99,-35.76,-13.25,776,774,767,753,818,33.333333333333336,-0.31,-0.553,0.774
34299,1755586196948,16.99,-35.77,-13.27,771,771,770,752,818,34.48275862068966,-0.311,-0.554,0.773
34329,1755586196978,16.99,-35.79,-13.27,774,772,769,754,824,33.333333333333336,-0.311,-0.555,0.773
34359,1755586197008,17.02,-35.81,-13.25,768,775,774,751,824,33.333333333333336,-0.311,-0.557,0.777
34388,1755586197037,17.0,-35.7,-13.22,768,770,772,748,824,34.48275862068966,-0.307,-0.557,0.78
34418,1755586197067,17.05,-35.62,-13.2,773,762,765,756,820,33.333333333333336,-0.301,-0.556,0.778
34447,1755586197097,17.04,-35.52,-13.2,774,776,775,755,820,34.48275862068966,-0.305,-0.557,0.777
34477,1755586197126,17.03,-35.51,-13.2,776,774,773,751,822,33.333333333333336,-0.308,-0.555,0.773
34506,1755586197156,17.12,-35.52,-13.16,774,774,766,751,817,34.48275862068966,-0.312,-0.554,0.772
34536,1755586197185,17.08,-35.51,-13.15,770,770,766,750,820,33.333333333333336,-0.314,-0.553,0.775
34566,1755586197215,17.07,-35.48,-13.13,763,771,774,748,834,33.333333333333336,-0.311,-0.551,0.776
34595,1755586197244,17.08,-35.49,-13.14,771,772,780,747,814,34.48275862068966,-0.309,-0.552,0.776
34625,1755586197274,17.05,-35.47,-13.17,772,778,772,751,823,33.333333333333336,-0.311,-0.554,0.777
34654,1755586197303,17.06,-35.42,-13.17,769,768,766,747,813,34.48275862068966,-0.314,-0.556,0.776
34684,1755586197333,17.07,-35.39,-13.15,774,779,769,750,818,33.333333333333336,-0.313,-0.555,0.774
34713,1755586197363,17.08,-35.42,-13.15,775,772,775,751,821,34.48275862068966,-0.311,-0.551,0.773
34743,1755586197392,17.05,-35.49,-13.21,775,774,769,754,816,33.333333333333336,-0.315,-0.552,0.778
34772,1755586197422,17.0,-35.46,-13.22,773,767,770,752,813,34.48275862068966,-0.315,-0.553,0.78
34793,1755586197442,17.07,-35.43,-13.19,767,777,773,749,822,47.61904761904762,-0.315,-0.553,0.781
34822,1755586197471,17.1,-35.41,-13.18,775,776,767,759,832,34.48275862068966,-0.313,-0.551,0.779
34852,1755586197501,17.04,-35.4,-13.18,770,776,763,754,824,33.333333333333336,-0.312,-0.551,0.778
34881,1755586197530,17.06,-35.48,-13.18,771,765,759,753,824,34.48275862068966,-0.311,-0.55,0.777
34911,1755586197560,17.14,-35.49,-13.16,771,774,770,753,820,33.333333333333336,-0.311,-0.551,0.782
34940,1755586197589,17.05,-35.45,-13.21,774,771,773,754,809,34.48275862068966,-0.309,-0.55,0.782
34970,1755586197619,17.09,-35.44,-13.23,774,775,765,754,815,33.333333333333336,-0.311,-0.55,0.778
34999,1755586197649,17.19,-35.44,-13.22,768,770,771,754,818,34.48275862068966,-0.313,-0.551,0.778
35029,1755586197678,17.16,-35.47,-13.24,771,768,774,746,826,33.333333333333336,-0.314,-0.553,0.776
35058,1755586197708,17.17,-35.5,-13.25,772,770,770,750,819,34.48275862068966,-0.311,-0.549,0.775
35088,1755586197737,17.19,-35.49,-13.26,767,772,773,751,818,33.333333333333336,-0.311,-0.55,0.778
35118,1755586197767,17.16,-35.47,-13.26,771,773,767,750,824,33.333333333333336,-0.314,-0.553,0.778
35147,1755586197796,17.22,-35.46,-13.22,773,769,771,755,822,34.48275862068966,-0.316,-0.553,0.777
35176,1755586197826,17.24,-35.46,-13.2,774,780,768,752,808,34.48275862068966,-0.315,-0.552,0.779
35206,1755586197855,17.2,-35.36,-13.2,774,786,780,758,824,33.333333333333336,-0.316,-0.552,0.777
35236,1755586197885,17.27,-35.44,-13.18,767,768,770,752,817,33.333333333333336,-0.314,-0.551,0.774
35265,1755586197914,17.31,-35.46,-13.16,768,775,770,759,814,34.48275862068966,-0.314,-0.549,0.777
35295,1755586197944,17.24,-35.39,-13.16,773,775,769,753,816,33.333333333333336,-0.314,-0.55,0.781
35324,1755586197973,17.37,-35.34,-13.1,777,768,766,754,816,34.48275862068966,-0.315,-0.553,0.78
35354,1755586198003,17.41,-35.36,-13.05,771,774,770,755,827,33.333333333333336,-0.316,-0.55,0.776
35383,1755586198033,17.4,-35.39,-13.04,771,765,767,755,815,34.48275862068966,-0.314,-0.546,0.773
35413,1755586198062,17.35,-35.45,-13.08,771,769,769,749,810,33.333333333333336,-0.315,-0.547,0.776
35442,1755586198092,17.34,-35.41,-13.06,771,777,774,750,821,34.48275862068966,-0.317,-0.549,0.781
35472,1755586198121,17.37,-35.32,-13.01,773,769,773,753,817,33.333333333333336,-0.314,-0.549,0.781
35502,1755586198151,17.38,-35.3,-13.02,774,765,772,755,817,33.333333333333336,-0.314,-0.55,0.777
35532,1755586198181,17.36,-35.36,-13.04,773,762,774,754,814,33.333333333333336,-0.315,-0.549,0.774
35561,1755586198211,17.38,-35.38,-13.02,771,767,772,756,823,34.48275862068966,-0.317,-0.551,0.777
35591,1755586198241,17.46,-35.4,-12.98,771,776,763,753,818,33.333333333333336,-0.315,-0.55,0.783
35621,1755586198270,17.45,-35.32,-13.01,770,773,769,750,816,33.333333333333336,-0.317,-0.55,0.783
35651,1755586198300,17.44,-35.25,-13.01,773,774,771,748,824,33.333333333333336,-0.321,-0.551,0.776
35680,1755586198329,17.45,-35.27,-12.98,770,780,770,750,828,34.48275862068966,-0.318,-0.547,0.771
35710,1755586198359,17.47,-35.34,-12.99,775,777,775,745,828,33.333333333333336,-0.316,-0.545,0.777
35739,1755586198389,17.41,-35.36,-13.05,775,779,769,748,819,34.48275862068966,-0.319,-0.545,0.78
35769,1755586198419,17.48,-35.29,-13.04,772,774,765,752,825,33.333333333333336,-0.323,-0.549,0.781
35799,1755586198448,17.52,-35.3,-13.03,764,779,775,755,841,33.333333333333336,-0.321,-0.548,0.777
35828,1755586198478,17.53,-35.31,-13.04,770,770,771,749,821,34.48275862068966,-0.321,-0.546,0.774
35858,1755586198507,17.52,-35.34,-13.05,774,772,771,744,821,33.333333333333336,-0.319,-0.547,0.776
35888,1755586198537,17.54,-35.35,-13.06,778,773,772,755,830,33.333333333333336,-0.318,-0.546,0.779
35917,1755586198566,17.51,-35.35,-13.1,772,766,767,749,819,34.48275862068966,-0.319,-0.546,0.778
35947,1755586198596,17.5,-35.33,-13.11,774,778,767,751,818,33.333333333333336,-0.322,-0.55,0.777
35976,1755586198625,17.51,-35.35,-13.09,769,779,769,751,821,34.48275862068966,-0.321,-0.55,0.778
36005,1755586198655,17.51,-35.33,-13.08,770,772,775,754,808,34.48275862068966,-0.32,-0.55,0.777
36035,1755586198684,17.5,-35.34,-13.09,779,770,773,751,818,33.333333333333336,-0.319,-0.548,0.778
36065,1755586198714,17.52,-35.32,-13.1,770,770,766,752,824,33.333333333333336,-0.318,-0.547,0.779
36094,1755586198744,17.54,-35.31,-13.1,773,773,770,755,815,34.48275862068966,-0.32,-0.55,0.779
36124,1755586198773,17.53,-35.3,-13.1,768,774,770,753,819,33.333333333333336,-0.321,-0.55,0.777
36153,1755586198803,17.57,-35.32,-13.09,775,773,773,752,814,34.48275862068966,-0.32,-0.547,0.774
36183,1755586198832,17.57,-35.32,-13.08,776,773,791,749,819,33.333333333333336,-0.321,-0.547,0.778
36213,1755586198862,17.53,-35.29,-13.08,773,767,783,748,823,33.333333333333336,-0.318,-0.549,0.781
36242,1755586198891,17.57,-35.23,-13.06,768,774,775,750,818,34.48275862068966,-0.316,-0.551,0.779
36271,1755586198921,17.59,-35.22,-13.05,771,768,780,758,818,34.48275862068966,-0.317,-0.548,0.775
36301,1755586198951,17.61,-35.27,-13.08,768,771,773,756,818,33.333333333333336,-0.318,-0.546,0.775
36331,1755586198980,17.59,-35.27,-13.09,771,769,769,752,826,33.333333333333336,-0.322,-0.546,0.777
36361,1755586199010,17.62,-35.26,-13.08,776,771,757,754,822,33.333333333333336,-0.323,-0.548,0.778
36390,1755586199039,17.63,-35.25,-13.04,778,777,772,755,824,34.48275862068966,-0.323,-0.549,0.776
36420,1755586199069,17.61,-35.23,-13.05,768,772,777,752,819,33.333333333333336,-0.328,-0.546,0.775
36449,1755586199098,17.55,-35.22,-13.08,767,771,769,752,815,34.48275862068966,-0.326,-0.547,0.777
36478,1755586199128,17.59,-35.22,-13.07,772,771,770,755,824,34.48275862068966,-0.327,-0.548,0.778
36508,1755586199157,17.56,-35.19,-13.06,772,780,772,752,813,33.333333333333336,-0.326,-0.548,0.777
36538,1755586199187,17.57,-35.2,-13.06,773,773,773,756,821,33.333333333333336,-0.326,-0.547,0.775
36567,1755586199217,17.54,-35.25,-13.04,772,772,768,753,818,34.48275862068966,-0.327,-0.547,0.775
36597,1755586199246,17.59,-35.31,-13.03,770,770,769,753,819,33.333333333333336,-0.323,-0.548,0.778
36627,1755586199276,17.58,-35.27,-13.04,776,774,773,752,818,33.333333333333336,-0.324,-0.551,0.781
36656,1755586199305,17.56,-35.18,-13.01,770,784,777,756,816,34.48275862068966,-0.324,-0.551,0.78
36686,1755586199335,17.59,-35.12,-13.0,768,765,772,750,816,33.333333333333336,-0.323,-0.548,0.776
36715,1755586199364,17.52,-35.13,-12.99,765,777,772,748,817,34.48275862068966,-0.323,-0.547,0.773
36744,1755586199394,17.55,-35.2,-12.95,769,766,771,750,826,34.48275862068966,-0.32,-0.548,0.774
36774,1755586199424,17.6,-35.19,-12.91,763,775,787,749,815,33.333333333333336,-0.319,-0.549,0.779
36804,1755586199453,17.53,-35.1,-12.92,771,765,761,756,822,33.333333333333336,-0.317,-0.545,0.778
36833,1755586199483,17.61,-35.09,-12.93,770,768,767,751,814,34.48275862068966,-0.318,-0.541,0.777
36863,1755586199512,17.61,-35.08,-12.92,768,759,771,748,814,33.333333333333336,-0.319,-0.542,0.776
36892,1755586199542,17.62,-35.12,-12.94,768,781,774,754,818,34.48275862068966,-0.32,-0.538,0.774
36922,1755586199571,17.62,-35.17,-12.99,771,770,780,754,825,33.333333333333336,-0.324,-0.541,0.774
36951,1755586199601,17.62,-35.16,-12.96,765,772,771,753,820,34.48275862068966,-0.326,-0.545,0.779
36981,1755586199630,17.69,-35.14,-12.92,773,762,766,756,825,33.333333333333336,-0.32,-0.546,0.781
37010,1755586199660,17.7,-35.08,-12.93,772,773,774,748,846,34.48275862068966,-0.315,-0.546,0.78
37040,1755586199690,17.62,-35.05,-12.98,762,764,779,756,817,33.333333333333336,-0.315,-0.546,0.777
37070,1755586199719,17.69,-35.01,-12.98,771,772,777,750,818,33.333333333333336,-0.318,-0.548,0.778
37100,1755586199749,17.62,-34.92,-12.95,772,777,765,750,821,33.333333333333336,-0.323,-0.549,0.775
37130,1755586199779,17.66,-34.92,-12.93,772,764,768,753,814,33.333333333333336,-0.322,-0.543,0.775
37159,1755586199808,17.63,-34.89,-12.93,770,776,777,753,810,34.48275862068966,-0.323,-0.54,0.778
37189,1755586199838,17.62,-34.91,-12.93,770,777,775,753,817,33.333333333333336,-0.323,-0.539,0.777
37218,1755586199868,17.72,-34.96,-12.9,774,780,767,752,819,34.48275862068966,-0.323,-0.539,0.778
37248,1755586199897,17.7,-34.96,-12.91,774,767,775,757,819,33.333333333333336,-0.324,-0.542,0.782
37277,1755586199927,17.72,-34.93,-12.94,770,776,765,756,817,34.48275862068966,-0.323,-0.54,0.779
37307,1755586199957,17.77,-34.95,-12.96,781,774,772,753,815,33.333333333333336,-0.327,-0.541,0.777
37337,1755586199986,17.74,-35.01,-12.94,774,774,767,744,833,33.333333333333336,-0.324,-0.54,0.775
37366,1755586200016,17.8,-35.06,-12.94,774,766,766,749,819,34.48275862068966,-0.323,-0.542,0.779
37396,1755586200045,17.7,-35.0,-12.94,772,774,765,754,829,33.333333333333336,-0.322,-0.545,0.782
37425,1755586200075,17.78,-35.02,-12.93,776,782,766,753,809,34.48275862068966,-0.318,-0.544,0.781
37455,1755586200104,17.8,-34.99,-12.93,771,764,771,755,816,33.333333333333336,-0.321,-0.544,0.781
37485,1755586200134,17.73,-34.95,-12.92,771,763,767,752,820,33.333333333333336,-0.325,-0.545,0.779
37514,1755586200163,17.81,-34.97,-12.89,769,756,779,753,821,34.48275862068966,-0.324,-0.545,0.779
37543,1755586200193,17.78,-34.91,-12.87,769,770,770,748,818,34.48275862068966,-0.324,-0.545,0.781
37573,1755586200223,17.78,-34.86,-12.82,773,764,774,751,822,33.333333333333336,-0.322,-0.544,0.78
37603,1755586200252,17.89,-34.85,-12.77,769,781,765,754,820,33.333333333333336,-0.323,-0.546,0.78
37633,1755586200282,17.85,-34.86,-12.74,769,769,763,753,822,33.333333333333336,-0.322,-0.542,0.776
37662,1755586200312,17.88,-34.87,-12.74,773,774,766,754,819,34.48275862068966,-0.321,-0.54,0.775
37692,1755586200341,17.83,-34.84,-12.74,774,764,767,747,819,33.333333333333336,-0.323,-0.543,0.779
37721,1755586200371,17.87,-34.8,-12.71,774,764,770,753,818,34.48275862068966,-0.323,-0.54,0.778
37751,1755586200401,17.92,-34.8,-12.72,774,774,780,751,819,33.333333333333336,-0.324,-0.536,0.776
37781,1755586200431,17.86,-34.84,-12.76,769,767,770,750,825,33.333333333333336,-0.323,-0.536,0.777
37811,1755586200460,17.91,-34.88,-12.77,773,770,772,758,817,33.333333333333336,-0.326,-0.538,0.78
37841,1755586200490,17.94,-34.9,-12.77,768,773,769,752,846,33.333333333333336,-0.327,-0.537,0.78
37870,1755586200520,17.99,-34.89,-12.78,768,771,771,757,814,34.48275862068966,-0.327,-0.539,0.779
37900,1755586200549,17.94,-34.86,-12.8,770,772,772,761,823,33.333333333333336,-0.33,-0.542,0.776
37929,1755586200579,17.93,-34.88,-12.78,774,768,769,751,815,34.48275862068966,-0.327,-0.542,0.777
37959,1755586200608,18.06,-34.9,-12.76,771,771,772,748,823,33.333333333333336,-0.321,-0.541,0.782
37989,1755586200638,18.0,-34.87,-12.81,772,770,771,756,827,33.333333333333336,-0.322,-0.541,0.782
38018,1755586200667,18.0,-34.84,-12.82,772,771,772,752,811,34.48275862068966,-0.327,-0.544,0.778
38048,1755586200697,18.07,-34.86,-12.78,773,780,764,745,812,33.333333333333336,-0.332,-0.543,0.775
38077,1755586200726,18.05,-34.87,-12.76,769,774,772,754,828,34.48275862068966,-0.331,-0.54,0.776
38107,1755586200756,18.03,-34.89,-12.75,777,766,769,753,822,33.333333333333336,-0.326,-0.54,0.779
38136,1755586200786,18.09,-34.88,-12.75,770,767,774,754,810,34.48275862068966,-0.324,-0.541,0.782
38166,1755586200815,18.09,-34.82,-12.76,773,773,768,747,818,33.333333333333336,-0.325,-0.541,0.782
38196,1755586200845,18.14,-34.8,-12.79,771,762,766,754,815,33.333333333333336,-0.327,-0.539,0.779
38225,1755586200875,18.15,-34.79,-12.81,770,768,774,745,826,34.48275862068966,-0.331,-0.54,0.775
38255,1755586200904,18.19,-34.84,-12.79,769,775,771,756,817,33.333333333333336,-0.332,-0.541,0.773
38284,1755586200934,18.22,-34.91,-12.78,777,777,772,755,821,34.48275862068966,-0.332,-0.538,0.774
38314,1755586200963,18.23,-34.97,-12.8,773,780,767,757,831,33.333333333333336,-0.334,-0.539,0.779
38343,1755586200993,18.17,-34.92,-12.78,770,777,770,754,820,34.48275862068966,-0.334,-0.542,0.78
38373,1755586201023,18.25,-34.91,-12.74,771,775,774,763,813,33.333333333333336,-0.33,-0.54,0.777
38403,1755586201052,18.31,-34.96,-12.74,775,773,771,752,817,33.333333333333336,-0.329,-0.539,0.776
38432,1755586201082,18.21,-34.93,-12.77,770,773,775,758,818,34.48275862068966,-0.329,-0.542,0.779
38462,1755586201112,18.2,-34.87,-12.76,769,771,765,757,819,33.333333333333336,-0.329,-0.541,0.779
38492,1755586201141,18.31,-34.84,-12.73,767,776,774,752,816,33.333333333333336,-0.33,-0.541,0.779
38522,1755586201171,18.3,-34.86,-12.74,774,777,775,747,816,33.333333333333336,-0.332,-0.541,0.777
38551,1755586201200,18.32,-34.87,-12.74,770,769,764,753,820,34.48275862068966,-0.329,-0.537,0.775
