timestamp_ms,recv_timestamp_ms,pitch,roll,yaw,flex1,flex2,flex3,flex4,flex5,sampling_hz,accel_x,accel_y,accel_z
78894,1755586465674,21.75,-30.24,-55.5,808,757,810,864,875,33.333333333333336,-0.363,-0.47,0.807
78923,1755586465703,21.74,-30.21,-55.56,815,771,820,867,868,34.48275862068966,-0.369,-0.472,0.806
78953,1755586465733,21.74,-30.17,-55.57,816,773,825,870,868,33.333333333333336,-0.37,-0.471,0.809
78982,1755586465762,21.81,-30.09,-55.6,816,766,820,865,881,34.48275862068966,-0.368,-0.471,0.813
79012,1755586465792,21.8,-29.95,-55.61,815,762,817,869,872,33.333333333333336,-0.368,-0.473,0.808
79041,1755586465821,21.83,-29.86,-55.58,811,766,821,868,881,34.48275862068966,-0.371,-0.477,0.804
79071,1755586465851,21.88,-29.82,-55.49,813,770,811,874,867,33.333333333333336,-0.367,-0.472,0.804
79100,1755586465880,22.02,-29.75,-55.46,817,765,821,858,891,34.48275862068966,-0.365,-0.465,0.809
79130,1755586465910,21.99,-29.74,-55.51,811,773,817,862,872,33.333333333333336,-0.368,-0.463,0.807
79159,1755586465939,22.05,-29.78,-55.52,811,778,817,868,872,34.48275862068966,-0.375,-0.464,0.799
79189,1755586465969,21.98,-29.92,-55.54,813,767,819,871,870,33.333333333333336,-0.376,-0.46,0.795
79218,1755586465998,21.9,-30.04,-55.58,814,774,816,882,873,34.48275862068966,-0.378,-0.464,0.801
79248,1755586466028,21.83,-30.08,-55.56,811,769,823,872,877,33.333333333333336,-0.376,-0.471,0.811
79277,1755586466057,21.91,-30.02,-55.49,811,769,825,874,867,34.48275862068966,-0.372,-0.47,0.811
79307,1755586466087,21.84,-30.02,-55.5,820,765,817,857,871,33.333333333333336,-0.368,-0.462,0.803
79336,1755586466116,21.74,-30.15,-55.56,814,769,810,870,885,34.48275862068966,-0.371,-0.461,0.802
79366,1755586466146,21.69,-30.26,-55.57,815,776,820,870,866,33.333333333333336,-0.374,-0.466,0.81
79396,1755586466176,21.71,-30.2,-55.51,820,773,820,875,868,33.333333333333336,-0.373,-0.468,0.814
79425,1755586466205,21.68,-30.17,-55.48,814,762,826,865,872,34.48275862068966,-0.364,-0.465,0.811
79455,1755586466235,21.66,-30.17,-55.49,816,767,831,870,871,33.333333333333336,-0.362,-0.464,0.808
79484,1755586466264,21.62,-30.21,-55.51,815,773,834,860,851,34.48275862068966,-0.366,-0.467,0.808
79514,1755586466294,21.64,-30.21,-55.5,804,761,815,862,873,33.333333333333336,-0.368,-0.466,0.808
79543,1755586466323,21.62,-30.22,-55.5,811,769,821,883,870,34.48275862068966,-0.368,-0.464,0.804
79573,1755586466353,21.6,-30.29,-55.54,812,764,819,867,877,33.333333333333336,-0.371,-0.467,0.804
79603,1755586466383,21.59,-30.31,-55.54,808,768,815,876,872,33.333333333333336,-0.374,-0.469,0.805
79632,1755586466413,21.65,-30.31,-55.52,813,773,817,872,876,34.48275862068966,-0.37,-0.467,0.807
79662,1755586466442,21.62,-30.31,-55.56,813,764,818,867,873,33.333333333333336,-0.367,-0.466,0.808
79691,1755586466471,21.65,-30.27,-55.6,810,765,811,863,869,34.48275862068966,-0.367,-0.47,0.81
79721,1755586466501,21.66,-30.18,-55.6,817,770,813,861,877,33.333333333333336,-0.37,-0.471,0.809
79750,1755586466530,21.74,-30.1,-55.58,809,771,826,864,868,34.48275862068966,-0.372,-0.467,0.806
79780,1755586466560,21.74,-30.12,-55.61,813,766,812,871,874,33.333333333333336,-0.371,-0.462,0.8
79809,1755586466589,21.71,-30.2,-55.64,810,766,815,870,876,34.48275862068966,-0.37,-0.467,0.804
79839,1755586466619,21.72,-30.2,-55.63,814,770,819,868,868,33.333333333333336,-0.37,-0.468,0.809
79868,1755586466648,21.75,-30.2,-55.65,805,776,813,874,868,34.48275862068966,-0.365,-0.467,0.809
79898,1755586466678,21.76,-30.19,-55.7,815,769,828,869,874,33.333333333333336,-0.365,-0.468,0.808
79927,1755586466707,21.72,-30.22,-55.74,815,784,823,867,873,34.48275862068966,-0.371,-0.467,0.802
79957,1755586466736,21.73,-30.28,-55.74,814,769,820,868,864,33.333333333333336,-0.377,-0.468,0.805
79986,1755586466766,21.72,-30.29,-55.72,816,762,824,871,881,34.48275862068966,-0.37,-0.467,0.809
80016,1755586466795,21.74,-30.28,-56.2,812,774,817,875,867,33.333333333333336,-0.365,-0.467,0.807
80045,1755586466825,21.71,-30.3,-56.23,811,769,819,865,872,34.48275862068966,-0.367,-0.467,0.807
80075,1755586466855,21.71,-30.32,-56.26,813,757,825,872,888,33.333333333333336,-0.372,-0.466,0.804
80104,1755586466885,21.69,-30.37,-56.29,814,779,822,867,864,34.48275862068966,-0.375,-0.467,0.802
80134,1755586466914,21.66,-30.39,-56.28,809,771,822,869,871,33.333333333333336,-0.375,-0.472,0.807
80164,1755586466943,21.68,-30.37,-56.27,814,767,820,872,876,33.333333333333336,-0.369,-0.472,0.807
80193,1755586466973,21.68,-30.37,-56.29,814,764,821,859,860,34.48275862068966,-0.365,-0.47,0.807
80223,1755586467003,21.66,-30.38,-56.34,811,766,818,870,871,33.333333333333336,-0.368,-0.468,0.806
80253,1755586467033,21.66,-30.38,-56.35,813,764,818,855,874,33.333333333333336,-0.372,-0.471,0.809
80282,1755586467062,21.72,-30.35,-56.31,807,775,821,874,870,34.48275862068966,-0.37,-0.469,0.807
80312,1755586467092,21.7,-30.39,-56.34,806,772,828,869,870,33.333333333333336,-0.368,-0.466,0.802
80342,1755586467121,21.63,-30.45,-56.38,809,771,817,878,880,33.333333333333336,-0.369,-0.468,0.804
80371,1755586467151,21.67,-30.49,-56.39,826,767,810,866,871,34.48275862068966,-0.37,-0.471,0.807
80401,1755586467180,21.67,-30.46,-56.39,813,773,816,866,869,33.333333333333336,-0.37,-0.47,0.806
80430,1755586467210,21.69,-30.44,-56.4,811,766,825,867,870,34.48275862068966,-0.369,-0.47,0.802
80460,1755586467239,21.66,-30.48,-56.42,807,764,824,878,871,33.333333333333336,-0.371,-0.47,0.801
80489,1755586467269,21.65,-30.51,-56.44,811,772,818,870,875,34.48275862068966,-0.372,-0.471,0.804
80519,1755586467298,21.67,-30.47,-56.43,813,766,820,867,870,33.333333333333336,-0.372,-0.472,0.806
80548,1755586467328,21.65,-30.48,-56.45,808,772,824,864,865,34.48275862068966,-0.368,-0.471,0.803
80578,1755586467358,21.64,-30.49,-56.47,815,783,818,875,867,33.333333333333336,-0.37,-0.472,0.803
80607,1755586467387,21.63,-30.59,-56.52,813,769,816,872,875,34.48275862068966,-0.374,-0.476,0.806
80637,1755586467417,21.84,-30.68,-56.54,812,768,837,867,873,33.333333333333336,-0.37,-0.472,0.807
80666,1755586467446,21.69,-30.51,-56.53,813,772,818,869,874,34.48275862068966,-0.365,-0.465,0.805
80696,1755586467475,21.71,-30.44,-56.49,813,767,820,872,872,33.333333333333336,-0.368,-0.468,0.803
80725,1755586467505,21.65,-30.6,-56.52,818,771,813,863,871,34.48275862068966,-0.365,-0.471,0.796
80755,1755586467534,21.65,-30.6,-56.53,807,775,820,878,868,33.333333333333336,-0.364,-0.469,0.802
80784,1755586467564,21.62,-30.54,-56.56,811,774,822,872,867,34.48275862068966,-0.367,-0.473,0.808
80813,1755586467593,21.62,-30.48,-56.54,811,772,818,868,872,34.48275862068966,-0.369,-0.475,0.8
80843,1755586467623,21.66,-30.53,-56.53,814,771,818,865,875,33.333333333333336,-0.369,-0.472,0.798
80872,1755586467652,21.56,-30.55,-56.56,814,774,820,871,872,34.48275862068966,-0.366,-0.471,0.807
80902,1755586467682,21.63,-30.51,-56.58,814,777,814,866,870,33.333333333333336,-0.366,-0.475,0.81
80931,1755586467711,21.69,-30.44,-56.57,820,768,817,871,870,34.48275862068966,-0.368,-0.471,0.803
80961,1755586467741,21.66,-30.51,-56.63,808,767,815,860,879,33.333333333333336,-0.371,-0.466,0.797
80990,1755586467770,21.65,-30.54,-56.65,806,774,812,869,867,34.48275862068966,-0.373,-0.468,0.801
81020,1755586467800,21.68,-30.54,-56.63,808,765,823,863,880,33.333333333333336,-0.376,-0.472,0.803
81049,1755586467829,21.67,-30.54,-56.61,810,768,823,863,866,34.48275862068966,-0.37,-0.471,0.802
81079,1755586467859,21.7,-30.53,-56.65,809,767,833,870,870,33.333333333333336,-0.369,-0.472,0.804
81109,1755586467889,21.64,-30.51,-56.68,814,766,827,866,861,33.333333333333336,-0.371,-0.473,0.803
81139,1755586467919,21.71,-30.49,-56.68,806,767,817,867,875,33.333333333333336,-0.373,-0.472,0.803
81168,1755586467949,21.68,-30.51,-56.69,813,768,820,866,866,34.48275862068966,-0.373,-0.469,0.799
81188,1755586467969,21.67,-30.54,-56.71,814,764,811,866,869,50.0,-0.371,-0.469,0.8
81218,1755586467997,21.67,-30.53,-56.71,812,773,831,866,869,33.333333333333336,-0.37,-0.472,0.806
81247,1755586468027,21.7,-30.49,-56.71,809,767,830,864,870,34.48275862068966,-0.368,-0.469,0.805
81277,1755586468057,21.67,-30.51,-56.78,810,770,813,878,878,33.333333333333336,-0.368,-0.467,0.801
81306,1755586468086,21.63,-30.55,-56.83,809,773,825,869,868,34.48275862068966,-0.373,-0.471,0.803
81336,1755586468115,21.65,-30.57,-56.83,811,775,820,869,878,33.333333333333336,-0.373,-0.471,0.805
81365,1755586468145,21.66,-30.58,-56.85,814,773,809,865,873,34.48275862068966,-0.37,-0.47,0.803
81395,1755586468175,21.62,-30.64,-56.93,813,769,817,873,870,33.333333333333336,-0.365,-0.47,0.803
81424,1755586468204,21.55,-30.73,-57.04,808,774,823,868,868,34.48275862068966,-0.367,-0.47,0.801
81454,1755586468234,21.53,-30.79,-57.11,812,772,816,862,873,33.333333333333336,-0.373,-0.474,0.805
81483,1755586468264,21.52,-30.77,-57.11,814,769,818,875,878,34.48275862068966,-0.375,-0.474,0.805
81513,1755586468293,21.56,-30.76,-57.1,816,782,823,864,870,33.333333333333336,-0.371,-0.475,0.804
81543,1755586468323,21.53,-30.76,-57.13,814,764,817,868,866,33.333333333333336,-0.367,-0.475,0.805
81573,1755586468353,21.5,-30.75,-57.16,821,763,812,868,866,33.333333333333336,-0.367,-0.474,0.803
81602,1755586468382,21.53,-30.75,-57.18,812,770,811,887,883,34.48275862068966,-0.369,-0.475,0.806
81632,1755586468412,21.53,-30.72,-57.18,829,766,817,868,870,33.333333333333336,-0.37,-0.473,0.803
81661,1755586468441,21.51,-30.73,-57.2,810,769,826,864,873,34.48275862068966,-0.367,-0.475,0.802
81691,1755586468471,21.53,-30.74,-57.21,813,770,822,877,868,33.333333333333336,-0.366,-0.476,0.804
81720,1755586468501,21.5,-30.73,-57.23,813,764,818,866,867,34.48275862068966,-0.366,-0.475,0.806
81750,1755586468530,21.53,-30.68,-57.22,813,767,814,870,863,33.333333333333336,-0.367,-0.475,0.804
81780,1755586468560,21.53,-30.7,-57.23,816,767,838,862,875,33.333333333333336,-0.365,-0.476,0.801
81809,1755586468589,21.5,-30.72,-57.24,814,769,825,877,877,34.48275862068966,-0.363,-0.478,0.805
81839,1755586468619,21.49,-30.72,-57.27,814,772,818,872,870,33.333333333333336,-0.363,-0.476,0.804
81868,1755586468648,21.48,-30.73,-57.31,812,761,820,868,880,34.48275862068966,-0.364,-0.473,0.803
81898,1755586468678,21.46,-30.76,-57.35,819,770,819,874,871,33.333333333333336,-0.366,-0.476,0.804
81927,1755586468707,21.46,-30.74,-57.34,813,770,811,867,855,34.48275862068966,-0.367,-0.477,0.807
81957,1755586468738,21.5,-30.68,-57.32,814,774,823,867,872,33.333333333333336,-0.365,-0.474,0.807
81977,1755586468757,21.49,-30.66,-57.34,809,772,820,869,883,50.0,-0.361,-0.47,0.803
82007,1755586468787,21.45,-30.72,-57.4,810,771,817,870,867,33.333333333333336,-0.363,-0.471,0.802
82036,1755586468817,21.46,-30.74,-57.42,809,777,806,872,868,34.48275862068966,-0.366,-0.476,0.806
82066,1755586468846,21.5,-30.71,-57.4,813,774,822,865,867,33.333333333333336,-0.365,-0.478,0.805
82095,1755586468876,21.51,-30.72,-57.41,817,762,814,869,872,34.48275862068966,-0.363,-0.473,0.8
82125,1755586468905,21.45,-30.78,-57.46,817,771,823,866,869,33.333333333333336,-0.363,-0.473,0.804
82155,1755586468935,21.45,-30.79,-57.49,814,772,823,872,868,33.333333333333336,-0.365,-0.479,0.811
82184,1755586468964,21.51,-30.74,-57.47,812,770,810,865,872,34.48275862068966,-0.363,-0.48,0.807
82214,1755586468994,21.51,-30.76,-57.5,819,773,810,873,869,33.333333333333336,-0.362,-0.476,0.8
82243,1755586469023,21.45,-30.8,-57.55,810,771,818,856,864,34.48275862068966,-0.366,-0.475,0.803
82273,1755586469053,21.5,-30.77,-57.55,810,761,809,872,868,33.333333333333336,-0.368,-0.477,0.807
82302,1755586469082,21.52,-30.75,-57.54,813,763,816,863,864,34.48275862068966,-0.365,-0.477,0.804
82332,1755586469112,21.48,-30.77,-57.57,809,770,822,869,866,33.333333333333336,-0.364,-0.476,0.803
82361,1755586469141,21.48,-30.77,-57.59,817,768,821,869,879,34.48275862068966,-0.366,-0.476,0.805
82391,1755586469171,21.52,-30.75,-57.58,817,773,821,873,874,33.333333333333336,-0.369,-0.477,0.806
82421,1755586469201,21.52,-30.72,-57.56,810,762,817,873,876,33.333333333333336,-0.369,-0.475,0.804
82450,1755586469230,21.57,-30.74,-57.55,817,760,819,863,869,34.48275862068966,-0.365,-0.474,0.805
82480,1755586469260,21.59,-30.75,-57.55,802,771,822,877,862,33.333333333333336,-0.363,-0.474,0.805
82510,1755586469290,21.6,-30.75,-57.57,812,770,811,872,876,33.333333333333336,-0.363,-0.477,0.806
82539,1755586469319,21.65,-30.73,-57.56,814,771,812,863,865,34.48275862068966,-0.362,-0.477,0.807
82569,1755586469349,21.73,-30.73,-57.6,816,767,817,878,870,33.333333333333336,-0.363,-0.473,0.806
82599,1755586469378,21.72,-30.73,-57.67,812,777,812,872,876,33.333333333333336,-0.37,-0.472,0.804
82628,1755586469408,21.75,-30.74,-57.68,819,779,815,867,880,34.48275862068966,-0.376,-0.473,0.802
82658,1755586469438,21.76,-30.75,-57.67,813,772,818,868,867,33.333333333333336,-0.376,-0.475,0.802
82687,1755586469467,21.73,-30.77,-57.67,814,768,820,871,873,34.48275862068966,-0.37,-0.477,0.801
82717,1755586469497,21.7,-30.76,-57.69,812,764,822,873,873,33.333333333333336,-0.367,-0.479,0.803
82747,1755586469527,21.68,-30.75,-57.72,817,768,815,871,870,33.333333333333336,-0.371,-0.478,0.801
82776,1755586469556,21.63,-30.77,-57.73,808,777,811,873,874,34.48275862068966,-0.373,-0.476,0.801
82806,1755586469586,21.66,-30.78,-57.75,809,768,822,868,866,33.333333333333336,-0.37,-0.477,0.804
82835,1755586469615,21.65,-30.71,-57.75,811,771,800,871,875,34.48275862068966,-0.37,-0.477,0.805
82865,1755586469645,21.66,-30.7,-57.76,810,766,818,870,865,33.333333333333336,-0.37,-0.475,0.8
82894,1755586469674,21.62,-30.74,-57.77,814,764,818,864,878,34.48275862068966,-0.371,-0.474,0.8
82924,1755586469704,21.61,-30.75,-57.74,814,792,819,871,872,33.333333333333336,-0.372,-0.476,0.804
82953,1755586469733,21.59,-30.7,-57.7,816,765,813,874,871,34.48275862068966,-0.373,-0.476,0.805
82983,1755586469763,21.62,-30.68,-57.66,816,772,816,868,873,33.333333333333336,-0.368,-0.473,0.802
83013,1755586469792,21.63,-30.71,-57.66,817,764,824,872,872,33.333333333333336,-0.368,-0.473,0.802
83042,1755586469822,21.59,-30.74,-57.65,814,774,818,863,869,34.48275862068966,-0.37,-0.476,0.806
83072,1755586469851,21.63,-30.74,-57.62,812,773,818,860,867,33.333333333333336,-0.373,-0.473,0.802
83101,1755586469881,21.57,-30.81,-57.61,815,768,811,871,870,34.48275862068966,-0.375,-0.468,0.797
83130,1755586469910,21.4,-30.89,-57.59,820,769,819,888,868,34.48275862068966,-0.377,-0.472,0.801
83160,1755586469940,21.42,-30.93,-57.56,815,766,824,877,868,33.333333333333336,-0.369,-0.485,0.81
83189,1755586469970,21.52,-30.83,-57.49,816,771,815,873,883,34.48275862068966,-0.368,-0.484,0.806
83219,1755586469999,21.41,-30.85,-57.48,807,762,824,864,855,33.333333333333336,-0.365,-0.472,0.794
83249,1755586470029,21.32,-30.96,-57.51,814,774,821,866,870,33.333333333333336,-0.367,-0.47,0.8
83279,1755586470059,21.28,-30.92,-57.49,810,779,803,864,870,33.333333333333336,-0.368,-0.473,0.813
83308,1755586470088,21.32,-30.76,-57.47,816,769,819,869,870,34.48275862068966,-0.366,-0.472,0.812
83338,1755586470118,21.29,-30.71,-57.5,813,768,819,877,868,33.333333333333336,-0.361,-0.47,0.801
83367,1755586470147,21.23,-30.77,-57.57,812,769,813,885,876,34.48275862068966,-0.364,-0.468,0.796
83397,1755586470177,21.16,-30.82,-57.64,810,771,819,866,875,33.333333333333336,-0.368,-0.469,0.802
83426,1755586470206,21.29,-30.81,-57.64,813,768,807,872,868,34.48275862068966,-0.37,-0.473,0.806
83456,1755586470236,21.32,-30.77,-57.62,816,774,817,876,872,33.333333333333336,-0.363,-0.471,0.803
83485,1755586470266,21.3,-30.79,-57.67,808,770,815,865,867,34.48275862068966,-0.36,-0.472,0.803
83515,1755586470295,21.31,-30.79,-57.69,808,766,819,868,873,33.333333333333336,-0.361,-0.474,0.805
83545,1755586470325,21.38,-30.81,-57.73,813,773,818,863,872,33.333333333333336,-0.362,-0.47,0.807
83574,1755586470354,21.35,-30.8,-57.77,813,772,810,873,871,34.48275862068966,-0.365,-0.472,0.807
83604,1755586470384,21.39,-30.77,-57.75,818,767,820,869,868,33.333333333333336,-0.366,-0.477,0.808
83633,1755586470413,21.46,-30.76,-57.75,804,772,818,869,871,34.48275862068966,-0.366,-0.471,0.803
83663,1755586470443,21.39,-30.83,-57.82,816,770,818,867,875,33.333333333333336,-0.367,-0.466,0.8
83692,1755586470472,21.43,-30.85,-57.87,814,772,824,872,874,34.48275862068966,-0.369,-0.475,0.809
83722,1755586470502,21.5,-30.77,-57.85,816,766,824,871,871,33.333333333333336,-0.366,-0.476,0.808
83751,1755586470531,21.52,-30.75,-57.89,809,769,818,869,852,34.48275862068966,-0.364,-0.471,0.801
83781,1755586470561,21.48,-30.78,-57.96,811,778,813,861,870,33.333333333333336,-0.366,-0.472,0.803
83810,1755586470590,21.55,-30.77,-58.0,813,768,826,868,871,34.48275862068966,-0.368,-0.475,0.806
83840,1755586470620,21.59,-30.72,-58.01,809,766,821,878,872,33.333333333333336,-0.37,-0.474,0.803
83869,1755586470649,21.59,-30.68,-58.04,814,769,814,874,868,34.48275862068966,-0.37,-0.476,0.805
83899,1755586470679,21.63,-30.63,-58.04,813,767,818,870,871,33.333333333333336,-0.37,-0.476,0.802
83929,1755586470709,21.68,-30.6,-58.04,812,772,820,859,875,33.333333333333336,-0.37,-0.471,0.803
83958,1755586470738,21.68,-30.57,-58.08,812,768,821,867,874,34.48275862068966,-0.366,-0.47,0.81
83988,1755586470768,21.72,-30.49,-58.1,815,775,822,878,866,33.333333333333336,-0.365,-0.472,0.805
84018,1755586470798,21.72,-30.51,-58.14,811,773,825,865,883,33.333333333333336,-0.367,-0.471,0.801
84047,1755586470827,21.71,-30.53,-58.18,807,772,816,861,868,34.48275862068966,-0.369,-0.473,0.804
84077,1755586470857,21.72,-30.52,-58.19,812,775,821,870,869,33.333333333333336,-0.371,-0.47,0.802
84106,1755586470886,21.72,-30.58,-58.22,814,771,806,866,870,34.48275862068966,-0.373,-0.468,0.799
84136,1755586470916,21.71,-30.62,-58.26,807,781,818,863,868,33.333333333333336,-0.373,-0.471,0.805
84166,1755586470946,21.76,-30.57,-58.26,816,776,832,868,868,33.333333333333336,-0.372,-0.475,0.806
84195,1755586470975,21.78,-30.54,-58.25,810,775,820,865,897,34.48275862068966,-0.37,-0.475,0.802
84225,1755586471005,21.77,-30.55,-58.27,816,772,814,869,869,33.333333333333336,-0.371,-0.47,0.8
84254,1755586471034,21.73,-30.57,-58.3,809,763,814,878,870,34.48275862068966,-0.374,-0.471,0.802
84284,1755586471064,21.75,-30.54,-58.27,815,769,819,867,871,33.333333333333336,-0.374,-0.475,0.808
84313,1755586471094,21.81,-30.42,-58.23,814,774,824,863,874,34.48275862068966,-0.368,-0.471,0.808
84343,1755586471123,21.84,-30.31,-58.24,816,769,818,870,869,33.333333333333336,-0.368,-0.464,0.8
84373,1755586471153,21.78,-30.34,-58.29,818,766,822,868,881,33.333333333333336,-0.373,-0.465,0.799
84402,1755586471182,21.76,-30.34,-58.29,817,775,821,868,868,34.48275862068966,-0.375,-0.471,0.805
84432,1755586471212,21.79,-30.29,-58.26,808,775,816,869,872,33.333333333333336,-0.373,-0.471,0.804
84461,1755586471241,21.77,-30.32,-58.27,814,765,811,868,875,34.48275862068966,-0.369,-0.465,0.797
84491,1755586471271,21.73,-30.39,-58.32,813,771,810,861,875,33.333333333333336,-0.371,-0.465,0.801
84521,1755586471300,21.75,-30.4,-58.34,812,774,818,865,866,33.333333333333336,-0.375,-0.466,0.805
84550,1755586471330,21.74,-30.31,-58.32,810,768,819,857,865,34.48275862068966,-0.375,-0.47,0.809
84579,1755586471359,21.8,-30.21,-58.29,813,771,825,878,868,34.48275862068966,-0.37,-0.471,0.81
84609,1755586471389,21.89,-30.16,-58.29,813,775,817,868,868,33.333333333333336,-0.368,-0.464,0.803
84638,1755586471418,21.84,-30.18,-58.36,815,759,830,862,878,34.48275862068966,-0.37,-0.462,0.802
84668,1755586471448,21.89,-30.19,-58.38,812,773,813,874,880,33.333333333333336,-0.376,-0.465,0.805
84697,1755586471477,21.93,-30.21,-58.37,810,767,817,864,877,34.48275862068966,-0.374,-0.465,0.804
84727,1755586471507,21.96,-30.23,-58.39,812,774,815,862,858,33.333333333333336,-0.373,-0.464,0.804
84756,1755586471537,21.93,-30.27,-58.41,815,771,821,863,874,34.48275862068966,-0.373,-0.463,0.807
84786,1755586471566,21.98,-30.25,-58.42,815,769,814,865,877,33.333333333333336,-0.373,-0.465,0.809
84815,1755586471595,22.0,-30.21,-58.44,816,771,818,873,860,34.48275862068966,-0.375,-0.464,0.804
84845,1755586471625,21.96,-30.22,-58.45,814,763,818,868,877,33.333333333333336,-0.38,-0.467,0.804
84874,1755586471655,22.01,-30.19,-58.39,814,766,815,871,877,34.48275862068966,-0.379,-0.471,0.809
84904,1755586471684,22.03,-30.12,-58.34,814,771,819,877,877,33.333333333333336,-0.374,-0.467,0.805
84934,1755586471714,22.01,-30.12,-58.33,814,771,819,865,866,33.333333333333336,-0.371,-0.463,0.803
84964,1755586471745,21.99,-30.12,-58.36,812,765,814,877,871,33.333333333333336,-0.374,-0.463,0.806
84984,1755586471764,22.01,-30.11,-58.37,811,777,819,859,868,50.0,-0.377,-0.461,0.808
85014,1755586471794,22.05,-30.09,-58.38,807,763,826,872,876,33.333333333333336,-0.378,-0.459,0.806
85043,1755586471823,22.04,-30.12,-58.42,811,765,810,882,871,34.48275862068966,-0.377,-0.46,0.805
85073,1755586471853,22.07,-30.14,-58.43,812,771,827,860,877,33.333333333333336,-0.376,-0.462,0.806
85102,1755586471883,22.07,-30.13,-58.46,817,771,812,861,866,34.48275862068966,-0.376,-0.463,0.807
85132,1755586471912,22.13,-30.1,-58.47,816,777,817,869,866,33.333333333333336,-0.378,-0.463,0.807
85161,1755586471942,22.12,-30.04,-58.49,813,769,843,864,870,34.48275862068966,-0.378,-0.462,0.806
85191,1755586471971,22.15,-30.03,-58.49,819,769,823,868,869,33.333333333333336,-0.377,-0.465,0.807
85221,1755586472001,22.18,-30.01,-58.47,809,783,831,876,866,33.333333333333336,-0.375,-0.462,0.807
85250,1755586472030,22.17,-29.99,-58.49,810,767,818,870,873,34.48275862068966,-0.374,-0.459,0.807
85280,1755586472060,22.21,-29.96,-58.51,811,772,817,884,865,33.333333333333336,-0.375,-0.46,0.808
85309,1755586472089,22.24,-29.95,-58.53,810,769,810,868,876,34.48275862068966,-0.38,-0.458,0.805
85339,1755586472119,22.26,-29.98,-58.54,810,759,814,863,880,33.333333333333336,-0.383,-0.459,0.802
85368,1755586472148,22.31,-30.03,-58.54,812,765,827,869,873,34.48275862068966,-0.381,-0.46,0.804
85398,1755586472178,22.34,-30.0,-58.56,808,770,820,877,882,33.333333333333336,-0.379,-0.46,0.808
85427,1755586472207,22.37,-29.95,-58.58,812,765,808,864,863,34.48275862068966,-0.381,-0.46,0.808
85457,1755586472237,22.36,-29.9,-58.59,813,770,811,867,869,33.333333333333336,-0.383,-0.461,0.804
85486,1755586472266,22.41,-29.91,-58.59,814,774,815,866,866,34.48275862068966,-0.384,-0.46,0.803
85516,1755586472296,22.4,-29.91,-58.6,812,772,814,866,877,33.333333333333336,-0.384,-0.46,0.804
85546,1755586472325,22.44,-29.87,-58.58,819,774,816,871,873,33.333333333333336,-0.382,-0.461,0.805
85575,1755586472355,22.46,-29.86,-58.58,815,773,823,874,875,34.48275862068966,-0.379,-0.459,0.807
85604,1755586472384,22.52,-29.83,-58.6,811,771,831,870,869,34.48275862068966,-0.379,-0.456,0.807
85634,1755586472414,22.52,-29.8,-58.64,813,769,826,868,876,33.333333333333336,-0.382,-0.459,0.804
85663,1755586472443,22.54,-29.78,-58.65,809,770,821,864,876,34.48275862068966,-0.386,-0.461,0.805
85693,1755586472473,22.54,-29.73,-58.61,815,770,818,867,880,33.333333333333336,-0.388,-0.46,0.802
85722,1755586472502,22.5,-29.73,-58.58,814,773,818,878,874,34.48275862068966,-0.384,-0.457,0.802
85752,1755586472532,22.45,-29.72,-58.6,816,763,812,860,872,33.333333333333336,-0.383,-0.452,0.806
85781,1755586472561,22.43,-29.67,-58.63,806,766,824,872,870,34.48275862068966,-0.385,-0.45,0.806
85811,1755586472591,22.4,-29.67,-58.68,815,771,814,866,873,33.333333333333336,-0.388,-0.453,0.802
85840,1755586472620,22.38,-29.6,-58.72,812,769,805,869,876,34.48275862068966,-0.391,-0.46,0.805
85870,1755586472650,22.36,-29.48,-58.75,814,766,817,854,878,33.333333333333336,-0.389,-0.458,0.806
85899,1755586472679,22.33,-29.45,-58.75,811,771,820,873,870,34.48275862068966,-0.384,-0.456,0.805
85929,1755586472709,22.31,-29.5,-58.78,815,764,807,871,874,33.333333333333336,-0.381,-0.453,0.805
85958,1755586472739,22.23,-29.53,-58.86,812,765,820,874,875,34.48275862068966,-0.381,-0.451,0.807
85988,1755586472768,22.21,-29.54,-58.91,810,772,814,863,881,33.333333333333336,-0.382,-0.451,0.811
86018,1755586472798,22.25,-29.52,-58.94,813,774,815,867,873,33.333333333333336,-0.385,-0.449,0.81
86038,1755586472819,22.25,-29.51,-58.96,815,768,819,867,859,50.0,-0.386,-0.449,0.809
86059,1755586472839,22.25,-29.53,-58.98,808,765,820,863,876,47.61904761904762,-0.386,-0.452,0.81
86089,1755586472868,22.29,-29.49,-58.95,816,769,813,858,874,33.333333333333336,-0.386,-0.456,0.814
86118,1755586472898,22.32,-29.45,-58.9,809,766,806,866,874,34.48275862068966,-0.382,-0.459,0.813
86148,1755586472928,22.35,-29.4,-58.85,816,772,812,867,875,33.333333333333336,-0.377,-0.454,0.811
86177,1755586472957,22.34,-29.41,-58.88,811,776,807,864,882,34.48275862068966,-0.376,-0.446,0.81
86207,1755586472987,22.29,-29.42,-58.94,825,782,819,880,877,33.333333333333336,-0.379,-0.446,0.812
86236,1755586473016,22.35,-29.39,-58.95,812,773,825,863,877,34.48275862068966,-0.382,-0.45,0.813
86266,1755586473046,22.39,-29.38,-58.95,815,774,822,870,870,33.333333333333336,-0.382,-0.449,0.808
86295,1755586473075,22.38,-29.44,-59.0,814,773,833,868,872,34.48275862068966,-0.381,-0.448,0.804
86325,1755586473105,22.37,-29.5,-59.04,814,775,819,873,876,33.333333333333336,-0.383,-0.449,0.809
86354,1755586473134,22.42,-29.46,-59.03,821,761,815,876,873,34.48275862068966,-0.384,-0.453,0.816
86384,1755586473164,22.47,-29.38,-59.02,811,776,814,863,868,33.333333333333336,-0.379,-0.454,0.814
86413,1755586473193,22.47,-29.38,-59.07,808,770,819,867,866,34.48275862068966,-0.377,-0.448,0.806
86443,1755586473223,22.42,-29.43,-59.15,812,769,813,861,867,33.333333333333336,-0.382,-0.447,0.811
86472,1755586473252,22.47,-29.42,-59.16,810,778,821,863,868,34.48275862068966,-0.385,-0.449,0.812
86502,1755586473282,22.51,-29.4,-59.15,814,770,817,875,869,33.333333333333336,-0.381,-0.45,0.811
86532,1755586473311,22.49,-29.38,-59.2,816,772,825,867,873,33.333333333333336,-0.377,-0.452,0.809
86561,1755586473341,22.54,-29.38,-59.23,815,772,822,869,873,34.48275862068966,-0.38,-0.45,0.809
86591,1755586473371,22.56,-29.4,-59.26,817,772,815,865,869,33.333333333333336,-0.385,-0.45,0.806
86620,1755586473400,22.55,-29.46,-59.29,815,772,818,866,866,34.48275862068966,-0.388,-0.451,0.805
86650,1755586473430,22.57,-29.5,-59.28,807,779,804,869,870,33.333333333333336,-0.388,-0.454,0.807
86679,1755586473460,22.57,-29.49,-59.26,816,763,816,870,871,34.48275862068966,-0.383,-0.456,0.809
86709,1755586473489,22.56,-29.46,-59.26,813,770,810,870,867,33.333333333333336,-0.381,-0.457,0.809
86739,1755586473518,22.59,-29.45,-59.28,814,772,819,859,868,33.333333333333336,-0.382,-0.454,0.809
86768,1755586473548,22.6,-29.46,-59.31,816,766,817,872,872,34.48275862068966,-0.385,-0.446,0.806
86797,1755586473577,22.55,-29.51,-59.37,814,772,813,867,866,34.48275862068966,-0.389,-0.448,0.807
86827,1755586473607,22.59,-29.52,-59.37,809,769,829,865,874,33.333333333333336,-0.388,-0.454,0.811
86857,1755586473637,22.62,-29.46,-59.36,813,771,802,861,874,33.333333333333336,-0.386,-0.454,0.81
86886,1755586473666,22.55,-29.44,-59.37,811,771,823,862,862,34.48275862068966,-0.385,-0.453,0.807
86915,1755586473695,22.55,-29.48,-59.38,811,772,811,871,873,34.48275862068966,-0.386,-0.455,0.811
86945,1755586473725,22.56,-29.47,-59.37,816,772,819,869,875,33.333333333333336,-0.387,-0.455,0.813
86974,1755586473755,22.56,-29.42,-59.35,810,768,822,863,873,34.48275862068966,-0.386,-0.455,0.809
86994,1755586473774,22.54,-29.43,-59.34,815,770,824,878,877,50.0,-0.384,-0.454,0.805
87024,1755586473804,22.55,-29.45,-59.34,814,774,818,858,908,33.333333333333336,-0.386,-0.448,0.808
87054,1755586473833,22.53,-29.45,-59.36,814,762,825,873,875,33.333333333333336,-0.387,-0.449,0.809
87083,1755586473863,22.55,-29.42,-59.35,812,774,823,866,865,34.48275862068966,-0.384,-0.453,0.811
87113,1755586473892,22.58,-29.36,-59.35,815,774,817,872,877,33.333333333333336,-0.383,-0.454,0.814
87142,1755586473922,22.58,-29.32,-59.36,811,767,818,874,873,34.48275862068966,-0.383,-0.449,0.807
87172,1755586473952,22.57,-29.34,-59.39,814,766,821,868,873,33.333333333333336,-0.385,-0.447,0.807
87201,1755586473981,22.54,-29.37,-59.43,815,775,818,865,872,34.48275862068966,-0.386,-0.447,0.807
87231,1755586474011,22.49,-29.33,-59.45,813,767,817,870,879,33.333333333333336,-0.385,-0.453,0.814
87261,1755586474041,22.56,-29.23,-59.41,817,769,820,871,871,33.333333333333336,-0.381,-0.456,0.817
87290,1755586474070,22.64,-29.15,-59.38,814,769,815,866,875,34.48275862068966,-0.379,-0.447,0.809
87320,1755586474100,22.57,-29.15,-59.45,814,768,812,855,870,33.333333333333336,-0.379,-0.448,0.81
87349,1755586474129,22.56,-29.15,-59.5,805,772,826,869,874,34.48275862068966,-0.387,-0.451,0.813
87379,1755586474159,22.63,-29.12,-59.49,817,766,816,872,877,33.333333333333336,-0.391,-0.452,0.809
87408,1755586474188,22.6,-29.11,-59.46,812,775,814,867,875,34.48275862068966,-0.39,-0.454,0.81
87438,1755586474218,22.63,-29.08,-59.41,818,765,822,869,868,33.333333333333336,-0.384,-0.452,0.811
87467,1755586474247,22.67,-29.03,-59.42,814,775,828,858,872,34.48275862068966,-0.38,-0.448,0.816
87497,1755586474277,22.68,-28.93,-59.45,813,774,812,869,874,33.333333333333336,-0.38,-0.448,0.818
87526,1755586474306,22.74,-28.84,-59.46,813,768,818,869,900,34.48275862068966,-0.385,-0.443,0.811
87556,1755586474336,22.74,-28.86,-59.51,812,765,804,875,869,33.333333333333336,-0.388,-0.44,0.808
87585,1755586474365,22.76,-28.84,-59.53,813,765,814,870,875,34.48275862068966,-0.391,-0.444,0.813
87615,1755586474395,22.83,-28.78,-59.52,808,770,821,864,880,33.333333333333336,-0.393,-0.446,0.813
87644,1755586474424,22.87,-28.76,-59.49,811,775,818,867,870,34.48275862068966,-0.391,-0.441,0.808
87674,1755586474454,22.88,-28.83,-59.51,810,775,826,866,874,33.333333333333336,-0.389,-0.438,0.805
