timestamp_ms,recv_timestamp_ms,pitch,roll,yaw,flex1,flex2,flex3,flex4,flex5,sampling_hz,accel_x,accel_y,accel_z
57723,1755584743740,39.93,-88.3,-26.52,760,778,816,862,868,33.333333333333336,-0.638,-0.763,0.01
57752,1755584743770,39.91,-88.28,-26.57,758,763,805,863,870,34.48275862068966,-0.64,-0.763,0.01
57782,1755584743800,39.93,-88.27,-26.58,759,776,828,859,863,33.333333333333336,-0.641,-0.765,0.008
57812,1755584743829,39.93,-88.3,-26.59,760,771,820,858,868,33.333333333333336,-0.641,-0.768,0.006
57841,1755584743859,39.88,-88.3,-26.59,756,778,811,857,870,34.48275862068966,-0.638,-0.768,0.006
57871,1755584743888,39.89,-88.28,-26.59,758,776,813,855,867,33.333333333333336,-0.638,-0.768,0.008
57900,1755584743918,39.88,-88.27,-26.58,758,776,825,860,855,34.48275862068966,-0.64,-0.769,0.011
57930,1755584743947,39.89,-88.26,-26.57,763,776,812,859,861,33.333333333333336,-0.64,-0.768,0.011
57959,1755584743977,39.9,-88.25,-26.55,755,775,826,868,873,34.48275862068966,-0.639,-0.768,0.009
57989,1755584744007,39.87,-88.24,-26.54,755,775,816,864,874,33.333333333333336,-0.637,-0.769,0.006
58019,1755584744037,39.84,-88.28,-26.54,754,773,821,857,866,33.333333333333336,-0.636,-0.768,0.004
58039,1755584744056,39.82,-88.32,-26.55,754,768,833,856,870,50.0,-0.636,-0.768,0.005
58068,1755584744086,39.81,-88.34,-26.56,758,763,817,865,874,34.48275862068966,-0.637,-0.767,0.008
58098,1755584744115,39.85,-88.34,-26.53,758,772,811,863,868,33.333333333333336,-0.638,-0.768,0.009
58127,1755584744145,39.83,-88.33,-26.51,764,770,826,856,872,34.48275862068966,-0.638,-0.768,0.008
58157,1755584744174,39.8,-88.37,-26.51,756,764,807,863,863,33.333333333333336,-0.637,-0.769,0.006
58186,1755584744204,39.79,-88.39,-26.5,760,765,819,858,872,34.48275862068966,-0.637,-0.768,0.005
58216,1755584744234,39.78,-88.39,-26.47,759,773,827,860,874,33.333333333333336,-0.637,-0.767,0.008
58236,1755584744253,39.79,-88.41,-26.47,761,769,825,860,866,50.0,-0.637,-0.767,0.01
58265,1755584744283,39.75,-88.39,-26.46,758,774,803,855,868,34.48275862068966,-0.637,-0.767,0.01
58295,1755584744312,39.75,-88.38,-26.44,756,761,817,855,871,33.333333333333336,-0.636,-0.767,0.009
58324,1755584744342,39.74,-88.39,-26.44,761,760,821,850,878,34.48275862068966,-0.636,-0.768,0.008
58354,1755584744372,39.71,-88.38,-26.43,758,769,818,858,871,33.333333333333336,-0.636,-0.769,0.007
58384,1755584744401,39.69,-88.39,-26.42,759,778,817,864,873,33.333333333333336,-0.637,-0.767,0.008
58413,1755584744431,39.72,-88.37,-26.41,759,766,819,858,864,34.48275862068966,-0.636,-0.766,0.01
58443,1755584744461,39.71,-88.37,-26.42,751,768,812,863,873,33.333333333333336,-0.637,-0.767,0.009
58473,1755584744490,39.73,-88.37,-26.41,761,773,829,870,870,33.333333333333336,-0.637,-0.768,0.008
58502,1755584744520,39.71,-88.37,-26.41,756,776,818,865,868,34.48275862068966,-0.637,-0.767,0.008
58532,1755584744549,39.7,-88.38,-26.4,760,766,831,853,871,33.333333333333336,-0.638,-0.768,0.008
58561,1755584744579,39.72,-88.37,-26.39,756,764,824,852,867,34.48275862068966,-0.638,-0.768,0.009
58591,1755584744608,39.69,-88.37,-26.37,755,777,820,858,877,33.333333333333336,-0.637,-0.769,0.008
58620,1755584744638,39.72,-88.35,-26.36,755,767,830,856,875,34.48275862068966,-0.637,-0.768,0.008
58650,1755584744668,39.71,-88.34,-26.35,757,765,804,863,868,33.333333333333336,-0.638,-0.768,0.007
58680,1755584744697,39.7,-88.36,-26.34,755,775,816,860,873,33.333333333333336,-0.638,-0.769,0.006
58709,1755584744727,39.68,-88.37,-26.33,755,772,825,860,883,34.48275862068966,-0.638,-0.769,0.008
58739,1755584744756,39.7,-88.34,-26.31,763,768,820,867,872,33.333333333333336,-0.637,-0.768,0.01
58768,1755584744786,39.71,-88.35,-26.29,764,770,825,857,871,34.48275862068966,-0.637,-0.768,0.01
58798,1755584744815,39.72,-88.34,-26.28,759,767,818,859,875,33.333333333333336,-0.638,-0.767,0.01
58827,1755584744845,39.71,-88.33,-26.27,756,775,824,854,860,34.48275862068966,-0.637,-0.766,0.01
58857,1755584744875,39.72,-88.32,-26.27,767,775,825,874,861,33.333333333333336,-0.637,-0.765,0.009
58887,1755584744904,39.71,-88.35,-26.29,755,777,820,857,872,33.333333333333336,-0.638,-0.767,0.007
58916,1755584744934,39.68,-88.38,-26.31,761,771,820,872,873,34.48275862068966,-0.637,-0.767,0.007
58946,1755584744964,39.69,-88.39,-26.32,756,777,818,856,866,33.333333333333336,-0.638,-0.768,0.009
58976,1755584744993,39.71,-88.38,-26.3,753,768,812,858,865,33.333333333333336,-0.639,-0.77,0.011
59005,1755584745023,39.72,-88.36,-26.27,759,769,816,861,866,34.48275862068966,-0.638,-0.771,0.009
59035,1755584745052,39.73,-88.37,-26.24,758,777,823,861,866,33.333333333333336,-0.637,-0.769,0.007
59064,1755584745082,39.74,-88.38,-26.22,759,774,817,856,870,34.48275862068966,-0.637,-0.768,0.005
59094,1755584745111,39.7,-88.4,-26.23,766,772,815,859,873,33.333333333333336,-0.637,-0.767,0.006
59123,1755584745141,39.71,-88.41,-26.22,755,773,819,857,872,34.48275862068966,-0.638,-0.768,0.009
59153,1755584745170,39.7,-88.41,-26.2,763,766,819,853,871,33.333333333333336,-0.638,-0.769,0.01
59182,1755584745200,39.73,-88.42,-26.18,761,778,826,848,868,34.48275862068966,-0.637,-0.768,0.007
59212,1755584745230,39.69,-88.44,-26.18,759,759,813,852,869,33.333333333333336,-0.636,-0.767,0.006
59242,1755584745259,39.67,-88.44,-26.19,761,771,823,855,871,33.333333333333336,-0.636,-0.767,0.006
59271,1755584745289,39.68,-88.45,-26.2,761,776,824,855,864,34.48275862068966,-0.637,-0.768,0.008
59301,1755584745319,39.68,-88.44,-26.18,757,771,814,865,874,33.333333333333336,-0.638,-0.77,0.008
59331,1755584745348,39.69,-88.45,-26.15,755,779,823,858,865,33.333333333333336,-0.638,-0.77,0.008
59360,1755584745378,39.66,-88.44,-26.14,759,771,823,854,870,34.48275862068966,-0.636,-0.768,0.008
59390,1755584745407,39.66,-88.43,-26.15,760,763,813,857,865,33.333333333333336,-0.636,-0.767,0.008
59419,1755584745437,39.63,-88.43,-26.16,758,772,808,863,871,34.48275862068966,-0.637,-0.768,0.007
59449,1755584745466,39.66,-88.44,-26.14,758,771,822,859,870,33.333333333333336,-0.638,-0.769,0.007
59478,1755584745496,39.67,-88.43,-26.12,758,776,834,848,872,34.48275862068966,-0.637,-0.769,0.007
59508,1755584745526,39.66,-88.43,-26.11,754,765,821,864,875,33.333333333333336,-0.636,-0.768,0.007
59537,1755584745555,39.64,-88.44,-26.12,753,775,818,854,879,34.48275862068966,-0.638,-0.768,0.007
59567,1755584745585,39.64,-88.44,-26.12,751,773,824,854,865,33.333333333333336,-0.639,-0.768,0.006
59597,1755584745615,39.64,-88.45,-26.1,759,770,825,857,860,33.333333333333336,-0.637,-0.767,0.007
59627,1755584745645,39.66,-88.44,-26.1,759,774,819,847,868,33.333333333333336,-0.636,-0.767,0.007
59656,1755584745674,39.69,-88.45,-26.1,753,772,825,857,866,34.48275862068966,-0.639,-0.77,0.008
59686,1755584745703,39.65,-88.45,-26.1,765,772,820,865,868,33.333333333333336,-0.639,-0.769,0.006
59715,1755584745733,39.69,-88.46,-26.09,759,765,807,862,856,34.48275862068966,-0.639,-0.769,0.006
59745,1755584745763,39.71,-88.5,-26.06,759,773,816,857,869,33.333333333333336,-0.639,-0.769,0.006
59775,1755584745792,39.72,-88.49,-26.05,755,769,815,856,873,33.333333333333336,-0.637,-0.768,0.005
59804,1755584745822,39.69,-88.51,-26.06,760,769,808,868,873,34.48275862068966,-0.635,-0.766,0.006
59834,1755584745851,39.71,-88.52,-26.08,755,767,827,852,885,33.333333333333336,-0.636,-0.765,0.006
59863,1755584745881,39.71,-88.52,-26.09,758,771,826,876,868,34.48275862068966,-0.637,-0.767,0.006
59893,1755584745910,39.7,-88.51,-26.1,761,779,827,867,876,33.333333333333336,-0.638,-0.768,0.006
59922,1755584745940,39.68,-88.51,-26.11,759,769,820,869,864,34.48275862068966,-0.637,-0.767,0.006
59952,1755584745970,39.66,-88.5,-26.13,762,772,823,865,874,33.333333333333336,-0.637,-0.768,0.004
59982,1755584745999,39.64,-88.52,-25.67,756,769,812,852,869,33.333333333333336,-0.637,-0.77,0.003
60011,1755584746029,39.65,-88.55,-25.65,764,770,821,862,876,34.48275862068966,-0.636,-0.771,0.004
60041,1755584746058,39.63,-88.56,-25.65,753,766,813,855,864,33.333333333333336,-0.634,-0.77,0.006
60070,1755584746088,39.63,-88.52,-25.65,767,773,838,860,878,34.48275862068966,-0.634,-0.769,0.007
60100,1755584746118,39.64,-88.49,-25.64,756,766,813,859,866,33.333333333333336,-0.636,-0.77,0.005
60130,1755584746147,39.63,-88.51,-25.63,761,774,825,862,873,33.333333333333336,-0.637,-0.77,0.004
60159,1755584746177,39.64,-88.52,-25.63,760,767,823,870,870,34.48275862068966,-0.635,-0.768,0.005
60189,1755584746207,39.65,-88.48,-25.64,757,775,827,860,873,33.333333333333336,-0.634,-0.768,0.008
60219,1755584746236,39.62,-88.43,-25.67,761,775,826,852,867,33.333333333333336,-0.633,-0.77,0.008
60248,1755584746266,39.6,-88.39,-25.69,758,769,831,848,863,34.48275862068966,-0.633,-0.771,0.007
60278,1755584746295,39.59,-88.38,-25.7,767,774,820,858,874,33.333333333333336,-0.634,-0.77,0.008
60307,1755584746325,39.62,-88.37,-25.7,768,771,825,860,873,34.48275862068966,-0.635,-0.771,0.01
60337,1755584746354,39.6,-88.37,-25.7,765,774,826,859,873,33.333333333333336,-0.636,-0.773,0.003
60366,1755584746384,39.63,-88.45,-25.72,755,770,813,858,868,34.48275862068966,-0.635,-0.774,0.001
60396,1755584746413,39.6,-88.48,-25.69,758,775,816,860,866,33.333333333333336,-0.634,-0.772,0.003
60425,1755584746443,39.59,-88.47,-25.69,760,776,815,854,872,34.48275862068966,-0.634,-0.77,0.007
60455,1755584746473,39.54,-88.5,-25.71,760,774,837,852,875,33.333333333333336,-0.635,-0.77,0.007
60485,1755584746502,39.54,-88.51,-25.7,758,779,821,855,875,33.333333333333336,-0.636,-0.771,0.007
60514,1755584746532,39.52,-88.5,-25.68,760,778,829,872,875,34.48275862068966,-0.634,-0.771,0.007
60544,1755584746561,39.53,-88.51,-25.67,762,769,812,855,865,33.333333333333336,-0.633,-0.772,0.008
60573,1755584746591,39.52,-88.48,-25.65,758,765,820,858,880,34.48275862068966,-0.634,-0.772,0.008
60603,1755584746620,39.54,-88.47,-25.63,760,771,814,861,864,33.333333333333336,-0.635,-0.771,0.006
60632,1755584746650,39.51,-88.51,-25.62,754,765,818,870,869,34.48275862068966,-0.634,-0.771,0.005
60662,1755584746680,39.48,-88.52,-25.61,756,763,823,864,879,33.333333333333336,-0.633,-0.771,0.006
60692,1755584746710,39.49,-88.51,-25.6,755,760,816,862,859,33.333333333333336,-0.633,-0.772,0.008
60722,1755584746740,39.51,-88.52,-25.59,758,769,821,856,871,33.333333333333336,-0.633,-0.773,0.008
60752,1755584746770,39.5,-88.5,-25.56,755,777,816,871,860,33.333333333333336,-0.633,-0.772,0.008
60782,1755584746799,39.49,-88.48,-25.55,759,780,825,855,874,33.333333333333336,-0.632,-0.77,0.006
60811,1755584746829,39.44,-88.48,-25.57,761,782,823,858,867,34.48275862068966,-0.632,-0.769,0.005
60841,1755584746858,39.43,-88.52,-25.58,765,765,825,864,864,33.333333333333336,-0.633,-0.77,0.006
60870,1755584746888,39.45,-88.53,-25.57,756,777,820,857,866,34.48275862068966,-0.634,-0.772,0.008
60900,1755584746917,39.45,-88.5,-25.55,760,769,817,854,858,33.333333333333336,-0.633,-0.773,0.008
60929,1755584746947,39.47,-88.49,-25.53,757,775,830,857,868,34.48275862068966,-0.632,-0.772,0.005
60959,1755584746977,39.44,-88.51,-25.53,753,775,811,856,888,33.333333333333336,-0.632,-0.771,0.004
60989,1755584747006,39.44,-88.54,-25.53,758,772,821,858,867,33.333333333333336,-0.633,-0.771,0.005
61018,1755584747036,39.44,-88.52,-25.52,758,769,824,858,866,34.48275862068966,-0.633,-0.771,0.007
61048,1755584747066,39.44,-88.49,-25.5,755,776,812,855,860,33.333333333333336,-0.634,-0.772,0.008
61078,1755584747095,39.44,-88.48,-25.47,751,765,818,861,870,33.333333333333336,-0.634,-0.772,0.007
61107,1755584747125,39.43,-88.48,-25.45,755,766,821,859,865,34.48275862068966,-0.633,-0.771,0.005
61137,1755584747154,39.41,-88.48,-25.45,760,767,822,862,864,33.333333333333336,-0.631,-0.77,0.004
61166,1755584747184,39.44,-88.49,-25.44,756,771,834,861,870,34.48275862068966,-0.633,-0.771,0.006
61196,1755584747214,39.43,-88.48,-25.43,764,762,821,855,873,33.333333333333336,-0.633,-0.771,0.006
61226,1755584747243,39.44,-88.48,-25.42,759,772,832,854,875,33.333333333333336,-0.633,-0.77,0.006
61255,1755584747273,39.43,-88.49,-25.42,760,778,833,852,873,34.48275862068966,-0.632,-0.77,0.005
61285,1755584747302,39.44,-88.5,-25.42,759,776,821,848,870,33.333333333333336,-0.633,-0.77,0.005
61314,1755584747332,39.41,-88.49,-25.43,756,767,825,859,866,34.48275862068966,-0.634,-0.772,0.005
61344,1755584747361,39.41,-88.49,-25.4,753,778,823,863,861,33.333333333333336,-0.635,-0.773,0.005
61374,1755584747391,39.41,-88.5,-25.37,763,769,829,854,864,33.333333333333336,-0.634,-0.771,0.005
61403,1755584747421,39.42,-88.52,-25.38,763,775,825,854,867,34.48275862068966,-0.632,-0.77,0.006
61433,1755584747451,39.39,-88.49,-25.38,760,762,816,861,863,33.333333333333336,-0.632,-0.771,0.006
61463,1755584747480,39.4,-88.48,-25.36,762,765,819,858,879,33.333333333333336,-0.635,-0.773,0.005
61492,1755584747510,39.41,-88.5,-25.33,759,775,820,860,860,34.48275862068966,-0.635,-0.773,0.005
61522,1755584747539,39.38,-88.49,-25.31,761,773,818,866,876,33.333333333333336,-0.633,-0.771,0.006
61551,1755584747569,39.39,-88.48,-25.31,756,770,831,861,857,34.48275862068966,-0.632,-0.77,0.007
61581,1755584747599,39.37,-88.47,-25.31,760,768,818,855,868,33.333333333333336,-0.633,-0.77,0.005
61611,1755584747628,39.39,-88.5,-25.3,757,771,819,855,864,33.333333333333336,-0.634,-0.771,0.006
61640,1755584747658,39.38,-88.48,-25.28,753,768,822,856,859,34.48275862068966,-0.634,-0.771,0.007
61670,1755584747687,39.39,-88.45,-25.26,761,778,817,862,872,33.333333333333336,-0.632,-0.77,0.006
61699,1755584747717,39.38,-88.44,-25.27,754,770,821,854,856,34.48275862068966,-0.632,-0.77,0.005
61729,1755584747747,39.34,-88.44,-25.28,759,775,815,868,869,33.333333333333336,-0.632,-0.77,0.005
61759,1755584747776,39.37,-88.46,-25.28,756,767,824,865,897,33.333333333333336,-0.634,-0.771,0.006
61788,1755584747806,39.38,-88.47,-25.27,754,773,830,858,881,34.48275862068966,-0.634,-0.77,0.006
61818,1755584747836,39.38,-88.48,-25.27,759,771,813,856,871,33.333333333333336,-0.633,-0.77,0.005
61848,1755584747865,39.37,-88.47,-25.27,758,771,817,853,870,33.333333333333336,-0.634,-0.771,0.005
61877,1755584747895,39.36,-88.49,-25.27,752,780,833,864,862,34.48275862068966,-0.633,-0.771,0.005
61907,1755584747924,39.37,-88.5,-25.28,762,775,819,849,889,33.333333333333336,-0.633,-0.772,0.008
61936,1755584747955,39.35,-88.48,-25.27,759,776,825,850,877,34.48275862068966,-0.633,-0.772,0.009
61966,1755584747983,39.39,-88.47,-25.25,757,782,824,860,867,33.333333333333336,-0.634,-0.772,0.007
61995,1755584748013,39.38,-88.46,-25.23,762,772,822,856,860,34.48275862068966,-0.633,-0.771,0.006
62025,1755584748042,39.35,-88.46,-25.24,759,769,814,857,873,33.333333333333336,-0.632,-0.77,0.005
62054,1755584748072,39.35,-88.48,-25.24,754,772,817,864,870,34.48275862068966,-0.633,-0.772,0.006
62084,1755584748102,39.33,-88.48,-25.22,759,776,824,863,878,33.333333333333336,-0.633,-0.772,0.007
62114,1755584748131,39.36,-88.47,-25.21,753,774,823,856,868,33.333333333333336,-0.634,-0.772,0.009
62143,1755584748161,39.34,-88.45,-25.21,758,761,820,855,864,34.48275862068966,-0.633,-0.772,0.008
62173,1755584748191,39.34,-88.47,-25.2,760,769,835,867,859,33.333333333333336,-0.633,-0.771,0.005
62203,1755584748220,39.36,-88.49,-25.19,759,764,823,849,868,33.333333333333336,-0.633,-0.772,0.006
62232,1755584748250,39.33,-88.48,-25.19,762,763,809,862,870,34.48275862068966,-0.632,-0.771,0.007
62262,1755584748279,39.3,-88.47,-25.2,759,767,831,862,871,33.333333333333336,-0.632,-0.771,0.008
62291,1755584748309,39.3,-88.46,-25.18,759,769,822,863,866,34.48275862068966,-0.632,-0.771,0.007
62321,1755584748339,39.31,-88.46,-25.17,759,779,824,863,858,33.333333333333336,-0.633,-0.772,0.007
62351,1755584748368,39.28,-88.45,-25.17,757,774,818,860,873,33.333333333333336,-0.633,-0.771,0.008
62380,1755584748398,39.28,-88.46,-25.17,755,769,825,867,863,34.48275862068966,-0.632,-0.771,0.008
62410,1755584748428,39.27,-88.45,-25.17,762,773,833,855,885,33.333333333333336,-0.632,-0.771,0.009
62440,1755584748457,39.26,-88.46,-25.18,757,769,836,855,874,33.333333333333336,-0.634,-0.772,0.008
62469,1755584748487,39.29,-88.46,-25.16,755,778,824,859,867,34.48275862068966,-0.634,-0.772,0.008
62499,1755584748517,39.29,-88.46,-25.15,758,770,819,868,877,33.333333333333336,-0.632,-0.771,0.008
62529,1755584748546,39.26,-88.47,-25.17,758,767,826,859,877,33.333333333333336,-0.632,-0.771,0.007
62558,1755584748576,39.25,-88.49,-25.18,762,774,821,863,864,34.48275862068966,-0.633,-0.772,0.007
62588,1755584748605,39.25,-88.48,-25.17,764,772,820,863,870,33.333333333333336,-0.633,-0.772,0.009
62617,1755584748635,39.26,-88.48,-25.17,754,757,830,860,867,34.48275862068966,-0.633,-0.771,0.009
62647,1755584748664,39.23,-88.49,-25.19,755,781,808,864,876,33.333333333333336,-0.632,-0.771,0.007
62676,1755584748694,39.2,-88.51,-25.2,764,769,825,859,888,34.48275862068966,-0.632,-0.772,0.006
62706,1755584748723,39.2,-88.5,-25.19,760,771,807,866,860,33.333333333333336,-0.632,-0.773,0.007
62735,1755584748753,39.18,-88.48,-25.18,758,769,821,859,872,34.48275862068966,-0.632,-0.774,0.01
62765,1755584748783,39.21,-88.48,-25.17,759,762,825,856,880,33.333333333333336,-0.632,-0.774,0.01
62794,1755584748812,39.21,-88.48,-25.15,751,773,823,856,864,34.48275862068966,-0.632,-0.774,0.008
62824,1755584748841,39.19,-88.49,-25.15,754,781,825,866,878,33.333333333333336,-0.631,-0.773,0.007
62853,1755584748871,39.21,-88.5,-25.16,758,768,823,855,884,34.48275862068966,-0.631,-0.773,0.009
62883,1755584748901,39.18,-88.94,-25.16,756,775,829,862,867,33.333333333333336,-0.632,-0.774,0.009
62912,1755584748930,39.22,-88.94,-25.14,763,773,822,858,861,34.48275862068966,-0.632,-0.774,0.009
62942,1755584748960,39.22,-88.91,-25.12,761,761,816,855,874,33.333333333333336,-0.631,-0.773,0.009
62962,1755584748980,39.21,-88.89,-25.12,761,773,824,859,868,50.0,-0.631,-0.772,0.008
62992,1755584749010,39.21,-88.92,-25.13,753,774,825,861,874,33.333333333333336,-0.63,-0.771,0.005
63022,1755584749039,39.23,-88.93,-25.12,764,773,827,851,867,33.333333333333336,-0.631,-0.773,0.006
63051,1755584749069,39.23,-88.93,-25.12,757,761,827,864,874,34.48275862068966,-0.632,-0.773,0.007
63081,1755584749099,39.24,-88.91,-25.11,756,771,827,856,867,33.333333333333336,-0.631,-0.774,0.008
63111,1755584749128,39.22,-88.89,-25.11,766,768,811,853,865,33.333333333333336,-0.631,-0.773,0.008
63140,1755584749158,39.23,-88.87,-25.11,760,773,823,857,867,34.48275862068966,-0.63,-0.772,0.006
63170,1755584749188,39.19,-88.87,-25.11,758,772,820,853,895,33.333333333333336,-0.63,-0.772,0.003
63199,1755584749217,39.2,-88.89,-25.12,749,772,823,860,869,34.48275862068966,-0.631,-0.773,0.005
63229,1755584749247,39.19,-88.89,-25.11,751,769,820,857,867,33.333333333333336,-0.631,-0.774,0.007
63259,1755584749276,39.21,-88.88,-25.09,750,773,825,854,867,33.333333333333336,-0.63,-0.774,0.008
63288,1755584749306,39.17,-88.86,-25.09,759,770,842,861,868,34.48275862068966,-0.63,-0.773,0.007
63318,1755584749335,39.15,-88.85,-25.09,759,768,819,854,871,33.333333333333336,-0.631,-0.773,0.006
63347,1755584749365,39.12,-88.81,-25.09,754,774,815,854,862,34.48275862068966,-0.632,-0.773,0.006
63377,1755584749394,39.12,-88.8,-25.08,763,773,821,848,875,33.333333333333336,-0.63,-0.773,0.005
63406,1755584749424,39.14,-88.81,-25.08,757,770,823,862,877,34.48275862068966,-0.629,-0.773,0.007
63436,1755584749454,39.09,-88.8,-25.09,761,770,820,854,873,33.333333333333336,-0.627,-0.773,0.007
63466,1755584749483,39.13,-88.79,-25.1,756,770,830,857,870,33.333333333333336,-0.629,-0.775,0.006
63495,1755584749513,39.13,-88.8,-25.08,764,767,820,862,870,34.48275862068966,-0.631,-0.776,0.008
63524,1755584749542,39.12,-88.77,-25.06,755,769,828,849,866,34.48275862068966,-0.629,-0.774,0.008
63554,1755584749572,39.13,-88.79,-25.07,762,773,820,862,875,33.333333333333336,-0.629,-0.774,0.008
63584,1755584749601,39.14,-88.78,-25.06,762,769,825,859,881,33.333333333333336,-0.63,-0.774,0.008
63613,1755584749631,39.14,-88.75,-25.05,757,774,825,859,861,34.48275862068966,-0.63,-0.774,0.007
63643,1755584749660,39.12,-88.76,-25.06,764,770,828,869,871,33.333333333333336,-0.63,-0.775,0.008
63672,1755584749690,39.12,-88.75,-25.05,761,768,824,849,862,34.48275862068966,-0.629,-0.775,0.008
63702,1755584749719,39.15,-88.73,-25.03,752,774,826,855,862,33.333333333333336,-0.629,-0.774,0.008
63731,1755584749749,39.15,-88.73,-25.04,763,771,825,858,863,34.48275862068966,-0.629,-0.773,0.007
63761,1755584749778,39.11,-88.73,-25.06,761,763,819,854,872,33.333333333333336,-0.629,-0.773,0.005
63790,1755584749808,39.11,-88.73,-25.06,752,770,820,854,871,34.48275862068966,-0.63,-0.775,0.005
63820,1755584749837,39.11,-88.74,-25.04,758,775,809,857,866,33.333333333333336,-0.63,-0.777,0.006
63849,1755584749867,39.1,-88.74,-25.02,776,774,827,857,870,34.48275862068966,-0.629,-0.777,0.008
63879,1755584749896,39.09,-88.71,-25.0,758,771,819,860,869,33.333333333333336,-0.628,-0.776,0.009
63908,1755584749926,39.1,-88.71,-24.98,764,768,823,857,869,34.48275862068966,-0.629,-0.774,0.008
63938,1755584749956,39.11,-88.7,-24.97,760,774,823,854,870,33.333333333333336,-0.629,-0.774,0.007
63968,1755584749985,39.08,-88.71,-24.95,748,771,818,859,870,33.333333333333336,-0.628,-0.775,0.005
63997,1755584750015,39.1,-88.72,-24.94,758,776,838,863,874,34.48275862068966,-0.629,-0.775,0.005
64027,1755584750044,39.08,-88.71,-24.92,750,767,827,859,866,33.333333333333336,-0.63,-0.774,0.009
64056,1755584750074,39.07,-88.69,-24.92,773,777,814,858,902,34.48275862068966,-0.629,-0.774,0.011
64086,1755584750103,39.07,-88.68,-24.91,755,771,823,855,870,33.333333333333336,-0.63,-0.774,0.01
64115,1755584750133,39.07,-88.68,-24.9,749,774,823,852,867,34.48275862068966,-0.624,-0.774,0.006
64145,1755584750163,39.09,-88.7,-24.89,758,772,817,864,876,33.333333333333336,-0.624,-0.773,0.006
64175,1755584750192,39.06,-88.72,-24.91,759,763,827,853,870,33.333333333333336,-0.623,-0.773,0.007
64204,1755584750222,39.08,-88.7,-24.91,760,769,816,858,876,34.48275862068966,-0.627,-0.775,0.009
64234,1755584750251,39.05,-88.68,-24.89,754,770,808,865,868,33.333333333333336,-0.629,-0.775,0.008
64263,1755584750281,39.09,-88.67,-24.87,765,773,808,859,864,34.48275862068966,-0.627,-0.774,0.007
64293,1755584750310,39.04,-88.69,-24.88,759,768,825,870,879,33.333333333333336,-0.627,-0.774,0.006
64322,1755584750340,39.01,-88.69,-24.88,757,768,817,858,868,34.48275862068966,-0.627,-0.774,0.006
64352,1755584750369,39.0,-88.68,-24.87,761,773,834,859,876,33.333333333333336,-0.629,-0.776,0.006
64381,1755584750399,39.02,-88.7,-24.84,761,764,806,865,875,34.48275862068966,-0.629,-0.776,0.008
64411,1755584750429,39.03,-88.68,-24.81,762,764,819,863,872,33.333333333333336,-0.628,-0.775,0.008
64431,1755584750449,39.02,-88.67,-24.8,754,770,818,861,867,50.0,-0.627,-0.774,0.008
64460,1755584750478,39.01,-88.67,-24.8,759,751,815,854,871,34.48275862068966,-0.628,-0.775,0.006
64490,1755584750508,39.01,-88.7,-24.8,759,772,825,856,869,33.333333333333336,-0.628,-0.775,0.004
64520,1755584750537,39.01,-88.7,-24.77,758,774,824,855,872,33.333333333333336,-0.629,-0.776,0.007
64549,1755584750567,39.0,-88.69,-24.75,759,770,821,858,861,34.48275862068966,-0.629,-0.775,0.009
64579,1755584750596,39.01,-88.67,-24.73,757,769,820,852,870,33.333333333333336,-0.627,-0.774,0.007
64608,1755584750626,38.97,-88.67,-24.74,763,776,822,861,878,34.48275862068966,-0.627,-0.774,0.005
64638,1755584750656,38.98,-88.68,-24.73,755,772,816,863,872,33.333333333333336,-0.629,-0.774,0.006
64668,1755584750685,39.02,-88.68,-24.72,763,776,804,856,869,33.333333333333336,-0.629,-0.773,0.006
64697,1755584750715,38.99,-88.65,-24.71,757,773,823,860,870,34.48275862068966,-0.629,-0.773,0.004
64727,1755584750745,38.98,-88.65,-24.71,760,769,818,857,867,33.333333333333336,-0.629,-0.773,0.004
64757,1755584750775,38.98,-88.66,-24.7,760,771,819,863,869,33.333333333333336,-0.63,-0.774,0.006
64787,1755584750804,38.97,-88.65,-24.69,757,777,829,874,872,33.333333333333336,-0.629,-0.775,0.006
64816,1755584750834,38.99,-88.65,-24.68,757,777,816,863,869,34.48275862068966,-0.629,-0.774,0.004
64846,1755584750863,38.99,-88.64,-24.68,748,777,821,845,885,33.333333333333336,-0.629,-0.773,0.005
64875,1755584750892,38.96,-88.65,-24.7,756,773,815,853,868,34.48275862068966,-0.629,-0.773,0.006
64904,1755584750922,38.95,-88.65,-24.7,760,773,813,854,860,34.48275862068966,-0.63,-0.774,0.007
64934,1755584750951,38.98,-88.64,-24.67,759,780,836,855,867,33.333333333333336,-0.63,-0.776,0.007
64963,1755584750981,39.0,-88.63,-24.64,761,772,819,860,884,34.48275862068966,-0.628,-0.775,0.006
64993,1755584751010,39.0,-88.62,-24.63,753,788,820,862,866,33.333333333333336,-0.628,-0.773,0.006
65022,1755584751040,38.97,-88.62,-24.65,757,787,805,858,861,34.48275862068966,-0.629,-0.772,0.004
65052,1755584751070,39.0,-88.67,-24.65,763,771,818,856,899,33.333333333333336,-0.631,-0.774,0.007
65082,1755584751099,38.98,-88.63,-24.62,757,769,828,860,867,33.333333333333336,-0.63,-0.775,0.011
65111,1755584751129,39.01,-88.59,-24.61,756,772,825,860,871,34.48275862068966,-0.628,-0.774,0.007
65141,1755584751159,39.01,-88.61,-24.62,753,775,813,860,868,33.333333333333336,-0.629,-0.773,0.004
65171,1755584751188,38.99,-88.61,-24.64,757,765,819,847,869,33.333333333333336,-0.628,-0.772,0.004
65200,1755584751218,38.96,-88.6,-24.67,757,780,822,847,870,34.48275862068966,-0.628,-0.774,0.005
65230,1755584751247,38.96,-88.64,-24.67,759,766,826,843,866,33.333333333333336,-0.631,-0.777,0.003
65259,1755584751277,38.99,-88.65,-24.63,764,763,830,858,861,34.48275862068966,-0.631,-0.776,0.006
65289,1755584751307,38.99,-88.6,-24.61,761,768,813,859,871,33.333333333333336,-0.628,-0.774,0.009
65319,1755584751337,38.98,-88.58,-24.64,758,778,817,855,867,33.333333333333336,-0.627,-0.773,0.007
65348,1755584751366,38.96,-88.59,-24.64,759,770,815,858,871,34.48275862068966,-0.63,-0.775,0.003
65378,1755584751396,38.95,-88.62,-24.62,764,770,821,850,869,33.333333333333336,-0.631,-0.776,0.004
65408,1755584751425,38.96,-88.64,-24.59,758,765,808,841,875,33.333333333333336,-0.629,-0.775,0.009
65437,1755584751455,38.95,-88.59,-24.59,765,772,822,853,882,34.48275862068966,-0.626,-0.773,0.01
65467,1755584751484,38.94,-88.59,-24.61,758,773,818,854,865,33.333333333333336,-0.627,-0.774,0.005
65496,1755584751514,38.92,-88.61,-24.6,751,765,820,855,875,34.48275862068966,-0.63,-0.775,0.003
65526,1755584751543,38.91,-88.65,-24.59,766,772,806,858,873,33.333333333333336,-0.63,-0.775,0.004
65555,1755584751573,38.93,-88.63,-24.56,761,766,819,858,864,34.48275862068966,-0.629,-0.776,0.008
65585,1755584751603,38.91,-88.6,-24.55,760,773,815,850,873,33.333333333333336,-0.627,-0.775,0.007
65615,1755584751632,38.91,-88.62,-24.55,756,776,812,855,870,33.333333333333336,-0.627,-0.775,0.004
65644,1755584751662,38.88,-88.65,-24.54,759,773,823,861,866,34.48275862068966,-0.629,-0.775,0.003
65674,1755584751691,38.9,-88.67,-24.52,751,762,807,847,875,33.333333333333336,-0.629,-0.774,0.004
65703,1755584751721,38.91,-88.67,-24.51,754,770,828,862,864,34.48275862068966,-0.629,-0.775,0.007
65733,1755584751751,38.89,-88.65,-24.5,770,771,813,854,872,33.333333333333336,-0.628,-0.775,0.007
65763,1755584751780,38.9,-88.63,-24.49,757,764,819,861,866,33.333333333333336,-0.627,-0.776,0.004
65792,1755584751810,38.9,-88.64,-24.47,758,771,825,846,867,34.48275862068966,-0.628,-0.775,0.005
65822,1755584751840,38.9,-88.62,-24.46,748,775,817,850,868,33.333333333333336,-0.627,-0.774,0.006
65852,1755584751869,38.87,-88.62,-24.47,760,771,827,850,866,33.333333333333336,-0.626,-0.774,0.004
65881,1755584751899,38.9,-88.61,-24.48,762,764,837,849,865,34.48275862068966,-0.627,-0.774,0.005
65911,1755584751928,38.91,-88.59,-24.48,753,776,824,859,871,33.333333333333336,-0.627,-0.774,0.006
65940,1755584751958,38.88,-88.58,-24.5,751,780,811,859,859,34.48275862068966,-0.628,-0.774,0.005
65970,1755584751988,38.88,-88.58,-24.5,755,781,828,860,886,33.333333333333336,-0.63,-0.776,0.004
65999,1755584752017,38.9,-88.59,-24.48,756,776,827,855,870,34.48275862068966,-0.628,-0.776,0.004
66029,1755584752047,38.9,-88.59,-24.47,753,772,828,859,858,33.333333333333336,-0.627,-0.776,0.007
66058,1755584752077,38.91,-88.59,-24.47,752,768,817,865,860,34.48275862068966,-0.628,-0.776,0.006
66079,1755584752096,38.9,-88.59,-24.47,759,764,818,855,868,47.61904761904762,-0.628,-0.775,0.004
66108,1755584752126,38.88,-88.61,-24.46,759,776,819,864,875,34.48275862068966,-0.628,-0.775,0.002
66138,1755584752155,38.9,-88.62,-24.44,759,770,820,867,866,33.333333333333336,-0.628,-0.776,0.004
66167,1755584752185,38.91,-88.61,-24.44,760,771,808,856,862,34.48275862068966,-0.627,-0.776,0.006
66197,1755584752215,38.91,-88.6,-24.45,761,765,817,862,857,33.333333333333336,-0.626,-0.776,0.005
66227,1755584752245,38.9,-88.59,-24.45,753,775,820,862,869,33.333333333333336,-0.626,-0.776,0.006
66256,1755584752274,38.9,-88.6,-24.45,760,772,830,866,871,34.48275862068966,-0.627,-0.777,0.005
66286,1755584752304,38.92,-88.6,-24.43,759,771,821,859,875,33.333333333333336,-0.628,-0.777,0.006
66316,1755584752333,38.92,-88.55,-24.41,768,768,820,856,868,33.333333333333336,-0.627,-0.776,0.006
66345,1755584752363,38.9,-88.56,-24.44,759,766,824,852,870,34.48275862068966,-0.625,-0.775,0.004
66375,1755584752392,38.9,-88.63,-24.49,757,772,833,859,857,33.333333333333336,-0.621,-0.775,0.003
66404,1755584752422,38.89,-88.69,-24.56,761,765,821,854,868,34.48275862068966,-0.624,-0.776,0.005
66434,1755584752452,38.88,-88.67,-24.58,757,760,815,862,874,33.333333333333336,-0.626,-0.778,0.006
66464,1755584752481,38.92,-88.67,-24.56,760,773,815,845,864,33.333333333333336,-0.627,-0.78,0.006
66493,1755584752511,38.92,-88.67,-24.53,753,773,822,853,873,34.48275862068966,-0.627,-0.779,0.006
66523,1755584752541,38.9,-88.67,-24.52,756,768,817,845,860,33.333333333333336,-0.625,-0.778,0.005
