timestamp_ms,recv_timestamp_ms,pitch,roll,yaw,flex1,flex2,flex3,flex4,flex5,sampling_hz,accel_x,accel_y,accel_z
56550,1755587068068,61.14,-105.29,-34.03,775,770,776,749,888,33.333333333333336,-0.873,-0.465,-0.138
56580,1755587068098,61.11,-105.24,-34.05,778,772,778,748,876,33.333333333333336,-0.875,-0.467,-0.135
56609,1755587068128,61.11,-105.31,-34.07,771,778,771,744,887,34.48275862068966,-0.875,-0.468,-0.132
56630,1755587068148,61.12,-105.31,-34.06,770,776,778,752,873,47.61904761904762,-0.877,-0.471,-0.125
56659,1755587068178,61.11,-105.15,-34.03,771,780,772,751,876,34.48275862068966,-0.877,-0.471,-0.128
56680,1755587068198,61.08,-105.08,-34.01,776,776,777,749,883,47.61904761904762,-0.875,-0.472,-0.133
56709,1755587068228,61.15,-105.19,-34.02,775,771,774,749,933,34.48275862068966,-0.876,-0.471,-0.134
56739,1755587068258,61.16,-105.23,-33.98,773,766,775,750,881,33.333333333333336,-0.877,-0.47,-0.132
56769,1755587068288,61.18,-105.04,-33.92,771,777,778,748,887,33.333333333333336,-0.878,-0.468,-0.128
56799,1755587068318,61.25,-104.99,-33.91,770,781,771,748,884,33.333333333333336,-0.878,-0.466,-0.132
56819,1755587068338,61.27,-105.05,-33.93,773,774,776,748,892,50.0,-0.877,-0.465,-0.136
56849,1755587068368,61.26,-105.07,-33.92,775,771,771,746,876,33.333333333333336,-0.877,-0.466,-0.138
56869,1755587068388,61.27,-105.11,-33.91,774,770,768,749,881,50.0,-0.876,-0.469,-0.141
56899,1755587068418,61.27,-105.1,-33.92,767,776,773,749,892,33.333333333333336,-0.872,-0.467,-0.14
56929,1755587068448,61.24,-105.15,-33.95,769,765,772,746,903,33.333333333333336,-0.87,-0.468,-0.138
56949,1755587068468,61.21,-105.16,-33.97,777,796,764,743,889,50.0,-0.876,-0.471,-0.139
56979,1755587068498,61.19,-105.19,-33.96,772,776,774,744,890,33.333333333333336,-0.879,-0.472,-0.135
57009,1755587068528,61.25,-105.16,-33.92,766,771,774,742,902,33.333333333333336,-0.878,-0.47,-0.13
57039,1755587068558,61.3,-105.11,-33.89,765,766,766,745,892,33.333333333333336,-0.879,-0.469,-0.13
57069,1755587068587,61.33,-105.12,-33.89,774,773,780,747,882,33.333333333333336,-0.877,-0.466,-0.134
57099,1755587068617,61.35,-105.14,-33.91,769,774,774,746,878,33.333333333333336,-0.875,-0.464,-0.133
57129,1755587068647,61.33,-105.17,-33.95,765,763,774,749,873,33.333333333333336,-0.877,-0.465,-0.135
57159,1755587068677,61.32,-105.23,-33.97,779,780,777,748,895,33.333333333333336,-0.878,-0.468,-0.137
57189,1755587068707,61.3,-105.3,-34.0,779,780,776,749,889,33.333333333333336,-0.875,-0.466,-0.132
57219,1755587068737,61.24,-105.31,-34.06,772,775,765,745,872,33.333333333333336,-0.874,-0.466,-0.13
57239,1755587068757,61.19,-105.32,-34.1,773,770,777,744,883,50.0,-0.875,-0.468,-0.133
57269,1755587068787,61.1,-105.29,-34.12,774,773,792,746,881,33.333333333333336,-0.877,-0.464,-0.137
57298,1755587068817,61.07,-105.34,-34.21,771,769,773,747,883,34.48275862068966,-0.877,-0.468,-0.135
57319,1755587068837,61.04,-105.34,-34.24,775,778,779,748,878,47.61904761904762,-0.878,-0.478,-0.137
57349,1755587068867,61.0,-105.38,-34.17,786,772,768,748,895,33.333333333333336,-0.882,-0.493,-0.144
57379,1755587068897,61.02,-105.52,-34.02,764,771,770,746,882,33.333333333333336,-0.884,-0.495,-0.137
57408,1755587068927,61.15,-105.52,-33.88,775,771,761,747,881,34.48275862068966,-0.878,-0.483,-0.116
57438,1755587068957,61.24,-105.19,-33.73,769,771,769,742,889,33.333333333333336,-0.874,-0.473,-0.111
57468,1755587068987,61.05,-104.95,-33.65,769,777,772,744,882,33.333333333333336,-0.868,-0.465,-0.134
57498,1755587069017,60.99,-105.04,-33.66,769,773,768,743,883,33.333333333333336,-0.873,-0.463,-0.146
57528,1755587069046,61.02,-105.19,-33.65,773,776,774,752,889,33.333333333333336,-0.883,-0.463,-0.14
57558,1755587069077,60.8,-105.26,-33.68,770,775,772,749,885,33.333333333333336,-0.872,-0.465,-0.14
57578,1755587069097,60.61,-105.33,-33.72,774,775,771,747,881,50.0,-0.871,-0.469,-0.134
57608,1755587069126,60.5,-105.47,-33.8,765,767,770,746,884,33.333333333333336,-0.879,-0.463,-0.111
57638,1755587069157,60.34,-105.27,-33.79,770,768,775,750,886,33.333333333333336,-0.884,-0.465,-0.093
57668,1755587069186,60.04,-105.09,-33.81,772,771,778,743,887,33.333333333333336,-0.869,-0.469,-0.104
57698,1755587069216,60.02,-105.31,-34.08,765,777,768,744,877,33.333333333333336,-0.87,-0.473,-0.122
57728,1755587069246,59.89,-105.37,-34.17,770,797,773,750,889,33.333333333333336,-0.877,-0.471,-0.133
57748,1755587069266,59.61,-105.33,-34.18,773,773,772,750,889,50.0,-0.875,-0.47,-0.139
57778,1755587069296,59.65,-105.6,-34.28,768,770,779,748,881,33.333333333333336,-0.885,-0.47,-0.131
57808,1755587069326,59.98,-105.79,-34.3,770,777,772,748,889,33.333333333333336,-0.897,-0.468,-0.116
57837,1755587069356,60.11,-105.57,-34.16,767,765,774,741,879,34.48275862068966,-0.896,-0.473,-0.108
57858,1755587069376,60.18,-105.29,-34.02,773,773,769,742,891,47.61904761904762,-0.89,-0.482,-0.102
57878,1755587069396,60.37,-105.12,-33.9,772,772,778,745,879,50.0,-0.88,-0.482,-0.107
57907,1755587069426,60.92,-105.3,-33.96,773,769,766,744,883,34.48275862068966,-0.873,-0.469,-0.113
57937,1755587069456,60.98,-105.21,-34.02,767,773,774,747,887,33.333333333333336,-0.871,-0.468,-0.112
57967,1755587069486,60.59,-104.96,-34.06,773,780,774,750,889,33.333333333333336,-0.869,-0.477,-0.117
57987,1755587069506,60.45,-104.97,-34.12,771,769,774,749,891,50.0,-0.873,-0.482,-0.128
58007,1755587069526,60.46,-105.13,-34.17,768,776,778,750,883,50.0,-0.88,-0.483,-0.128
58037,1755587069556,60.49,-105.12,-34.12,774,773,773,747,893,33.333333333333336,-0.881,-0.484,-0.11
58058,1755587069576,60.5,-104.93,-34.06,776,771,769,747,885,47.61904761904762,-0.875,-0.48,-0.105
58087,1755587069606,60.62,-104.77,-34.06,766,766,771,749,886,34.48275862068966,-0.873,-0.472,-0.12
58117,1755587069636,60.51,-104.76,-34.1,775,775,773,749,885,33.333333333333336,-0.873,-0.473,-0.135
58147,1755587069666,60.4,-104.77,-34.11,771,769,776,750,885,33.333333333333336,-0.88,-0.478,-0.137
58168,1755587069686,60.38,-104.76,-34.11,774,767,772,742,891,47.61904761904762,-0.878,-0.477,-0.134
58197,1755587069716,60.39,-104.74,-34.09,775,771,775,751,881,34.48275862068966,-0.879,-0.478,-0.123
58227,1755587069746,60.1,-104.61,-34.05,768,775,773,748,888,33.333333333333336,-0.867,-0.477,-0.12
58257,1755587069775,59.97,-104.53,-34.09,769,773,770,743,881,33.333333333333336,-0.872,-0.476,-0.115
58287,1755587069805,59.92,-104.41,-34.1,765,774,777,750,888,33.333333333333336,-0.879,-0.473,-0.112
58317,1755587069835,59.92,-104.35,-34.05,776,769,767,740,885,33.333333333333336,-0.888,-0.476,-0.116
58347,1755587069865,59.92,-104.53,-34.02,771,786,765,749,892,33.333333333333336,-0.885,-0.475,-0.108
58377,1755587069895,60.08,-104.5,-34.0,768,774,778,750,896,33.333333333333336,-0.876,-0.468,-0.098
58406,1755587069925,60.06,-104.4,-34.04,765,762,764,746,901,34.48275862068966,-0.876,-0.464,-0.096
58436,1755587069955,59.99,-104.32,-34.12,777,772,774,749,905,33.333333333333336,-0.876,-0.468,-0.103
58466,1755587069985,60.07,-104.3,-34.12,777,776,778,747,880,33.333333333333336,-0.884,-0.472,-0.109
58496,1755587070015,60.05,-104.28,-34.11,765,776,775,746,881,33.333333333333336,-0.882,-0.47,-0.105
58516,1755587070035,60.03,-104.21,-34.12,774,773,775,752,888,50.0,-0.877,-0.469,-0.101
58546,1755587070065,60.02,-104.14,-34.16,776,790,769,746,877,33.333333333333336,-0.874,-0.469,-0.104
58576,1755587070094,60.07,-104.11,-34.24,773,771,775,745,892,33.333333333333336,-0.873,-0.466,-0.108
58606,1755587070125,59.94,-104.0,-34.32,771,774,778,744,890,33.333333333333336,-0.874,-0.462,-0.099
58626,1755587070145,59.73,-103.87,-34.4,774,771,771,746,879,50.0,-0.875,-0.469,-0.095
58646,1755587070165,59.63,-103.73,-34.43,776,771,775,749,880,50.0,-0.881,-0.48,-0.093
58676,1755587070195,59.72,-103.6,-34.41,773,775,775,749,884,33.333333333333336,-0.883,-0.49,-0.085
58706,1755587070225,59.85,-103.41,-34.33,769,758,770,748,893,33.333333333333336,-0.877,-0.488,-0.077
58726,1755587070245,59.85,-103.14,-34.28,772,774,778,752,889,50.0,-0.87,-0.483,-0.075
58756,1755587070275,59.97,-102.94,-34.28,765,778,767,749,890,33.333333333333336,-0.872,-0.481,-0.087
58786,1755587070305,60.11,-102.89,-34.27,770,765,771,751,883,33.333333333333336,-0.874,-0.487,-0.101
58806,1755587070325,60.18,-102.89,-34.24,772,773,771,750,883,50.0,-0.878,-0.489,-0.11
58826,1755587070345,60.27,-102.94,-34.21,770,772,773,747,878,50.0,-0.876,-0.484,-0.112
58846,1755587070365,60.36,-103.0,-34.2,769,774,770,749,885,50.0,-0.874,-0.478,-0.109
58876,1755587070395,60.51,-103.01,-34.21,770,777,770,745,870,33.333333333333336,-0.88,-0.476,-0.107
58906,1755587070425,60.49,-102.97,-34.2,770,768,774,744,884,33.333333333333336,-0.881,-0.474,-0.101
58926,1755587070445,60.49,-102.95,-34.2,770,776,773,745,893,50.0,-0.878,-0.476,-0.098
58956,1755587070475,60.59,-102.89,-34.16,773,777,773,752,888,33.333333333333336,-0.877,-0.483,-0.091
58977,1755587070495,60.68,-102.76,-34.09,772,776,771,752,893,47.61904761904762,-0.877,-0.485,-0.082
59006,1755587070525,60.76,-102.57,-34.01,766,774,771,748,885,34.48275862068966,-0.876,-0.487,-0.08
59027,1755587070545,60.81,-102.37,-33.93,768,772,778,750,884,47.61904761904762,-0.873,-0.487,-0.086
59047,1755587070565,60.9,-102.3,-33.89,772,772,771,749,878,50.0,-0.873,-0.485,-0.098
59067,1755587070586,61.0,-102.32,-33.87,761,776,774,748,886,50.0,-0.874,-0.48,-0.11
59087,1755587070605,61.06,-102.36,-33.84,776,773,771,752,900,50.0,-0.877,-0.475,-0.112
59117,1755587070636,60.94,-102.38,-33.82,766,772,771,747,880,33.333333333333336,-0.873,-0.471,-0.109
59147,1755587070665,60.91,-102.4,-33.85,769,773,772,747,878,33.333333333333336,-0.877,-0.472,-0.102
59177,1755587070696,60.88,-102.24,-33.81,775,771,767,753,887,33.333333333333336,-0.881,-0.474,-0.1
59197,1755587070716,60.92,-102.15,-33.77,772,774,776,743,883,50.0,-0.883,-0.476,-0.1
59227,1755587070746,61.04,-102.19,-33.74,770,769,770,748,886,33.333333333333336,-0.878,-0.476,-0.099
59248,1755587070766,61.07,-102.15,-33.7,776,778,780,748,878,47.61904761904762,-0.877,-0.476,-0.097
59277,1755587070796,61.06,-102.05,-33.67,771,774,771,750,895,34.48275862068966,-0.875,-0.474,-0.102
59298,1755587070816,61.04,-102.03,-33.66,768,774,765,751,885,47.61904761904762,-0.877,-0.471,-0.107
59327,1755587070846,61.08,-102.13,-33.68,773,773,764,743,882,34.48275862068966,-0.88,-0.471,-0.105
59357,1755587070876,61.08,-102.18,-33.66,771,774,775,748,885,33.333333333333336,-0.882,-0.472,-0.104
59387,1755587070906,61.03,-102.16,-33.63,787,775,776,745,888,33.333333333333336,-0.879,-0.469,-0.101
59407,1755587070926,61.02,-102.45,-33.64,773,771,778,750,885,50.0,-0.879,-0.468,-0.098
59437,1755587070956,61.02,-102.44,-33.66,761,769,773,748,896,33.333333333333336,-0.881,-0.468,-0.096
59467,1755587070986,60.98,-102.39,-33.66,769,767,779,749,870,33.333333333333336,-0.882,-0.47,-0.096
59497,1755587071016,60.99,-102.38,-33.64,769,777,775,751,884,33.333333333333336,-0.884,-0.472,-0.096
59527,1755587071046,61.02,-102.34,-33.62,766,765,771,745,903,33.333333333333336,-0.881,-0.471,-0.095
59557,1755587071076,61.04,-102.3,-33.64,772,777,768,743,886,33.333333333333336,-0.879,-0.471,-0.1
59577,1755587071096,61.05,-102.3,-33.64,775,773,771,750,898,50.0,-0.88,-0.471,-0.106
59607,1755587071126,60.97,-102.42,-33.64,772,777,775,745,881,33.333333333333336,-0.882,-0.472,-0.105
59637,1755587071156,61.01,-102.39,-33.64,774,767,774,751,884,33.333333333333336,-0.881,-0.472,-0.099
59667,1755587071186,60.95,-102.28,-33.61,770,777,768,752,883,33.333333333333336,-0.88,-0.47,-0.095
59697,1755587071216,60.85,-102.16,-33.63,764,776,763,746,880,33.333333333333336,-0.877,-0.47,-0.094
59717,1755587071236,60.85,-102.06,-33.63,767,777,770,747,868,50.0,-0.875,-0.469,-0.093
59747,1755587071265,60.86,-102.03,-33.65,780,772,765,745,894,33.333333333333336,-0.879,-0.471,-0.098
59777,1755587071296,60.85,-102.03,-33.65,763,774,773,745,879,33.333333333333336,-0.884,-0.471,-0.099
59798,1755587071316,60.88,-102.03,-33.62,774,769,774,749,886,47.61904761904762,-0.882,-0.473,-0.099
59827,1755587071346,60.89,-101.98,-33.6,773,771,774,753,889,34.48275862068966,-0.876,-0.472,-0.097
59857,1755587071376,60.88,-102.01,-33.63,771,768,773,750,886,33.333333333333336,-0.877,-0.468,-0.096
59878,1755587071396,60.9,-102.09,-33.69,766,778,783,748,905,47.61904761904762,-0.876,-0.466,-0.096
59907,1755587071426,60.91,-102.01,-33.69,773,778,776,747,888,34.48275862068966,-0.879,-0.468,-0.095
59927,1755587071446,60.89,-101.95,-33.68,769,774,756,752,879,50.0,-0.881,-0.47,-0.098
59957,1755587071476,60.88,-102.16,-33.72,768,776,776,745,863,33.333333333333336,-0.882,-0.47,-0.101
59977,1755587071496,60.87,-102.35,-33.77,768,774,770,740,882,50.0,-0.877,-0.47,-0.097
60007,1755587071526,60.79,-102.32,-33.82,768,776,773,751,879,33.333333333333336,-0.877,-0.47,-0.091
60037,1755587071556,60.72,-102.14,-33.85,770,776,781,745,896,33.333333333333336,-0.879,-0.472,-0.088
60067,1755587071585,60.72,-102.2,-34.01,774,775,773,741,883,33.333333333333336,-0.884,-0.473,-0.088
60097,1755587071615,60.75,-102.08,-34.08,774,781,763,741,884,33.333333333333336,-0.885,-0.476,-0.086
60127,1755587071645,60.71,-101.72,-33.99,770,771,771,752,868,33.333333333333336,-0.879,-0.474,-0.085
60147,1755587071665,60.73,-101.62,-33.95,770,775,771,748,883,50.0,-0.875,-0.473,-0.088
60177,1755587071695,60.84,-101.92,-33.99,778,765,770,745,887,33.333333333333336,-0.874,-0.474,-0.09
60207,1755587071726,60.92,-102.01,-33.96,769,782,774,752,882,33.333333333333336,-0.882,-0.477,-0.087
60227,1755587071746,60.97,-101.87,-33.9,776,774,771,750,894,50.0,-0.878,-0.471,-0.088
60247,1755587071766,60.96,-101.78,-33.87,770,769,786,749,899,50.0,-0.876,-0.471,-0.089
60277,1755587071796,61.02,-101.78,-33.86,774,773,776,747,874,33.333333333333336,-0.876,-0.477,-0.094
60307,1755587071826,61.17,-101.78,-33.78,766,772,772,751,886,33.333333333333336,-0.88,-0.479,-0.097
60337,1755587071856,61.18,-101.74,-33.71,772,767,766,752,867,33.333333333333336,-0.879,-0.472,-0.09
60367,1755587071886,61.11,-101.69,-33.64,783,775,773,749,885,33.333333333333336,-0.872,-0.469,-0.087
60397,1755587071916,61.15,-101.65,-33.66,769,772,771,743,882,33.333333333333336,-0.874,-0.466,-0.092
60427,1755587071945,61.11,-101.61,-33.7,771,773,777,750,892,33.333333333333336,-0.876,-0.466,-0.091
60457,1755587071975,61.06,-101.59,-33.71,775,777,773,748,894,33.333333333333336,-0.882,-0.472,-0.094
60487,1755587072005,61.15,-101.72,-33.65,770,774,766,751,877,33.333333333333336,-0.881,-0.474,-0.093
60507,1755587072025,61.22,-101.66,-33.61,772,768,774,748,888,50.0,-0.88,-0.471,-0.086
60537,1755587072055,61.28,-101.5,-33.54,772,759,769,750,887,33.333333333333336,-0.879,-0.473,-0.086
60567,1755587072085,61.39,-101.59,-33.53,769,766,778,752,887,33.333333333333336,-0.879,-0.473,-0.091
60597,1755587072115,61.39,-101.54,-33.46,772,775,766,743,884,33.333333333333336,-0.879,-0.467,-0.089
60627,1755587072145,61.3,-101.42,-33.46,767,775,777,743,884,33.333333333333336,-0.876,-0.463,-0.088
60647,1755587072166,61.27,-101.4,-33.47,764,769,770,745,876,50.0,-0.876,-0.462,-0.095
60667,1755587072185,61.29,-101.46,-33.5,776,773,774,751,899,50.0,-0.881,-0.463,-0.102
60697,1755587072215,61.26,-101.57,-33.54,776,771,771,751,890,33.333333333333336,-0.884,-0.462,-0.098
60727,1755587072245,61.22,-101.55,-33.59,772,766,769,749,883,33.333333333333336,-0.882,-0.464,-0.092
60747,1755587072265,61.24,-101.45,-33.6,774,774,769,751,881,50.0,-0.885,-0.466,-0.093
60777,1755587072295,61.22,-101.47,-33.65,788,772,769,744,889,33.333333333333336,-0.885,-0.469,-0.098
60807,1755587072325,61.13,-101.4,-33.67,772,768,774,752,881,33.333333333333336,-0.883,-0.472,-0.093
60836,1755587072355,61.0,-101.21,-33.65,771,774,770,757,879,34.48275862068966,-0.881,-0.474,-0.09
60866,1755587072385,60.87,-101.17,-33.68,774,774,769,748,887,33.333333333333336,-0.881,-0.47,-0.093
60896,1755587072415,60.84,-101.22,-33.74,783,776,773,753,889,33.333333333333336,-0.887,-0.466,-0.091
60926,1755587072445,60.77,-101.08,-33.71,772,770,777,747,878,33.333333333333336,-0.891,-0.471,-0.091
60956,1755587072475,60.72,-101.04,-33.69,782,781,764,752,878,33.333333333333336,-0.883,-0.476,-0.092
60976,1755587072495,60.71,-101.08,-33.68,775,773,778,749,881,50.0,-0.874,-0.476,-0.091
61006,1755587072525,60.66,-101.08,-33.72,770,772,775,753,890,33.333333333333336,-0.872,-0.474,-0.081
61036,1755587072555,60.5,-100.95,-33.74,776,771,777,748,882,33.333333333333336,-0.873,-0.474,-0.079
61057,1755587072575,60.48,-100.89,-33.76,767,779,774,751,873,47.61904761904762,-0.878,-0.477,-0.081
61077,1755587072596,60.52,-100.83,-33.74,772,773,767,742,872,50.0,-0.884,-0.484,-0.082
61097,1755587072616,60.62,-100.83,-33.71,779,769,772,750,884,50.0,-0.888,-0.485,-0.084
61117,1755587072635,60.71,-100.86,-33.67,773,775,771,753,885,50.0,-0.884,-0.482,-0.083
61147,1755587072665,60.83,-100.8,-33.65,775,764,763,752,882,33.333333333333336,-0.878,-0.474,-0.076
61177,1755587072696,60.72,-100.64,-33.67,776,776,773,752,882,33.333333333333336,-0.874,-0.471,-0.071
61197,1755587072716,60.66,-100.52,-33.7,773,772,772,746,887,50.0,-0.874,-0.472,-0.075
61227,1755587072745,60.75,-100.58,-33.72,776,771,772,748,884,33.333333333333336,-0.884,-0.474,-0.079
61257,1755587072776,60.84,-100.51,-33.7,764,773,774,745,880,33.333333333333336,-0.884,-0.469,-0.075
61277,1755587072796,60.87,-100.44,-33.7,762,770,768,743,880,50.0,-0.877,-0.467,-0.074
61297,1755587072816,60.86,-100.35,-33.72,772,769,766,748,885,50.0,-0.875,-0.469,-0.075
61327,1755587072846,60.86,-100.3,-33.75,769,777,772,753,885,33.333333333333336,-0.876,-0.472,-0.078
61357,1755587072876,60.92,-100.31,-33.8,773,776,778,750,893,33.333333333333336,-0.875,-0.471,-0.079
61377,1755587072896,60.95,-100.31,-33.83,772,765,775,752,893,50.0,-0.878,-0.472,-0.079
61397,1755587072916,60.97,-100.27,-33.85,765,775,773,751,893,50.0,-0.88,-0.473,-0.079
61427,1755587072946,60.9,-100.23,-33.84,765,771,769,748,872,33.333333333333336,-0.883,-0.478,-0.078
61457,1755587072976,60.92,-100.21,-33.81,769,776,768,746,880,33.333333333333336,-0.88,-0.48,-0.078
61477,1755587072996,61.02,-100.22,-33.81,773,765,771,745,886,50.0,-0.878,-0.478,-0.077
61498,1755587073016,61.09,-100.19,-33.8,766,769,782,752,898,47.61904761904762,-0.877,-0.473,-0.074
61528,1755587073046,60.97,-100.11,-33.79,768,776,771,750,884,33.333333333333336,-0.878,-0.476,-0.078
61558,1755587073076,61.03,-100.05,-33.75,769,772,781,745,877,33.333333333333336,-0.883,-0.479,-0.078
61578,1755587073096,61.06,-100.04,-33.72,775,758,774,751,882,50.0,-0.882,-0.478,-0.077
61598,1755587073116,61.07,-100.0,-33.69,775,768,779,755,878,50.0,-0.88,-0.476,-0.074
61628,1755587073146,61.11,-99.91,-33.68,769,772,770,753,882,33.333333333333336,-0.876,-0.47,-0.073
61658,1755587073176,61.1,-99.86,-33.71,774,773,774,749,883,33.333333333333336,-0.878,-0.47,-0.075
61678,1755587073196,61.03,-99.79,-33.71,774,771,769,747,885,50.0,-0.88,-0.474,-0.077
61698,1755587073216,60.97,-99.73,-33.7,763,759,766,753,880,50.0,-0.881,-0.479,-0.079
61728,1755587073246,61.06,-99.73,-33.66,778,774,774,752,884,33.333333333333336,-0.882,-0.482,-0.08
61758,1755587073276,61.12,-99.71,-33.59,775,777,769,749,877,33.333333333333336,-0.879,-0.478,-0.077
61788,1755587073306,61.15,-99.66,-33.59,772,770,772,750,875,33.333333333333336,-0.875,-0.473,-0.076
61818,1755587073336,61.15,-99.61,-33.59,774,771,776,751,872,33.333333333333336,-0.878,-0.472,-0.079
61847,1755587073366,61.12,-99.7,-33.63,776,776,778,752,889,34.48275862068966,-0.879,-0.472,-0.082
61877,1755587073396,61.13,-99.7,-33.62,770,775,777,753,874,33.333333333333336,-0.881,-0.472,-0.077
61907,1755587073426,61.09,-99.58,-33.59,767,771,775,748,890,33.333333333333336,-0.879,-0.472,-0.071
61937,1755587073455,61.14,-99.51,-33.59,773,776,773,752,882,33.333333333333336,-0.877,-0.472,-0.075
61967,1755587073485,61.26,-99.57,-33.62,774,770,780,752,882,33.333333333333336,-0.879,-0.471,-0.079
61997,1755587073515,61.21,-99.6,-33.61,773,771,769,745,894,33.333333333333336,-0.881,-0.475,-0.082
62017,1755587073535,61.18,-99.58,-33.59,767,771,772,752,894,50.0,-0.878,-0.474,-0.081
62037,1755587073555,61.21,-99.58,-33.59,766,771,773,755,879,50.0,-0.877,-0.472,-0.077
62067,1755587073586,61.24,-99.56,-33.61,769,773,766,755,903,33.333333333333336,-0.877,-0.472,-0.075
62087,1755587073605,61.26,-99.56,-33.62,764,770,774,752,882,50.0,-0.879,-0.476,-0.075
62117,1755587073635,61.31,-99.51,-33.58,770,767,774,745,881,33.333333333333336,-0.882,-0.476,-0.071
62147,1755587073665,61.31,-99.41,-33.56,772,769,772,750,886,33.333333333333336,-0.879,-0.474,-0.065
62177,1755587073695,61.35,-99.23,-33.53,765,769,775,745,881,33.333333333333336,-0.876,-0.47,-0.068
62197,1755587073715,61.39,-99.18,-33.54,763,770,770,753,877,50.0,-0.876,-0.47,-0.074
62226,1755587073745,61.39,-99.21,-33.55,769,778,775,747,896,34.48275862068966,-0.88,-0.471,-0.08
62256,1755587073775,61.33,-99.19,-33.54,771,772,769,752,873,33.333333333333336,-0.882,-0.469,-0.081
62286,1755587073805,61.35,-99.19,-33.54,766,775,773,743,890,33.333333333333336,-0.884,-0.469,-0.078
62316,1755587073835,61.37,-99.16,-33.56,774,768,774,747,886,33.333333333333336,-0.88,-0.468,-0.076
62346,1755587073865,61.4,-99.16,-33.58,773,767,776,753,878,33.333333333333336,-0.88,-0.471,-0.077
62376,1755587073894,61.34,-99.15,-33.58,769,778,776,747,894,33.333333333333336,-0.88,-0.473,-0.077
62406,1755587073925,61.42,-99.19,-33.58,775,773,774,758,890,33.333333333333336,-0.882,-0.473,-0.077
62427,1755587073945,61.47,-99.19,-33.59,771,773,773,750,881,47.61904761904762,-0.882,-0.471,-0.076
62456,1755587073975,61.49,-99.2,-33.6,770,765,770,756,898,34.48275862068966,-0.881,-0.47,-0.073
62486,1755587074005,61.46,-99.16,-33.6,768,771,770,747,890,33.333333333333336,-0.881,-0.473,-0.074
62516,1755587074035,61.49,-99.18,-33.6,762,771,766,750,875,33.333333333333336,-0.881,-0.475,-0.079
62546,1755587074065,61.57,-99.22,-33.61,770,773,774,751,874,33.333333333333336,-0.882,-0.471,-0.078
62566,1755587074085,61.58,-99.23,-33.61,773,771,777,749,882,50.0,-0.881,-0.467,-0.076
62596,1755587074115,61.49,-99.14,-33.61,778,778,778,753,887,33.333333333333336,-0.874,-0.47,-0.078
62626,1755587074144,61.53,-99.22,-33.66,770,770,776,745,881,33.333333333333336,-0.875,-0.474,-0.081
62656,1755587074174,61.58,-99.26,-33.69,765,768,779,746,881,33.333333333333336,-0.879,-0.474,-0.072
62686,1755587074204,61.55,-99.06,-33.66,775,774,786,753,897,33.333333333333336,-0.879,-0.472,-0.066
62716,1755587074234,61.62,-98.96,-33.65,780,771,775,753,880,33.333333333333336,-0.882,-0.472,-0.07
62746,1755587074264,61.69,-98.98,-33.66,769,777,773,752,894,33.333333333333336,-0.884,-0.474,-0.076
62775,1755587074294,61.7,-98.99,-33.63,778,778,771,749,884,34.48275862068966,-0.882,-0.475,-0.075
62796,1755587074314,61.67,-98.93,-33.61,773,768,778,753,885,47.61904761904762,-0.878,-0.474,-0.074
62825,1755587074344,61.68,-98.87,-33.63,775,770,775,753,884,34.48275862068966,-0.878,-0.473,-0.072
62845,1755587074364,61.68,-98.85,-33.64,772,775,775,756,883,50.0,-0.877,-0.476,-0.074
62866,1755587074384,61.69,-98.82,-33.62,768,782,769,765,886,47.61904761904762,-0.88,-0.477,-0.075
62895,1755587074414,61.77,-98.8,-33.6,769,781,764,756,882,34.48275862068966,-0.88,-0.476,-0.074
62925,1755587074444,61.79,-98.81,-33.61,772,769,774,747,888,33.333333333333336,-0.877,-0.477,-0.077
62946,1755587074464,61.78,-98.84,-33.61,771,774,772,749,877,47.61904761904762,-0.876,-0.476,-0.079
62975,1755587074494,61.81,-98.82,-33.6,771,767,771,748,879,34.48275862068966,-0.879,-0.475,-0.077
63005,1755587074524,61.77,-98.73,-33.59,759,771,776,746,887,33.333333333333336,-0.88,-0.475,-0.076
63025,1755587074544,61.77,-98.69,-33.58,767,775,772,753,880,50.0,-0.881,-0.475,-0.078
63046,1755587074565,61.84,-98.72,-33.56,771,782,779,750,876,47.61904761904762,-0.882,-0.474,-0.08
63066,1755587074585,61.89,-98.74,-33.57,769,775,772,748,894,50.0,-0.88,-0.473,-0.078
63086,1755587074605,61.89,-98.74,-33.55,773,773,761,752,875,50.0,-0.881,-0.476,-0.077
63106,1755587074625,61.85,-98.68,-33.52,778,779,774,756,880,50.0,-0.879,-0.477,-0.075
63136,1755587074655,61.84,-98.61,-33.48,769,764,757,749,885,33.333333333333336,-0.88,-0.475,-0.077
63166,1755587074685,61.81,-98.64,-33.46,770,774,776,758,887,33.333333333333336,-0.88,-0.475,-0.08
63186,1755587074705,61.78,-98.65,-33.44,776,765,774,755,894,50.0,-0.877,-0.473,-0.08
63207,1755587074725,61.8,-98.65,-33.44,775,776,771,753,886,47.61904761904762,-0.875,-0.472,-0.078
63237,1755587074755,61.84,-98.63,-33.45,772,772,781,754,875,33.333333333333336,-0.876,-0.472,-0.078
63266,1755587074785,61.79,-98.63,-33.43,771,777,777,753,869,34.48275862068966,-0.878,-0.473,-0.08
63296,1755587074815,61.78,-98.62,-33.41,774,775,772,753,883,33.333333333333336,-0.879,-0.473,-0.078
63326,1755587074845,61.79,-98.59,-33.38,764,774,773,751,893,33.333333333333336,-0.879,-0.472,-0.078
63346,1755587074865,61.78,-98.58,-33.37,765,770,768,755,878,50.0,-0.879,-0.472,-0.078
63376,1755587074895,61.78,-98.54,-33.35,766,771,778,751,889,33.333333333333336,-0.879,-0.472,-0.077
63406,1755587074925,61.74,-98.54,-33.35,769,777,774,755,883,33.333333333333336,-0.879,-0.473,-0.076
63436,1755587074955,61.79,-98.55,-33.34,780,773,772,757,881,33.333333333333336,-0.88,-0.473,-0.076
63457,1755587074975,61.84,-98.54,-33.34,764,770,770,747,883,47.61904761904762,-0.88,-0.471,-0.075
63486,1755587075005,61.83,-98.51,-33.36,766,778,777,750,882,34.48275862068966,-0.879,-0.468,-0.078
63507,1755587075025,61.81,-98.51,-33.37,773,781,774,755,883,47.61904761904762,-0.876,-0.469,-0.082
63536,1755587075055,61.82,-98.53,-33.38,776,770,787,756,877,34.48275862068966,-0.876,-0.469,-0.083
63566,1755587075085,61.76,-98.5,-33.37,769,784,771,751,916,33.333333333333336,-0.881,-0.471,-0.079
63596,1755587075115,61.73,-98.44,-33.33,767,784,773,751,877,33.333333333333336,-0.883,-0.472,-0.077
63616,1755587075135,61.77,-98.4,-33.3,774,769,771,759,883,50.0,-0.884,-0.472,-0.075
63646,1755587075165,61.79,-98.35,-33.26,775,775,768,749,875,33.333333333333336,-0.882,-0.472,-0.074
63676,1755587075195,61.77,-98.36,-33.25,774,773,767,745,884,33.333333333333336,-0.88,-0.472,-0.076
63696,1755587075215,61.76,-98.35,-33.26,773,770,772,761,881,50.0,-0.878,-0.472,-0.078
63726,1755587075245,61.77,-98.42,-33.3,772,777,773,754,881,33.333333333333336,-0.878,-0.471,-0.079
63756,1755587075275,61.81,-98.53,-33.36,781,769,770,748,880,33.333333333333336,-0.877,-0.47,-0.079
63786,1755587075304,61.89,-98.57,-33.39,771,773,773,753,875,33.333333333333336,-0.881,-0.469,-0.075
63816,1755587075334,61.87,-98.5,-33.4,772,773,769,750,877,33.333333333333336,-0.881,-0.467,-0.072
63846,1755587075364,61.78,-98.51,-33.45,770,780,781,754,884,33.333333333333336,-0.88,-0.471,-0.078
63876,1755587075394,61.86,-98.59,-33.47,774,777,770,752,882,33.333333333333336,-0.882,-0.475,-0.08
63905,1755587075424,61.89,-98.57,-33.45,771,766,774,752,888,34.48275862068966,-0.882,-0.473,-0.076
63935,1755587075454,61.86,-98.56,-33.45,771,771,776,747,876,33.333333333333336,-0.881,-0.471,-0.076
63955,1755587075474,61.82,-98.59,-33.46,774,773,775,759,893,50.0,-0.881,-0.471,-0.079
63985,1755587075504,61.81,-98.69,-33.49,763,767,777,746,890,33.333333333333336,-0.88,-0.473,-0.08
64015,1755587075534,61.77,-98.74,-33.49,769,775,771,748,885,33.333333333333336,-0.882,-0.473,-0.079
64045,1755587075564,61.73,-98.75,-33.5,771,782,779,747,881,33.333333333333336,-0.882,-0.471,-0.074
64075,1755587075594,61.72,-98.7,-33.51,774,772,775,752,881,33.333333333333336,-0.882,-0.471,-0.074
64105,1755587075623,61.68,-98.68,-33.5,762,771,773,751,882,33.333333333333336,-0.882,-0.472,-0.078
64135,1755587075654,61.67,-98.77,-33.5,773,766,779,749,887,33.333333333333336,-0.882,-0.476,-0.081
64155,1755587075673,61.66,-98.82,-33.5,775,772,769,753,878,50.0,-0.881,-0.477,-0.078
64185,1755587075704,61.66,-98.81,-33.52,774,781,774,755,907,33.333333333333336,-0.879,-0.477,-0.071
64205,1755587075723,61.64,-98.74,-33.51,772,774,775,752,880,50.0,-0.881,-0.478,-0.068
64235,1755587075753,61.64,-98.67,-33.45,774,782,767,751,877,33.333333333333336,-0.884,-0.477,-0.074
64265,1755587075783,61.7,-98.73,-33.42,776,777,776,753,882,33.333333333333336,-0.884,-0.475,-0.074
64295,1755587075813,61.66,-98.7,-33.37,770,768,776,749,890,33.333333333333336,-0.881,-0.474,-0.07
64325,1755587075843,61.64,-98.58,-33.3,776,779,775,750,885,33.333333333333336,-0.879,-0.476,-0.069
64345,1755587075863,61.66,-98.59,-33.29,768,769,779,754,878,50.0,-0.875,-0.474,-0.072
64375,1755587075893,61.67,-98.63,-33.3,765,766,778,754,873,33.333333333333336,-0.878,-0.47,-0.073
64404,1755587075923,61.58,-98.55,-33.26,761,776,769,756,876,34.48275862068966,-0.885,-0.467,-0.077
64425,1755587075943,61.56,-98.54,-33.25,761,771,772,751,881,47.61904761904762,-0.885,-0.466,-0.081
64454,1755587075973,61.68,-98.51,-33.21,769,779,766,754,878,34.48275862068966,-0.886,-0.467,-0.082
64475,1755587075993,61.67,-98.48,-33.19,770,777,767,750,880,47.61904761904762,-0.884,-0.468,-0.08
64505,1755587076023,61.6,-98.38,-33.2,779,776,776,754,877,33.333333333333336,-0.883,-0.464,-0.073
64525,1755587076043,61.64,-98.38,-33.26,764,769,769,759,877,50.0,-0.883,-0.467,-0.071
64545,1755587076063,61.61,-98.35,-33.26,777,774,767,758,879,50.0,-0.887,-0.475,-0.076
64574,1755587076093,61.55,-98.46,-33.26,772,769,768,747,872,34.48275862068966,-0.881,-0.481,-0.086
64595,1755587076114,61.55,-98.58,-33.27,767,764,772,749,901,47.61904761904762,-0.879,-0.482,-0.081
