timestamp_ms,recv_timestamp_ms,pitch,roll,yaw,flex1,flex2,flex3,flex4,flex5,sampling_hz,accel_x,accel_y,accel_z
98767,1755604151868,10.15,68.22,-4.09,812,866,851,387,866,34.48275862068966,-0.158,0.918,0.375
98797,1755604151870,10.16,68.21,-4.14,800,866,840,398,867,33.333333333333336,-0.157,0.919,0.376
98827,1755604151872,10.13,68.21,-4.12,806,858,843,368,857,33.333333333333336,-0.157,0.917,0.375
98856,1755604151874,10.11,68.19,-4.15,807,869,836,332,866,34.48275862068966,-0.158,0.918,0.375
98886,1755604151876,10.11,68.24,-4.17,812,872,835,343,866,33.333333333333336,-0.16,0.919,0.376
98915,1755604151878,10.09,68.25,-4.15,812,870,833,401,872,34.48275862068966,-0.16,0.917,0.375
98945,1755604151881,10.08,68.25,-4.16,806,878,845,396,871,33.333333333333336,-0.159,0.918,0.375
98975,1755604151883,10.08,68.25,-4.18,808,871,829,350,866,33.333333333333336,-0.158,0.918,0.376
99004,1755604151884,10.06,68.28,-4.19,811,860,840,342,867,34.48275862068966,-0.157,0.918,0.375
99034,1755604151886,10.05,68.31,-4.21,806,873,833,383,872,33.333333333333336,-0.158,0.918,0.374
99063,1755604151889,10.02,68.29,-4.17,810,877,834,397,871,34.48275862068966,-0.159,0.917,0.373
99093,1755604151890,10.0,68.28,-4.17,811,869,832,380,861,33.333333333333336,-0.159,0.919,0.372
99122,1755604151893,9.98,68.27,-4.18,806,866,827,340,872,34.48275862068966,-0.158,0.919,0.372
99152,1755604151895,9.95,68.29,-4.17,804,863,840,379,866,33.333333333333336,-0.157,0.919,0.373
99181,1755604151897,9.94,68.28,-4.18,812,865,824,407,873,34.48275862068966,-0.157,0.918,0.374
99211,1755604151900,9.93,68.27,-4.19,802,866,834,409,867,33.333333333333336,-0.157,0.918,0.375
99240,1755604151901,9.92,68.27,-4.2,802,870,838,355,871,34.48275862068966,-0.158,0.919,0.376
99270,1755604151904,9.93,68.29,-4.21,804,874,838,350,868,33.333333333333336,-0.158,0.919,0.375
99299,1755604151906,9.91,68.28,-4.22,809,864,834,407,871,34.48275862068966,-0.157,0.919,0.373
99329,1755604151908,9.89,68.25,-4.23,805,873,840,407,873,33.333333333333336,-0.156,0.918,0.373
99358,1755604151910,9.86,68.26,-4.22,811,866,831,373,871,34.48275862068966,-0.157,0.92,0.374
99388,1755604151912,9.85,68.29,-4.23,808,870,836,313,878,33.333333333333336,-0.156,0.92,0.375
99418,1755604151914,9.84,68.29,-4.26,807,866,840,367,868,33.333333333333336,-0.156,0.92,0.373
99447,1755604151916,9.8,68.27,-4.25,808,868,836,404,869,34.48275862068966,-0.156,0.92,0.373
99477,1755604151918,9.75,68.27,-4.22,807,868,836,381,861,33.333333333333336,-0.157,0.919,0.374
99507,1755604151919,9.74,68.28,-4.22,808,866,837,354,872,33.333333333333336,-0.157,0.92,0.374
99536,1755604151921,9.74,68.27,-4.23,802,862,828,366,870,34.48275862068966,-0.158,0.919,0.374
99566,1755604151923,9.72,68.28,-4.14,810,873,836,420,866,33.333333333333336,-0.158,0.919,0.376
99595,1755604151925,9.69,68.26,-4.11,807,870,836,406,868,34.48275862068966,-0.155,0.92,0.374
99624,1755604151928,9.69,68.3,-4.14,806,863,841,337,856,34.48275862068966,-0.153,0.921,0.375
99654,1755604151930,9.67,68.29,-4.15,813,869,838,337,872,33.333333333333336,-0.152,0.92,0.374
99684,1755604151932,9.63,68.27,-4.14,808,868,836,375,874,33.333333333333336,-0.152,0.92,0.375
99713,1755604151934,9.64,68.27,-4.18,805,868,842,395,871,34.48275862068966,-0.154,0.92,0.375
99743,1755604151936,9.63,68.24,-4.15,808,870,830,375,872,33.333333333333336,-0.154,0.918,0.376
99772,1755604151938,9.63,68.25,-4.15,807,870,844,327,863,34.48275862068966,-0.152,0.919,0.378
99802,1755604151940,9.65,68.29,-4.17,808,864,831,369,862,33.333333333333336,-0.151,0.921,0.378
99831,1755604151942,9.63,68.34,-4.17,804,866,833,402,861,34.48275862068966,-0.151,0.92,0.376
99861,1755604151944,9.63,68.33,-4.18,810,865,837,403,856,33.333333333333336,-0.151,0.919,0.373
99890,1755604151946,9.62,68.3,-4.18,803,866,831,349,871,34.48275862068966,-0.151,0.921,0.374
99920,1755604151948,9.6,68.32,-4.17,802,877,823,341,873,33.333333333333336,-0.151,0.922,0.376
99949,1755604151950,9.62,68.34,-4.2,808,860,838,392,867,34.48275862068966,-0.151,0.922,0.374
99979,1755604151952,9.59,68.29,-4.15,813,860,840,395,875,33.333333333333336,-0.151,0.918,0.373
100009,1755604151954,9.57,68.28,-4.12,805,871,832,361,865,33.333333333333336,-0.15,0.92,0.374
100038,1755604151956,9.57,68.32,-4.13,802,867,843,341,883,34.48275862068966,-0.15,0.922,0.375
100068,1755604151958,9.56,68.35,-4.13,807,867,839,381,860,33.333333333333336,-0.151,0.92,0.375
100097,1755604151960,9.56,68.32,-4.11,812,862,843,413,873,34.48275862068966,-0.15,0.919,0.373
100127,1755604151962,9.54,68.34,-4.12,810,867,834,381,868,33.333333333333336,-0.149,0.921,0.374
100156,1755604151965,9.53,68.38,-4.13,810,868,837,338,868,34.48275862068966,-0.148,0.922,0.375
100186,1755604151966,9.52,68.39,-4.16,809,868,840,358,866,33.333333333333336,-0.148,0.921,0.373
100216,1755604151968,9.5,68.39,-4.17,808,871,834,394,866,33.333333333333336,-0.148,0.921,0.372
100246,1755604151971,9.48,68.39,-4.18,816,864,844,412,880,33.333333333333336,-0.148,0.921,0.373
100275,1755604151972,9.47,68.42,-4.21,807,867,829,323,875,34.48275862068966,-0.149,0.921,0.372
100305,1755604151974,9.46,68.4,-4.22,803,865,837,315,864,33.333333333333336,-0.149,0.921,0.372
100334,1755604151976,9.45,68.39,-4.25,808,869,834,362,868,34.48275862068966,-0.147,0.922,0.372
100364,1755604151978,9.44,68.43,-4.29,809,863,836,398,864,33.333333333333336,-0.149,0.921,0.373
100393,1755604151980,9.43,68.44,-4.28,803,864,820,381,872,34.48275862068966,-0.15,0.92,0.373
100422,1755604151982,9.43,68.42,-4.3,806,871,834,347,867,34.48275862068966,-0.15,0.921,0.373
100452,1755604151984,9.42,68.38,-4.31,809,867,839,349,875,33.333333333333336,-0.149,0.92,0.372
100482,1755604151986,9.39,68.39,-4.31,805,869,843,403,870,33.333333333333336,-0.147,0.922,0.373
100511,1755604151988,9.39,68.41,-4.35,812,875,843,397,868,34.48275862068966,-0.147,0.922,0.374
100532,1755604151990,9.39,68.4,-4.39,808,877,846,378,864,47.61904761904762,-0.149,0.922,0.371
100561,1755604151992,9.36,68.39,-4.37,807,867,844,379,868,34.48275862068966,-0.151,0.92,0.372
100590,1755604151994,9.35,68.39,-4.36,811,874,831,336,866,34.48275862068966,-0.15,0.92,0.375
100620,1755604151996,9.37,68.4,-4.38,803,866,835,339,868,33.333333333333336,-0.15,0.922,0.377
100649,1755604151998,9.38,68.43,-4.39,810,862,829,401,864,34.48275862068966,-0.149,0.921,0.375
100678,1755604152000,9.37,68.43,-4.4,810,872,844,405,875,34.48275862068966,-0.147,0.92,0.372
100708,1755604152002,9.37,68.44,-4.43,810,876,840,354,867,33.333333333333336,-0.148,0.921,0.372
100737,1755604152004,9.37,68.41,-4.44,809,866,842,339,877,34.48275862068966,-0.15,0.92,0.371
100766,1755604152007,9.35,68.41,-4.42,807,866,835,382,873,34.48275862068966,-0.151,0.921,0.372
100796,1755604152009,9.34,68.43,-4.4,806,863,841,403,872,33.333333333333336,-0.15,0.923,0.373
100825,1755604152011,9.33,68.44,-4.39,808,855,835,359,865,34.48275862068966,-0.147,0.922,0.372
100845,1755604152013,9.32,68.41,-4.4,813,864,842,412,865,50.0,-0.147,0.921,0.371
100875,1755604152015,9.31,68.4,-4.41,808,862,845,377,865,33.333333333333336,-0.147,0.921,0.373
100905,1755604152016,9.31,68.44,-4.42,808,870,845,330,867,33.333333333333336,-0.149,0.923,0.375
100934,1755604152019,9.34,68.46,-4.43,801,871,837,383,865,34.48275862068966,-0.15,0.921,0.373
100963,1755604152021,9.33,68.44,-4.42,807,868,822,414,870,34.48275862068966,-0.148,0.921,0.371
100993,1755604152023,9.32,68.44,-4.42,807,870,828,382,867,33.333333333333336,-0.148,0.921,0.373
101023,1755604152025,9.33,68.48,-4.44,803,865,841,353,863,33.333333333333336,-0.148,0.922,0.375
101052,1755604152027,9.34,68.49,-4.46,809,867,838,375,876,34.48275862068966,-0.149,0.921,0.373
101081,1755604152030,9.34,68.45,-4.47,806,867,841,414,875,34.48275862068966,-0.149,0.92,0.37
101111,1755604152032,9.31,68.45,-4.47,808,869,842,393,874,33.333333333333336,-0.148,0.921,0.37
101140,1755604152034,9.3,68.49,-4.5,806,863,842,338,857,34.48275862068966,-0.149,0.922,0.374
101161,1755604152036,9.31,68.5,-4.52,808,877,837,411,871,47.61904761904762,-0.151,0.923,0.373
101190,1755604152038,9.31,68.5,-4.5,806,861,840,315,867,34.48275862068966,-0.151,0.921,0.371
101220,1755604152040,9.3,68.47,-4.51,812,868,830,351,869,33.333333333333336,-0.149,0.922,0.371
101249,1755604152042,9.27,68.44,-4.51,809,870,837,401,867,34.48275862068966,-0.147,0.922,0.372
101279,1755604152044,9.25,68.44,-4.55,808,877,836,405,868,33.333333333333336,-0.148,0.921,0.373
101308,1755604152046,9.25,68.44,-4.56,811,866,825,354,868,34.48275862068966,-0.15,0.923,0.372
101338,1755604152048,9.2,68.44,-4.55,806,862,837,344,876,33.333333333333336,-0.149,0.922,0.371
101367,1755604152050,9.21,68.43,-4.58,814,871,833,385,871,34.48275862068966,-0.149,0.921,0.374
101397,1755604152052,9.22,68.43,-4.6,822,863,839,430,873,33.333333333333336,-0.15,0.921,0.374
101427,1755604152054,9.2,68.48,-4.58,806,879,841,401,864,33.333333333333336,-0.149,0.921,0.374
101456,1755604152056,9.21,68.46,-4.61,804,860,834,349,864,34.48275862068966,-0.148,0.92,0.373
101485,1755604152058,9.18,68.45,-4.61,810,862,837,367,867,34.48275862068966,-0.148,0.921,0.372
101515,1755604152061,9.17,68.45,-4.65,811,867,843,413,869,33.333333333333336,-0.149,0.92,0.374
101544,1755604152062,9.2,68.45,-4.67,800,869,837,408,871,34.48275862068966,-0.15,0.919,0.372
101574,1755604152065,9.18,68.43,-4.66,808,865,846,363,869,33.333333333333336,-0.15,0.92,0.371
101603,1755604152066,9.18,68.38,-4.68,814,866,830,363,872,34.48275862068966,-0.15,0.92,0.373
101633,1755604152069,9.17,68.39,-4.68,809,872,844,414,880,33.333333333333336,-0.15,0.921,0.374
101662,1755604152071,9.15,68.43,-4.68,810,861,838,425,876,34.48275862068966,-0.149,0.921,0.373
101692,1755604152073,9.17,68.4,-4.71,809,868,838,368,877,33.333333333333336,-0.149,0.92,0.375
101721,1755604152075,9.16,68.41,-4.72,811,870,830,342,865,34.48275862068966,-0.149,0.921,0.375
101751,1755604152076,9.16,68.4,-4.73,810,860,839,385,873,33.333333333333336,-0.148,0.921,0.374
101780,1755604152079,9.14,68.39,-4.75,811,867,832,397,867,34.48275862068966,-0.148,0.921,0.374
101809,1755604152081,9.16,68.39,-4.77,808,869,838,370,860,34.48275862068966,-0.148,0.921,0.377
101839,1755604152083,9.16,68.42,-4.77,809,867,842,341,871,33.333333333333336,-0.148,0.921,0.375
101868,1755604152085,9.17,68.42,-4.79,823,871,843,370,874,34.48275862068966,-0.148,0.921,0.372
101898,1755604152087,9.16,68.41,-4.8,805,867,838,426,873,33.333333333333336,-0.146,0.921,0.373
101927,1755604152089,9.14,68.4,-4.82,806,867,840,413,860,34.48275862068966,-0.146,0.921,0.374
101956,1755604152091,9.16,68.39,-4.86,806,866,831,344,867,34.48275862068966,-0.149,0.921,0.373
101986,1755604152093,9.14,68.36,-4.84,809,868,843,350,869,33.333333333333336,-0.149,0.919,0.373
102015,1755604152095,9.13,68.39,-4.85,805,868,837,392,854,34.48275862068966,-0.15,0.922,0.373
102045,1755604152097,9.16,68.4,-4.88,810,873,844,395,860,33.333333333333336,-0.15,0.921,0.373
102075,1755604152099,9.15,68.39,-4.87,810,872,840,363,871,33.333333333333336,-0.148,0.92,0.374
102104,1755604152101,9.16,68.38,-4.9,808,870,843,350,870,34.48275862068966,-0.148,0.921,0.375
102134,1755604152103,9.15,68.37,-4.92,803,866,844,372,864,33.333333333333336,-0.149,0.92,0.374
102164,1755604152105,9.14,68.36,-4.92,808,876,837,423,870,33.333333333333336,-0.149,0.921,0.374
102194,1755604152107,9.15,68.37,-4.92,806,869,850,390,868,33.333333333333336,-0.15,0.922,0.376
102223,1755604152109,9.15,68.38,-4.92,803,868,842,336,860,34.48275862068966,-0.15,0.921,0.375
102253,1755604152111,9.17,68.37,-4.94,810,857,837,346,866,33.333333333333336,-0.149,0.92,0.373
102282,1755604152114,9.16,68.35,-4.94,809,866,831,400,865,34.48275862068966,-0.148,0.919,0.375
102312,1755604152116,9.16,68.38,-4.95,802,868,845,391,868,33.333333333333336,-0.149,0.922,0.377
102341,1755604152118,9.18,68.43,-4.98,810,880,839,304,875,34.48275862068966,-0.149,0.922,0.376
102371,1755604152120,9.18,68.42,-4.98,807,868,839,307,872,33.333333333333336,-0.15,0.92,0.371
102400,1755604152122,9.15,68.35,-4.99,807,864,845,356,861,34.48275862068966,-0.149,0.919,0.37
102430,1755604152124,9.14,68.34,-4.99,810,874,841,381,872,33.333333333333336,-0.149,0.922,0.373
102460,1755604152126,9.15,68.38,-5.01,802,865,840,370,869,33.333333333333336,-0.149,0.922,0.376
102489,1755604152128,9.16,68.37,-5.04,805,874,836,347,868,34.48275862068966,-0.149,0.92,0.374
102519,1755604152130,9.14,68.38,-5.07,808,875,833,360,867,33.333333333333336,-0.149,0.92,0.373
102548,1755604152132,9.13,68.39,-5.09,806,872,838,415,863,34.48275862068966,-0.149,0.92,0.374
102568,1755604152134,9.11,68.37,-5.11,806,870,846,351,859,50.0,-0.149,0.92,0.372
102598,1755604152136,9.09,68.34,-5.16,811,852,831,393,866,33.333333333333336,-0.15,0.92,0.372
102627,1755604152138,9.08,68.32,-5.18,809,869,829,380,867,34.48275862068966,-0.153,0.918,0.373
102656,1755604152140,9.04,68.34,-5.12,811,867,842,344,867,34.48275862068966,-0.152,0.918,0.369
102686,1755604152142,8.99,68.29,-5.12,808,863,832,342,868,33.333333333333336,-0.15,0.92,0.369
102716,1755604152144,8.95,68.3,-5.1,803,863,830,402,865,33.333333333333336,-0.15,0.921,0.374
102745,1755604152146,8.92,68.29,-5.07,816,871,834,414,870,34.48275862068966,-0.148,0.92,0.375
102775,1755604152148,8.9,68.24,-5.07,802,866,838,379,871,33.333333333333336,-0.144,0.92,0.375
102805,1755604152150,8.88,68.24,-5.08,806,869,835,338,866,33.333333333333336,-0.142,0.922,0.376
102834,1755604152152,8.84,68.22,-5.16,809,867,836,363,870,34.48275862068966,-0.141,0.921,0.377
102864,1755604152154,8.86,68.18,-5.22,802,872,844,416,886,33.333333333333336,-0.145,0.919,0.378
102893,1755604152156,8.87,68.12,-5.22,812,855,832,350,873,34.48275862068966,-0.149,0.917,0.379
102923,1755604152159,8.88,68.09,-5.22,802,875,838,318,865,33.333333333333336,-0.149,0.918,0.381
102952,1755604152160,8.89,68.1,-5.18,813,873,843,346,878,34.48275862068966,-0.149,0.92,0.383
102982,1755604152163,8.9,68.11,-5.18,811,872,837,392,874,33.333333333333336,-0.146,0.92,0.383
103012,1755604152165,8.91,68.11,-5.2,804,873,841,390,873,33.333333333333336,-0.146,0.919,0.384
103041,1755604152167,8.91,68.11,-5.21,811,873,837,356,868,34.48275862068966,-0.148,0.919,0.384
103071,1755604152169,8.91,68.13,-5.23,811,868,840,304,871,33.333333333333336,-0.148,0.917,0.382
103100,1755604152171,8.93,68.16,-5.27,810,866,844,373,855,34.48275862068966,-0.149,0.917,0.379
103130,1755604152173,8.93,68.14,-5.29,810,870,837,387,871,33.333333333333336,-0.15,0.917,0.379
103159,1755604152175,8.94,68.16,-5.26,808,870,824,373,870,34.48275862068966,-0.149,0.918,0.381
103189,1755604152177,8.96,68.16,-5.26,803,869,839,346,870,33.333333333333336,-0.146,0.917,0.38
103219,1755604152179,8.96,68.11,-5.28,805,851,824,343,871,33.333333333333336,-0.144,0.917,0.378
103248,1755604152181,8.95,68.11,-5.29,809,874,838,406,866,34.48275862068966,-0.144,0.92,0.38
103278,1755604152183,8.96,68.1,-5.32,807,862,835,391,870,33.333333333333336,-0.147,0.919,0.381
103307,1755604152185,8.96,68.12,-5.32,806,872,840,346,869,34.48275862068966,-0.149,0.918,0.379
103327,1755604152187,8.95,68.13,-5.32,808,861,826,401,872,50.0,-0.149,0.919,0.377
103357,1755604152189,8.93,68.1,-5.34,810,863,835,338,866,33.333333333333336,-0.147,0.918,0.377
103386,1755604152191,8.93,68.07,-5.38,810,871,837,345,870,34.48275862068966,-0.146,0.918,0.381
103416,1755604152193,8.93,68.06,-5.41,810,863,843,352,873,33.333333333333336,-0.149,0.917,0.382
103445,1755604152195,8.93,68.07,-5.43,806,860,840,376,870,34.48275862068966,-0.149,0.918,0.383
103475,1755604152197,8.94,68.09,-5.44,811,864,839,338,857,33.333333333333336,-0.149,0.918,0.38
103504,1755604152199,8.94,68.08,-5.47,810,864,839,335,866,34.48275862068966,-0.149,0.917,0.376
103534,1755604152201,8.93,68.03,-5.48,807,870,842,374,874,33.333333333333336,-0.152,0.918,0.378
103563,1755604152203,8.95,68.02,-5.46,805,866,842,409,874,34.48275862068966,-0.154,0.917,0.381
103593,1755604152206,8.96,68.06,-5.39,809,873,843,396,874,33.333333333333336,-0.152,0.916,0.382
103622,1755604152208,8.97,68.06,-5.4,812,873,839,343,871,34.48275862068966,-0.147,0.919,0.381
103652,1755604152210,8.97,68.08,-5.44,805,870,830,356,870,33.333333333333336,-0.144,0.918,0.382
103672,1755604152212,8.96,68.07,-5.45,808,865,831,360,866,50.0,-0.143,0.917,0.381
103702,1755604152214,8.94,68.04,-5.45,804,870,830,376,866,33.333333333333336,-0.145,0.917,0.38
103731,1755604152216,8.94,68.04,-5.5,807,864,837,409,865,34.48275862068966,-0.147,0.919,0.38
103761,1755604152218,8.96,68.05,-5.52,809,880,847,396,872,33.333333333333336,-0.149,0.918,0.381
103790,1755604152220,8.98,68.05,-5.5,810,867,834,352,864,34.48275862068966,-0.15,0.917,0.383
103820,1755604152222,9.01,68.09,-5.51,807,858,846,349,861,33.333333333333336,-0.149,0.919,0.383
103849,1755604152224,9.02,68.11,-5.52,811,873,825,397,862,34.48275862068966,-0.145,0.917,0.379
103878,1755604152226,9.0,68.05,-5.55,803,870,838,402,870,34.48275862068966,-0.147,0.917,0.375
103908,1755604152229,8.98,68.04,-5.57,804,872,826,388,870,33.333333333333336,-0.15,0.919,0.381
103937,1755604152230,8.99,68.08,-5.57,806,869,844,353,875,34.48275862068966,-0.153,0.918,0.38
103967,1755604152232,9.01,68.08,-5.57,807,863,837,394,870,33.333333333333336,-0.151,0.916,0.379
103996,1755604152234,9.02,68.09,-5.54,806,874,846,409,901,34.48275862068966,-0.149,0.92,0.381
104026,1755604152237,9.02,68.12,-5.55,808,866,839,390,873,33.333333333333336,-0.147,0.919,0.379
104055,1755604152239,9.03,68.1,-5.58,807,864,842,335,874,34.48275862068966,-0.147,0.918,0.377
104085,1755604152241,9.01,68.06,-5.6,804,861,825,358,874,33.333333333333336,-0.146,0.917,0.378
104114,1755604152243,9.0,68.05,-5.61,806,874,837,414,866,34.48275862068966,-0.148,0.918,0.379
104144,1755604152245,9.0,68.04,-5.62,802,868,846,410,868,33.333333333333336,-0.15,0.918,0.379
104174,1755604152247,9.01,68.02,-5.62,807,871,840,367,870,33.333333333333336,-0.15,0.918,0.38
104203,1755604152249,9.02,68.0,-5.64,806,866,838,353,868,34.48275862068966,-0.148,0.917,0.382
104233,1755604152251,9.02,68.03,-5.64,804,868,841,378,868,33.333333333333336,-0.148,0.92,0.382
104263,1755604152253,9.04,68.03,-5.66,807,874,836,407,875,33.333333333333336,-0.148,0.919,0.38
104283,1755604152255,9.06,68.0,-5.69,810,876,836,371,867,50.0,-0.147,0.917,0.381
104312,1755604152257,9.09,68.08,-5.72,808,859,839,389,868,34.48275862068966,-0.148,0.918,0.383
104342,1755604152259,9.11,68.24,-5.69,814,866,834,366,872,33.333333333333336,-0.15,0.92,0.381
106066,1755604152262,8.5,71.64,-4.91,800,845,800,344,858,0.580046403712297,-0.131,0.945,0.313
106096,1755604152264,8.44,71.71,-4.92,803,846,810,392,851,33.333333333333336,-0.13,0.948,0.313
106125,1755604152265,8.44,71.72,-4.98,801,854,805,371,854,34.48275862068966,-0.13,0.945,0.316
106155,1755604152268,8.44,71.79,-5.01,809,847,808,351,871,33.333333333333336,-0.132,0.946,0.316
106184,1755604152270,8.43,71.35,-4.99,810,839,805,347,861,34.48275862068966,-0.133,0.944,0.315
106214,1755604152272,8.4,71.31,-4.96,800,841,809,403,851,33.333333333333336,-0.13,0.943,0.312
106243,1755604152274,8.38,71.3,-5.0,808,844,813,395,851,34.48275862068966,-0.129,0.945,0.314
106263,1755604152276,8.36,71.34,-5.03,798,844,813,394,850,50.0,-0.129,0.948,0.316
106293,1755604152277,8.34,71.35,-5.05,802,837,810,380,852,33.333333333333336,-0.13,0.946,0.315
106322,1755604152280,8.33,71.28,-5.07,800,839,807,349,855,34.48275862068966,-0.131,0.943,0.314
106352,1755604152281,8.25,71.32,-5.06,811,842,815,363,852,33.333333333333336,-0.132,0.944,0.318
106381,1755604152284,8.28,71.34,-5.08,798,848,813,407,845,34.48275862068966,-0.133,0.945,0.321
106410,1755604152285,8.29,71.41,-5.09,814,848,809,393,858,34.48275862068966,-0.133,0.946,0.319
106440,1755604152294,8.29,71.34,-5.1,802,838,808,357,858,33.333333333333336,-0.131,0.943,0.317
106470,1755604152323,8.27,71.3,-5.07,808,846,811,353,847,33.333333333333336,-0.13,0.942,0.318
106499,1755604152352,8.24,71.41,-5.09,806,846,803,396,863,34.48275862068966,-0.131,0.946,0.321
106529,1755604152382,8.27,71.48,-5.14,798,848,816,404,852,33.333333333333336,-0.132,0.946,0.32
106558,1755604152412,8.29,71.45,-5.12,804,858,812,355,851,34.48275862068966,-0.132,0.941,0.315
106588,1755604152441,8.28,71.39,-5.09,805,839,811,347,853,33.333333333333336,-0.13,0.944,0.317
106617,1755604152471,8.28,71.45,-5.11,802,840,813,357,854,34.48275862068966,-0.13,0.949,0.319
106647,1755604152500,8.29,71.49,-5.14,806,844,808,393,853,33.333333333333336,-0.13,0.946,0.318
106676,1755604152529,8.26,71.53,-5.1,800,840,813,394,858,34.48275862068966,-0.129,0.942,0.316
106706,1755604152559,8.25,71.52,-5.1,799,841,815,347,845,33.333333333333336,-0.131,0.944,0.315
106735,1755604152589,8.26,71.47,-5.12,807,839,815,353,851,34.48275862068966,-0.131,0.945,0.314
106765,1755604152619,8.25,71.49,-5.14,803,846,813,389,847,33.333333333333336,-0.131,0.944,0.316
106795,1755604152648,8.28,71.5,-5.14,800,846,815,359,846,33.333333333333336,-0.132,0.944,0.315
106824,1755604152677,8.26,71.46,-5.11,801,844,810,359,853,34.48275862068966,-0.13,0.944,0.314
106854,1755604152707,8.2,71.46,-5.1,802,840,814,340,859,33.333333333333336,-0.129,0.946,0.317
106883,1755604152736,8.22,71.5,-5.13,805,846,808,381,846,34.48275862068966,-0.13,0.946,0.322
106912,1755604152766,8.23,71.59,-5.11,799,838,813,391,847,34.48275862068966,-0.132,0.945,0.32
106942,1755604152795,8.22,71.57,-5.09,793,847,811,368,841,33.333333333333336,-0.132,0.943,0.316
106971,1755604152824,8.22,71.56,-5.06,800,845,809,332,852,34.48275862068966,-0.13,0.942,0.318
107001,1755604152854,8.23,71.59,-5.06,800,838,809,356,858,33.333333333333336,-0.129,0.944,0.32
107030,1755604152883,8.24,71.61,-5.1,797,838,809,397,849,34.48275862068966,-0.128,0.945,0.317
107059,1755604152912,8.23,71.64,-5.07,802,845,812,400,849,34.48275862068966,-0.128,0.943,0.317
107089,1755604152942,8.19,71.68,-5.06,807,841,810,337,852,33.333333333333336,-0.127,0.945,0.315
107118,1755604152971,8.18,71.69,-5.09,807,853,809,308,848,34.48275862068966,-0.126,0.945,0.314
107147,1755604153001,8.18,71.66,-5.13,802,835,808,390,850,34.48275862068966,-0.125,0.946,0.316
107177,1755604153030,8.17,71.72,-5.13,803,837,815,396,854,33.333333333333336,-0.126,0.945,0.318
107207,1755604153060,8.18,71.74,-5.19,802,842,814,362,847,33.333333333333336,-0.126,0.945,0.316
107236,1755604153089,8.17,71.77,-5.22,804,844,813,341,844,34.48275862068966,-0.128,0.945,0.317
107265,1755604153119,8.17,71.76,-5.22,808,851,805,398,845,34.48275862068966,-0.131,0.943,0.318
107295,1755604153148,8.15,71.79,-5.16,797,838,810,395,848,33.333333333333336,-0.132,0.944,0.316
107325,1755604153178,8.14,71.75,-5.15,803,840,808,318,855,33.333333333333336,-0.129,0.945,0.313
107354,1755604153207,8.15,71.66,-5.18,802,849,813,328,856,34.48275862068966,-0.126,0.945,0.313
107383,1755604153237,8.1,71.7,-5.16,805,836,814,375,850,34.48275862068966,-0.126,0.948,0.318
107403,1755604153257,8.11,71.71,-5.18,802,845,811,370,848,50.0,-0.128,0.947,0.32
107433,1755604153286,8.14,71.77,-5.2,803,846,811,384,852,33.333333333333336,-0.13,0.949,0.318
107462,1755604153315,8.12,71.81,-5.19,801,844,814,408,849,34.48275862068966,-0.13,0.946,0.316
107492,1755604153345,8.12,71.76,-5.16,805,845,809,383,849,33.333333333333336,-0.129,0.944,0.314
107521,1755604153374,8.12,71.77,-5.16,806,836,805,346,847,34.48275862068966,-0.129,0.946,0.315
107550,1755604153404,8.13,71.81,-5.13,806,845,811,374,851,34.48275862068966,-0.129,0.947,0.317
107580,1755604153433,8.13,71.84,-5.12,802,843,806,371,848,33.333333333333336,-0.128,0.947,0.315
107609,1755604153462,8.12,71.8,-5.12,809,842,809,382,843,34.48275862068966,-0.126,0.945,0.314
107639,1755604153492,8.11,71.77,-5.1,802,845,818,329,846,33.333333333333336,-0.126,0.947,0.317
107668,1755604153521,8.1,71.83,-5.09,807,846,813,354,843,34.48275862068966,-0.127,0.947,0.316
107697,1755604153550,8.08,71.86,-5.07,805,853,812,387,854,34.48275862068966,-0.127,0.944,0.313
107727,1755604153580,8.06,71.82,-5.04,804,839,805,391,849,33.333333333333336,-0.125,0.944,0.314
107756,1755604153609,8.04,71.84,-5.02,807,844,803,310,852,34.48275862068966,-0.123,0.949,0.313
107785,1755604153638,8.03,71.89,-5.05,805,839,811,336,855,34.48275862068966,-0.122,0.947,0.315
107815,1755604153668,8.05,71.83,-5.05,806,845,811,398,843,33.333333333333336,-0.121,0.945,0.314
107844,1755604153697,8.01,71.84,-5.07,803,832,817,391,856,34.48275862068966,-0.12,0.946,0.313
107873,1755604153727,8.01,71.85,-5.12,808,840,810,355,849,34.48275862068966,-0.122,0.946,0.314
107903,1755604153756,8.03,71.86,-5.17,798,840,814,355,850,33.333333333333336,-0.124,0.945,0.315
107932,1755604153785,8.01,71.91,-5.18,805,847,809,396,849,34.48275862068966,-0.125,0.947,0.314
107961,1755604153815,8.01,71.9,-5.19,801,843,813,403,848,34.48275862068966,-0.126,0.944,0.314
107991,1755604153844,8.01,71.88,-5.2,805,845,818,365,850,33.333333333333336,-0.126,0.944,0.316
108020,1755604153874,8.0,71.9,-5.2,799,843,813,336,859,34.48275862068966,-0.127,0.947,0.316
108050,1755604153903,8.0,71.9,-5.18,799,839,819,352,850,33.333333333333336,-0.126,0.944,0.315
108079,1755604153933,7.98,71.87,-5.19,805,847,807,402,849,34.48275862068966,-0.124,0.944,0.315
108109,1755604153962,7.96,71.92,-5.18,798,849,809,373,850,33.333333333333336,-0.122,0.947,0.316
108138,1755604153991,7.92,71.93,-5.2,809,848,815,334,844,34.48275862068966,-0.12,0.948,0.313
108168,1755604154021,7.88,71.85,-5.27,800,846,812,361,849,33.333333333333336,-0.119,0.945,0.312
108197,1755604154050,7.77,71.79,-5.26,801,842,805,404,851,34.48275862068966,-0.12,0.945,0.316
108226,1755604154079,7.71,71.86,-5.27,808,839,803,406,851,34.48275862068966,-0.123,0.949,0.317
108256,1755604154109,7.75,71.89,-5.34,805,836,811,354,846,33.333333333333336,-0.124,0.946,0.314
108285,1755604154138,7.73,71.85,-5.33,811,844,811,363,850,34.48275862068966,-0.125,0.943,0.313
108315,1755604154168,7.73,71.84,-5.35,805,835,816,411,848,33.333333333333336,-0.125,0.945,0.316
108344,1755604154198,7.75,71.85,-5.39,805,838,811,413,853,34.48275862068966,-0.127,0.945,0.318
108373,1755604154227,7.78,71.83,-5.4,803,849,810,344,848,34.48275862068966,-0.127,0.945,0.318
108403,1755604154256,7.79,71.79,-5.41,799,848,814,346,850,33.333333333333336,-0.125,0.946,0.316
108432,1755604154286,7.78,71.79,-5.43,805,842,811,393,854,34.48275862068966,-0.124,0.945,0.318
108462,1755604154315,7.78,71.81,-5.44,803,844,811,409,848,33.333333333333336,-0.125,0.946,0.318
108491,1755604154345,7.78,71.83,-5.46,798,840,805,379,845,34.48275862068966,-0.126,0.946,0.318
108521,1755604154374,7.79,71.88,-5.45,814,850,810,350,837,33.333333333333336,-0.126,0.945,0.319
108551,1755604154404,7.79,71.89,-5.44,804,841,807,366,850,33.333333333333336,-0.125,0.946,0.316
108580,1755604154433,7.77,71.89,-5.48,799,840,812,416,848,34.48275862068966,-0.124,0.946,0.315
108609,1755604154462,7.79,71.85,-5.51,810,847,809,402,842,34.48275862068966,-0.124,0.944,0.316
108639,1755604154492,7.78,71.86,-5.5,803,847,813,354,846,33.333333333333336,-0.126,0.944,0.317
108668,1755604154521,7.77,71.9,-5.5,800,836,808,354,853,34.48275862068966,-0.126,0.945,0.316
108697,1755604154551,7.76,71.91,-5.51,804,838,812,410,842,34.48275862068966,-0.125,0.945,0.314
108727,1755604154580,7.75,71.89,-5.52,802,846,821,419,844,33.333333333333336,-0.123,0.943,0.315
108756,1755604154610,7.76,71.83,-5.54,803,852,831,370,848,34.48275862068966,-0.124,0.944,0.319
108786,1755604154639,7.74,71.85,-5.54,804,839,809,320,848,33.333333333333336,-0.125,0.945,0.318
108815,1755604154669,7.75,72.31,-5.56,800,841,808,370,849,34.48275862068966,-0.126,0.943,0.318
108845,1755604154699,7.75,72.25,-5.56,806,845,810,411,853,33.333333333333336,-0.126,0.942,0.316
108874,1755604154728,7.75,72.17,-5.56,798,842,809,378,851,34.48275862068966,-0.126,0.943,0.316
108904,1755604154757,7.72,72.28,-5.55,801,844,810,344,844,33.333333333333336,-0.125,0.945,0.322
108934,1755604154787,7.76,72.31,-5.58,801,843,810,372,845,33.333333333333336,-0.126,0.944,0.322
108963,1755604154816,7.79,72.31,-5.6,803,841,813,408,850,34.48275862068966,-0.125,0.943,0.315
108992,1755604154846,7.76,72.25,-5.6,806,846,813,389,843,34.48275862068966,-0.123,0.94,0.314
109022,1755604154875,7.75,72.18,-5.63,803,844,817,344,850,33.333333333333336,-0.124,0.944,0.315
109051,1755604154905,7.75,72.22,-5.67,814,850,808,366,845,34.48275862068966,-0.126,0.946,0.318
109081,1755604154934,7.75,72.22,-5.68,806,837,808,402,851,33.333333333333336,-0.126,0.945,0.317
109110,1755604154963,7.75,72.12,-5.71,803,842,810,396,838,34.48275862068966,-0.125,0.94,0.315
109140,1755604154993,7.74,72.07,-5.72,804,837,814,353,854,33.333333333333336,-0.126,0.943,0.317
109169,1755604155022,7.73,72.06,-5.75,806,842,809,344,844,34.48275862068966,-0.128,0.945,0.322
109199,1755604155052,7.76,72.11,-5.79,800,845,805,391,853,33.333333333333336,-0.129,0.944,0.324
