timestamp_ms,recv_timestamp_ms,pitch,roll,yaw,flex1,flex2,flex3,flex4,flex5,sampling_hz,accel_x,accel_y,accel_z
116859,1755606720631,61.49,-27.9,-0.99,799,773,836,400,867,33.333333333333336,-0.883,-0.219,0.417
116889,1755606720633,61.48,-27.89,-1.0,799,775,842,379,862,33.333333333333336,-0.883,-0.218,0.417
116918,1755606720635,61.46,-27.88,-1.02,796,774,839,338,859,34.48275862068966,-0.884,-0.22,0.418
116948,1755606720637,61.46,-27.88,-1.03,798,775,830,349,864,33.333333333333336,-0.884,-0.221,0.417
116977,1755606720640,61.46,-27.88,-1.03,796,776,834,409,864,34.48275862068966,-0.884,-0.223,0.418
117007,1755606720641,61.46,-27.89,-1.03,794,780,840,408,867,33.333333333333336,-0.884,-0.222,0.419
117037,1755606720643,61.45,-27.88,-1.03,796,775,836,364,869,33.333333333333336,-0.884,-0.221,0.419
117066,1755606720646,61.45,-27.86,-1.04,797,775,837,348,866,34.48275862068966,-0.884,-0.223,0.419
117095,1755606720647,61.46,-27.87,-1.04,794,776,838,389,866,34.48275862068966,-0.885,-0.224,0.418
117125,1755606720649,61.44,-27.87,-1.04,801,768,838,422,862,33.333333333333336,-0.884,-0.225,0.417
117145,1755606720651,61.44,-27.89,-1.04,809,774,840,380,865,50.0,-0.884,-0.225,0.417
117175,1755606720654,61.44,-27.9,-1.03,798,774,837,416,865,33.333333333333336,-0.884,-0.224,0.418
117204,1755606720656,61.47,-27.9,-1.04,799,784,839,376,857,34.48275862068966,-0.885,-0.223,0.419
117234,1755606720658,61.47,-27.89,-1.03,798,776,840,344,864,33.333333333333336,-0.884,-0.223,0.419
117264,1755606720660,61.46,-27.89,-1.02,800,775,835,353,860,33.333333333333336,-0.883,-0.224,0.418
117293,1755606720661,61.48,-27.9,-1.02,792,772,832,401,864,34.48275862068966,-0.884,-0.224,0.418
117323,1755606720664,61.47,-27.9,-1.01,794,776,832,405,861,33.333333333333336,-0.884,-0.223,0.418
117353,1755606720666,61.45,-27.92,-1.0,796,775,836,319,866,33.333333333333336,-0.884,-0.223,0.418
117382,1755606720668,61.46,-27.92,-1.0,799,774,832,321,862,34.48275862068966,-0.885,-0.224,0.418
117412,1755606720670,61.48,-27.91,-1.0,797,779,837,376,861,33.333333333333336,-0.884,-0.224,0.418
117441,1755606720672,61.49,-27.92,-0.99,798,776,840,393,867,34.48275862068966,-0.884,-0.223,0.418
117471,1755606720674,61.47,-27.92,-0.97,793,775,837,380,866,33.333333333333336,-0.883,-0.223,0.417
117501,1755606720676,61.45,-27.93,-0.96,794,775,837,346,868,33.333333333333336,-0.885,-0.224,0.418
117531,1755606720679,61.44,-27.93,-0.93,799,779,839,353,868,33.333333333333336,-0.885,-0.224,0.418
117560,1755606720681,61.43,-27.93,-0.91,793,767,837,393,861,34.48275862068966,-0.884,-0.225,0.419
117590,1755606720683,61.45,-27.94,-0.88,795,779,838,408,866,33.333333333333336,-0.883,-0.224,0.42
117619,1755606720685,61.47,-27.94,-0.87,798,776,837,369,867,34.48275862068966,-0.883,-0.223,0.419
117649,1755606720687,61.46,-27.93,-0.87,797,775,833,337,866,33.333333333333336,-0.884,-0.221,0.418
117679,1755606720689,61.45,-27.91,-0.87,797,772,841,382,865,33.333333333333336,-0.884,-0.221,0.417
117708,1755606720690,61.44,-27.93,-0.86,798,780,836,409,869,34.48275862068966,-0.885,-0.221,0.418
117738,1755606720692,61.42,-27.93,-0.86,795,779,845,381,866,33.333333333333336,-0.883,-0.221,0.418
117767,1755606720695,61.4,-27.92,-0.87,799,775,835,351,867,34.48275862068966,-0.882,-0.22,0.42
117797,1755606720697,61.4,-27.92,-0.88,796,774,837,361,868,33.333333333333336,-0.883,-0.221,0.421
117827,1755606720699,61.41,-27.9,-0.87,791,776,839,406,869,33.333333333333336,-0.884,-0.222,0.421
117856,1755606720700,61.4,-27.88,-0.87,794,782,836,422,867,34.48275862068966,-0.883,-0.223,0.42
117886,1755606720702,61.4,-27.87,-0.87,800,776,833,357,868,33.333333333333336,-0.883,-0.223,0.42
117915,1755606720704,61.4,-27.85,-0.86,797,772,833,347,864,34.48275862068966,-0.883,-0.223,0.419
117945,1755606720706,61.4,-27.86,-0.88,799,778,834,380,865,33.333333333333336,-0.883,-0.223,0.418
117975,1755606720708,61.38,-27.86,-0.87,796,771,838,406,865,33.333333333333336,-0.884,-0.223,0.418
118004,1755606720710,61.39,-27.87,-0.87,796,769,832,390,862,34.48275862068966,-0.885,-0.224,0.418
118034,1755606720713,61.36,-27.88,-0.85,799,771,842,359,867,33.333333333333336,-0.884,-0.223,0.418
118064,1755606720715,61.35,-27.88,-0.85,799,775,840,364,866,33.333333333333336,-0.884,-0.223,0.419
118094,1755606720717,61.34,-27.88,-0.85,798,777,837,416,861,33.333333333333336,-0.884,-0.223,0.42
118123,1755606720718,61.32,-27.89,-0.84,797,771,834,418,867,34.48275862068966,-0.884,-0.223,0.42
118153,1755606720721,61.35,-27.88,-0.84,797,777,836,372,867,33.333333333333336,-0.885,-0.223,0.422
118182,1755606720722,61.37,-27.86,-0.82,800,769,837,332,862,34.48275862068966,-0.883,-0.222,0.422
118212,1755606720725,61.36,-27.87,-0.82,793,770,832,373,861,33.333333333333336,-0.881,-0.221,0.421
118241,1755606720726,61.37,-27.9,-0.85,795,776,839,400,869,34.48275862068966,-0.884,-0.222,0.421
118271,1755606720728,61.38,-27.91,-0.85,797,766,840,391,863,33.333333333333336,-0.885,-0.223,0.42
118301,1755606720731,61.37,-27.91,-0.85,793,772,836,349,868,33.333333333333336,-0.884,-0.224,0.419
118330,1755606720733,61.35,-27.92,-0.84,798,779,838,356,867,34.48275862068966,-0.883,-0.225,0.42
118360,1755606720735,61.35,-27.92,-0.83,795,776,841,395,865,33.333333333333336,-0.884,-0.225,0.42
118389,1755606720738,61.35,-27.92,-0.83,793,774,837,398,862,34.48275862068966,-0.884,-0.225,0.421
118419,1755606720740,61.36,-27.89,-0.81,798,773,841,363,868,33.333333333333336,-0.884,-0.225,0.421
118448,1755606720742,61.4,-27.88,-0.8,800,774,832,328,855,34.48275862068966,-0.883,-0.226,0.42
118468,1755606720743,61.41,-27.89,-0.79,797,779,843,373,865,50.0,-0.883,-0.226,0.42
118498,1755606720746,61.43,-27.91,-0.78,797,768,836,350,864,33.333333333333336,-0.883,-0.225,0.42
118528,1755606720748,61.45,-27.88,-0.76,795,776,836,404,866,33.333333333333336,-0.883,-0.223,0.42
118557,1755606720750,61.47,-27.88,-0.76,796,775,841,435,863,34.48275862068966,-0.882,-0.221,0.419
118577,1755606720752,61.48,-27.89,-0.77,800,777,837,371,860,50.0,-0.882,-0.221,0.418
118607,1755606720754,61.47,-27.9,-0.78,799,775,836,409,865,33.333333333333336,-0.883,-0.222,0.418
118636,1755606720756,61.47,-27.91,-0.78,798,778,834,367,865,34.48275862068966,-0.885,-0.223,0.419
118666,1755606720759,61.45,-27.92,-0.76,798,776,843,334,862,33.333333333333336,-0.884,-0.223,0.419
118695,1755606720761,61.45,-27.92,-0.76,795,776,837,364,872,34.48275862068966,-0.884,-0.223,0.42
118725,1755606720762,61.46,-27.91,-0.75,799,770,839,396,866,33.333333333333336,-0.883,-0.223,0.42
118755,1755606720765,61.46,-27.91,-0.75,798,776,840,347,870,33.333333333333336,-0.884,-0.223,0.42
118784,1755606720766,61.48,-27.92,-0.75,798,774,838,324,870,34.48275862068966,-0.885,-0.224,0.419
118814,1755606720769,61.47,-27.91,-0.73,798,768,833,341,867,33.333333333333336,-0.885,-0.224,0.419
118843,1755606720771,61.49,-27.93,-0.73,799,779,838,404,867,34.48275862068966,-0.885,-0.224,0.42
118873,1755606720773,61.47,-27.92,-0.7,798,767,838,418,864,33.333333333333336,-0.885,-0.223,0.42
118903,1755606720775,61.5,-27.91,-0.7,798,775,837,374,869,33.333333333333336,-0.885,-0.223,0.42
118932,1755606720777,61.5,-27.89,-0.7,801,772,832,345,861,34.48275862068966,-0.884,-0.223,0.419
118962,1755606720779,61.51,-27.89,-0.7,797,778,837,381,867,33.333333333333336,-0.884,-0.222,0.418
118991,1755606720781,61.5,-27.9,-0.69,802,779,835,408,872,34.48275862068966,-0.885,-0.222,0.417
119021,1755606720783,61.5,-27.91,-0.68,798,773,832,388,868,33.333333333333336,-0.885,-0.222,0.418
119050,1755606720785,61.5,-27.87,-0.67,799,779,835,338,864,34.48275862068966,-0.884,-0.222,0.418
119080,1755606720787,61.51,-27.87,-0.69,796,776,835,351,866,33.333333333333336,-0.883,-0.222,0.418
119110,1755606720789,61.51,-27.88,-0.69,797,769,834,405,866,33.333333333333336,-0.885,-0.222,0.418
119139,1755606720791,61.51,-27.86,-0.68,802,783,837,414,862,34.48275862068966,-0.886,-0.223,0.417
119169,1755606720794,61.52,-27.87,-0.67,792,778,837,375,864,33.333333333333336,-0.886,-0.224,0.416
119198,1755606720796,61.51,-27.88,-0.65,799,773,841,342,866,34.48275862068966,-0.885,-0.223,0.417
119228,1755606720798,61.53,-27.9,-0.65,794,774,833,383,867,33.333333333333336,-0.885,-0.223,0.417
119258,1755606720800,61.52,-27.9,-0.64,800,768,841,401,862,33.333333333333336,-0.885,-0.223,0.417
119287,1755606720802,61.53,-27.89,-0.63,794,774,838,387,866,34.48275862068966,-0.885,-0.222,0.417
119317,1755606720804,61.52,-27.89,-0.62,797,767,835,343,867,33.333333333333336,-0.884,-0.223,0.417
119347,1755606720806,61.53,-27.93,-0.61,798,767,851,337,863,33.333333333333336,-0.885,-0.224,0.416
119376,1755606720808,61.55,-27.95,-0.59,795,770,837,414,863,34.48275862068966,-0.886,-0.224,0.417
119406,1755606720811,61.55,-27.94,-0.56,798,778,836,417,888,33.333333333333336,-0.885,-0.223,0.417
119436,1755606720812,61.58,-27.92,-0.55,797,779,845,366,873,33.333333333333336,-0.885,-0.222,0.417
119456,1755606720814,61.57,-27.91,-0.54,796,772,833,411,865,50.0,-0.884,-0.221,0.417
119485,1755606720817,61.57,-27.92,-0.54,796,776,839,361,864,34.48275862068966,-0.884,-0.222,0.417
119515,1755606720819,61.58,-27.92,-0.53,795,776,837,338,865,33.333333333333336,-0.885,-0.223,0.416
119544,1755606720821,61.57,-27.91,-0.52,794,776,838,374,864,34.48275862068966,-0.885,-0.223,0.415
119574,1755606720822,61.56,-27.91,-0.5,802,775,839,401,867,33.333333333333336,-0.885,-0.222,0.415
119604,1755606720824,61.55,-27.92,-0.5,797,776,836,373,861,33.333333333333336,-0.884,-0.221,0.415
119633,1755606720826,61.53,-27.91,-0.5,793,777,827,329,865,34.48275862068966,-0.885,-0.22,0.417
119663,1755606720828,61.53,-27.9,-0.5,792,768,837,350,863,33.333333333333336,-0.885,-0.221,0.417
119692,1755606720831,61.53,-27.88,-0.5,797,774,840,404,874,34.48275862068966,-0.884,-0.222,0.416
119722,1755606720833,61.54,-27.89,-0.5,791,775,838,412,867,33.333333333333336,-0.885,-0.223,0.416
119752,1755606720834,61.55,-27.92,-0.5,794,773,834,353,865,33.333333333333336,-0.885,-0.223,0.416
119781,1755606720836,61.56,-27.92,-0.5,796,775,833,339,867,34.48275862068966,-0.885,-0.221,0.417
119810,1755606720839,61.57,-27.91,-0.51,799,775,832,388,863,34.48275862068966,-0.885,-0.221,0.417
119840,1755606720841,61.57,-27.9,-0.51,798,773,836,412,866,33.333333333333336,-0.885,-0.221,0.417
119870,1755606720843,61.58,-27.9,-0.51,797,777,839,381,873,33.333333333333336,-0.885,-0.221,0.417
119899,1755606720845,61.58,-27.89,-0.52,799,774,832,331,862,34.48275862068966,-0.885,-0.221,0.416
119929,1755606720847,61.57,-27.91,-0.52,797,774,838,347,866,33.333333333333336,-0.885,-0.223,0.416
119959,1755606720849,61.58,-27.94,-0.53,796,776,831,404,861,33.333333333333336,-0.885,-0.224,0.416
119988,1755606720851,61.61,-27.95,-0.52,798,780,837,395,861,34.48275862068966,-0.885,-0.224,0.417
120018,1755606720853,61.62,-27.96,-0.52,799,773,836,342,861,33.333333333333336,-0.885,-0.223,0.416
120047,1755606720855,61.61,-27.95,-0.52,795,768,837,346,873,34.48275862068966,-0.886,-0.222,0.416
120077,1755606720857,61.6,-27.93,-0.51,797,765,838,396,866,33.333333333333336,-0.885,-0.221,0.416
120107,1755606720859,61.57,-27.96,-0.52,795,768,833,414,863,33.333333333333336,-0.885,-0.222,0.415
120136,1755606720861,61.54,-27.97,-0.52,799,774,839,339,867,34.48275862068966,-0.885,-0.223,0.416
120166,1755606720863,61.56,-27.98,-0.52,793,774,838,335,865,33.333333333333336,-0.885,-0.224,0.417
120195,1755606720864,61.56,-27.98,-0.52,794,769,838,341,865,34.48275862068966,-0.885,-0.224,0.418
120216,1755606720867,61.57,-27.98,-0.51,794,775,838,362,865,47.61904761904762,-0.884,-0.225,0.417
120246,1755606720868,61.58,-27.98,-0.5,797,776,838,382,868,33.333333333333336,-0.884,-0.225,0.417
120275,1755606720871,61.57,-27.99,-0.48,794,775,837,415,866,34.48275862068966,-0.884,-0.225,0.417
120305,1755606720873,61.57,-27.99,-0.47,799,778,842,421,865,33.333333333333336,-0.884,-0.224,0.416
120335,1755606720875,61.57,-27.98,-0.46,795,774,842,382,900,33.333333333333336,-0.885,-0.224,0.417
120364,1755606720877,61.56,-27.98,-0.46,795,776,832,360,892,34.48275862068966,-0.884,-0.223,0.417
120394,1755606720879,61.55,-27.96,-0.45,794,784,834,390,862,33.333333333333336,-0.885,-0.224,0.418
120424,1755606720881,61.56,-27.97,-0.44,797,768,835,421,867,33.333333333333336,-0.885,-0.224,0.417
120453,1755606720883,61.56,-27.97,-0.43,796,777,837,398,871,34.48275862068966,-0.886,-0.224,0.417
120483,1755606720885,61.56,-27.98,-0.42,801,768,837,355,861,33.333333333333336,-0.885,-0.224,0.416
120512,1755606720886,61.55,-27.96,-0.41,797,773,839,322,861,34.48275862068966,-0.885,-0.223,0.417
120542,1755606720889,61.55,-27.97,-0.4,800,774,840,352,865,33.333333333333336,-0.885,-0.223,0.417
120562,1755606720891,61.55,-27.98,-0.39,799,775,835,320,859,50.0,-0.885,-0.222,0.417
120592,1755606720893,61.55,-27.97,-0.39,804,779,840,396,864,33.333333333333336,-0.884,-0.222,0.417
120621,1755606720895,61.53,-27.96,-0.38,794,776,839,355,867,34.48275862068966,-0.884,-0.222,0.416
120651,1755606720897,61.52,-27.98,-0.38,798,780,840,337,864,33.333333333333336,-0.885,-0.223,0.417
120680,1755606720899,61.51,-27.98,-0.36,799,774,835,342,863,34.48275862068966,-0.885,-0.224,0.418
120710,1755606720901,61.53,-27.97,-0.35,799,767,838,388,865,33.333333333333336,-0.885,-0.224,0.418
120739,1755606720903,61.53,-27.97,-0.34,798,780,846,418,864,34.48275862068966,-0.885,-0.223,0.418
120769,1755606720905,61.55,-27.98,-0.33,793,769,830,400,867,33.333333333333336,-0.885,-0.223,0.417
120799,1755606720907,61.55,-27.97,-0.32,796,777,838,350,869,33.333333333333336,-0.885,-0.223,0.417
120829,1755606720909,61.54,-27.97,-0.31,797,770,834,361,868,33.333333333333336,-0.885,-0.223,0.417
120858,1755606720911,61.52,-27.98,-0.3,798,776,837,411,870,34.48275862068966,-0.885,-0.223,0.417
120888,1755606720913,61.51,-27.97,-0.28,797,771,841,396,863,33.333333333333336,-0.885,-0.223,0.418
120917,1755606720915,61.51,-27.97,-0.27,799,777,840,342,863,34.48275862068966,-0.885,-0.222,0.418
120947,1755606720917,61.53,-27.97,-0.27,797,774,833,349,867,33.333333333333336,-0.886,-0.222,0.419
120967,1755606720920,61.53,-27.96,-0.27,796,775,837,373,866,50.0,-0.886,-0.222,0.418
120997,1755606720922,61.52,-27.94,-0.26,796,780,832,376,865,33.333333333333336,-0.885,-0.222,0.417
121026,1755606720924,61.52,-27.96,-0.25,794,768,837,417,870,34.48275862068966,-0.886,-0.223,0.417
121056,1755606720926,61.5,-27.97,-0.22,796,784,837,431,859,33.333333333333336,-0.885,-0.223,0.417
121085,1755606720928,61.51,-27.97,-0.21,799,773,842,370,871,34.48275862068966,-0.886,-0.222,0.418
121115,1755606720930,61.51,-27.95,-0.2,799,779,837,309,862,33.333333333333336,-0.885,-0.221,0.418
121145,1755606720931,61.5,-27.92,-0.19,798,769,847,345,867,33.333333333333336,-0.884,-0.221,0.418
121174,1755606720933,61.52,-27.92,-0.19,791,768,835,390,875,34.48275862068966,-0.885,-0.222,0.418
121204,1755606720935,61.53,-27.91,-0.18,799,775,845,393,887,33.333333333333336,-0.885,-0.223,0.418
121233,1755606720937,61.55,-27.92,-0.16,792,771,841,348,863,34.48275862068966,-0.885,-0.223,0.417
121263,1755606720939,61.58,-27.96,-0.15,799,768,834,347,868,33.333333333333336,-0.885,-0.222,0.417
121292,1755606720941,61.56,-27.95,-0.12,795,773,839,391,863,34.48275862068966,-0.886,-0.22,0.417
121322,1755606720943,61.57,-27.95,-0.12,796,775,841,404,892,33.333333333333336,-0.885,-0.219,0.417
121352,1755606720945,61.57,-27.96,-0.12,798,779,838,381,860,33.333333333333336,-0.886,-0.219,0.417
121381,1755606720947,61.53,-27.94,-0.1,797,775,837,337,863,34.48275862068966,-0.887,-0.218,0.416
121411,1755606720949,61.46,-27.91,-0.08,796,773,834,384,862,33.333333333333336,-0.885,-0.218,0.416
121441,1755606720951,61.4,-27.9,-0.08,800,776,838,405,869,33.333333333333336,-0.885,-0.219,0.417
121470,1755606720953,61.38,-27.9,-0.08,799,775,839,408,866,34.48275862068966,-0.886,-0.22,0.418
121500,1755606720955,61.4,-27.9,-0.08,806,773,840,358,873,33.333333333333336,-0.886,-0.222,0.419
121520,1755606720958,61.41,-27.89,-0.08,798,773,832,413,870,50.0,-0.885,-0.222,0.419
121550,1755606720960,61.43,-27.89,-0.08,796,767,835,347,867,33.333333333333336,-0.883,-0.22,0.418
121580,1755606720961,61.42,-27.89,-0.08,793,778,840,354,867,33.333333333333336,-0.884,-0.22,0.419
121610,1755606720964,61.4,-27.88,-0.08,797,775,837,405,869,33.333333333333336,-0.885,-0.22,0.419
121639,1755606720966,61.4,-27.86,-0.08,797,773,828,430,862,34.48275862068966,-0.886,-0.221,0.418
121669,1755606720968,61.41,-27.85,-0.09,798,774,835,374,865,33.333333333333336,-0.885,-0.222,0.418
121698,1755606720970,61.4,-27.84,-0.08,795,770,840,352,865,34.48275862068966,-0.885,-0.222,0.417
121728,1755606720972,61.4,-27.84,-0.08,798,775,839,369,863,33.333333333333336,-0.885,-0.222,0.418
121758,1755606720974,61.37,-27.84,-0.07,797,773,837,409,863,33.333333333333336,-0.885,-0.222,0.418
121787,1755606720976,61.38,-27.85,-0.08,795,776,838,350,865,34.48275862068966,-0.886,-0.222,0.418
121817,1755606720978,61.42,-27.86,-0.08,793,775,840,322,859,33.333333333333336,-0.887,-0.222,0.42
121846,1755606720980,61.43,-27.84,-0.07,797,775,839,332,867,34.48275862068966,-0.885,-0.221,0.42
121876,1755606720982,61.42,-27.84,-0.08,797,770,834,396,863,33.333333333333336,-0.883,-0.219,0.418
121906,1755606720984,61.4,-27.84,-0.09,797,778,836,428,872,33.333333333333336,-0.885,-0.22,0.419
121936,1755606720987,61.43,-27.84,-0.1,798,775,840,378,864,33.333333333333336,-0.886,-0.221,0.418
121966,1755606720989,61.4,-27.81,-0.08,798,782,832,356,870,33.333333333333336,-0.885,-0.222,0.418
121995,1755606720991,61.4,-27.83,-0.09,799,778,844,369,866,34.48275862068966,-0.884,-0.222,0.419
122025,1755606720992,61.39,-27.82,-0.07,797,780,839,420,864,33.333333333333336,-0.884,-0.222,0.42
122054,1755606720994,61.42,-27.82,-0.08,796,778,843,413,860,34.48275862068966,-0.884,-0.222,0.42
122084,1755606720997,61.4,-27.78,-0.07,793,779,838,366,859,33.333333333333336,-0.884,-0.223,0.42
122113,1755606720998,61.43,-27.78,-0.07,798,772,837,354,865,34.48275862068966,-0.884,-0.224,0.419
122143,1755606721000,61.46,-27.8,-0.06,797,772,840,404,865,33.333333333333336,-0.885,-0.224,0.419
122173,1755606721003,61.47,-27.83,-0.05,793,779,834,405,866,33.333333333333336,-0.884,-0.223,0.42
129271,1755606721006,60.39,-25.03,1.08,798,776,812,398,852,0.14088475626937166,-0.875,-0.197,0.447
129301,1755606721008,60.38,-24.97,1.06,799,772,818,386,850,33.333333333333336,-0.873,-0.198,0.446
129331,1755606721010,60.38,-24.91,1.05,797,776,823,352,846,33.333333333333336,-0.874,-0.2,0.447
129360,1755606721012,60.44,-24.89,1.05,793,768,818,367,848,34.48275862068966,-0.876,-0.202,0.447
129390,1755606721014,60.46,-24.85,1.06,799,772,817,399,853,33.333333333333336,-0.876,-0.203,0.445
129419,1755606721017,60.48,-24.85,1.08,799,772,817,399,850,34.48275862068966,-0.875,-0.203,0.445
129449,1755606721018,60.54,-24.86,1.08,799,777,821,358,853,33.333333333333336,-0.876,-0.201,0.445
129479,1755606721020,60.55,-24.86,1.09,799,778,813,301,847,33.333333333333336,-0.877,-0.199,0.446
129508,1755606721022,60.58,-24.85,1.08,798,779,817,371,855,34.48275862068966,-0.877,-0.2,0.446
129538,1755606721024,60.59,-24.83,1.08,797,776,815,366,849,33.333333333333336,-0.877,-0.201,0.445
129567,1755606721027,60.6,-24.81,1.1,793,777,817,384,848,34.48275862068966,-0.878,-0.201,0.445
129597,1755606721028,60.59,-24.78,1.12,798,774,820,335,852,33.333333333333336,-0.878,-0.2,0.444
129626,1755606721031,60.63,-24.83,1.11,798,776,819,354,851,34.48275862068966,-0.878,-0.199,0.443
129656,1755606721052,60.62,-24.82,1.11,799,777,816,401,846,33.333333333333336,-0.877,-0.198,0.443
129686,1755606721082,60.65,-24.83,1.11,795,773,818,410,848,33.333333333333336,-0.878,-0.199,0.443
129715,1755606721112,60.64,-24.83,1.11,797,776,816,383,851,34.48275862068966,-0.878,-0.2,0.444
129745,1755606721141,60.66,-24.86,1.1,794,772,817,346,851,33.333333333333336,-0.877,-0.201,0.445
129774,1755606721171,60.66,-24.85,1.12,798,776,814,393,849,34.48275862068966,-0.877,-0.201,0.446
129804,1755606721200,60.71,-24.85,1.13,794,774,813,422,849,33.333333333333336,-0.878,-0.201,0.445
129833,1755606721230,60.77,-24.87,1.12,799,775,809,391,849,34.48275862068966,-0.879,-0.201,0.443
129863,1755606721260,60.78,-24.89,1.14,799,771,814,353,851,33.333333333333336,-0.879,-0.201,0.442
129893,1755606721289,60.77,-24.88,1.15,799,772,814,370,854,33.333333333333336,-0.877,-0.199,0.441
129922,1755606721318,60.76,-24.88,1.14,799,774,817,402,850,34.48275862068966,-0.878,-0.198,0.441
129952,1755606721348,60.76,-24.89,1.11,801,778,813,402,849,33.333333333333336,-0.879,-0.201,0.44
129981,1755606721378,60.78,-24.93,1.12,796,773,818,378,851,34.48275862068966,-0.88,-0.203,0.441
130011,1755606721407,60.8,-24.96,1.13,796,770,811,372,851,33.333333333333336,-0.879,-0.205,0.44
130040,1755606721437,60.82,-24.97,1.14,797,776,817,402,847,34.48275862068966,-0.88,-0.203,0.439
130070,1755606721466,60.78,-24.99,1.14,792,772,815,424,853,33.333333333333336,-0.877,-0.202,0.439
130100,1755606721496,60.83,-25.01,1.11,797,776,815,373,845,33.333333333333336,-0.88,-0.203,0.441
130129,1755606721526,60.83,-24.97,1.1,798,776,817,309,868,34.48275862068966,-0.879,-0.202,0.44
130159,1755606721555,60.83,-24.96,1.09,800,792,814,317,848,33.333333333333336,-0.878,-0.204,0.441
130189,1755606721585,60.91,-24.97,1.07,797,779,808,391,849,33.333333333333336,-0.879,-0.206,0.44
130218,1755606721614,60.95,-24.98,1.07,795,780,817,383,849,34.48275862068966,-0.88,-0.206,0.437
130247,1755606721644,60.97,-25.01,1.08,798,774,810,340,847,34.48275862068966,-0.881,-0.206,0.437
130277,1755606721673,60.95,-24.99,1.11,794,768,814,360,872,33.333333333333336,-0.879,-0.205,0.437
130306,1755606721703,60.99,-25.0,1.1,800,773,815,401,852,34.48275862068966,-0.88,-0.204,0.438
130336,1755606721732,61.01,-24.99,1.08,793,774,809,411,850,33.333333333333336,-0.881,-0.205,0.438
130366,1755606721762,61.02,-24.93,1.11,796,779,810,371,849,33.333333333333336,-0.882,-0.205,0.437
130395,1755606721792,61.03,-24.92,1.1,797,777,817,349,852,34.48275862068966,-0.879,-0.204,0.433
130425,1755606721821,61.0,-24.95,1.09,794,772,815,369,851,33.333333333333336,-0.881,-0.204,0.432
130454,1755606721850,60.95,-24.93,1.1,794,774,818,421,851,34.48275862068966,-0.882,-0.203,0.432
130484,1755606721880,60.92,-24.91,1.09,799,772,817,393,851,33.333333333333336,-0.883,-0.205,0.433
130513,1755606721910,60.87,-24.91,1.12,794,776,831,351,850,34.48275862068966,-0.883,-0.207,0.434
130543,1755606721939,60.89,-24.88,1.14,796,770,818,356,848,33.333333333333336,-0.881,-0.208,0.436
130573,1755606721969,60.93,-24.88,1.16,797,769,809,408,846,33.333333333333336,-0.881,-0.208,0.438
130602,1755606721998,60.96,-24.85,1.18,798,783,815,406,851,34.48275862068966,-0.88,-0.206,0.437
130632,1755606722028,61.0,-24.83,1.19,796,772,811,356,850,33.333333333333336,-0.881,-0.205,0.435
130661,1755606722057,61.01,-24.82,1.2,796,774,813,339,849,34.48275862068966,-0.881,-0.204,0.434
130691,1755606722087,61.02,-24.84,1.2,794,770,815,390,847,33.333333333333336,-0.881,-0.203,0.433
130720,1755606722116,60.98,-24.84,1.2,795,774,816,424,851,34.48275862068966,-0.881,-0.204,0.433
130749,1755606722146,60.97,-24.88,1.19,796,773,817,384,870,34.48275862068966,-0.88,-0.204,0.434
130779,1755606722175,60.98,-24.88,1.19,798,768,810,355,853,33.333333333333336,-0.881,-0.204,0.436
130808,1755606722205,60.99,-24.88,1.19,796,776,813,383,851,34.48275862068966,-0.881,-0.205,0.435
130838,1755606722234,61.0,-24.9,1.2,793,775,811,399,851,33.333333333333336,-0.882,-0.206,0.434
130867,1755606722264,61.01,-24.93,1.23,799,775,818,398,847,34.48275862068966,-0.882,-0.206,0.434
130897,1755606722293,61.02,-24.93,1.26,797,777,818,352,845,33.333333333333336,-0.882,-0.206,0.435
130927,1755606722323,61.04,-24.93,1.28,797,777,815,363,846,33.333333333333336,-0.882,-0.204,0.435
130956,1755606722352,61.06,-24.92,1.28,796,771,810,410,849,34.48275862068966,-0.88,-0.201,0.435
130985,1755606722382,61.07,-24.91,1.27,797,777,818,415,850,34.48275862068966,-0.879,-0.2,0.434
131015,1755606722411,61.1,-24.93,1.25,795,775,816,366,851,33.333333333333336,-0.882,-0.201,0.433
131045,1755606722442,61.09,-24.92,1.24,795,774,810,338,851,33.333333333333336,-0.882,-0.202,0.43
131074,1755606722471,61.1,-24.94,1.24,795,769,811,380,848,34.48275862068966,-0.883,-0.204,0.431
131104,1755606722500,61.09,-24.95,1.25,799,771,819,420,853,33.333333333333336,-0.881,-0.204,0.43
131133,1755606722530,61.09,-24.98,1.23,801,778,816,406,850,34.48275862068966,-0.881,-0.203,0.431
131163,1755606722559,61.09,-25.02,1.22,793,774,815,356,851,33.333333333333336,-0.881,-0.203,0.431
131192,1755606722589,61.08,-25.01,1.22,798,775,811,368,848,34.48275862068966,-0.882,-0.203,0.432
131213,1755606722609,61.08,-25.02,1.21,793,773,818,383,850,47.61904761904762,-0.882,-0.204,0.431
131242,1755606722638,61.07,-25.03,1.21,797,781,818,362,849,34.48275862068966,-0.882,-0.206,0.43
131272,1755606722668,61.08,-25.06,1.2,793,777,816,415,850,33.333333333333336,-0.883,-0.207,0.43
131301,1755606722697,61.07,-25.08,1.22,799,771,807,401,853,34.48275862068966,-0.883,-0.208,0.431
131331,1755606722727,61.07,-25.1,1.23,799,779,819,360,853,33.333333333333336,-0.882,-0.207,0.431
131360,1755606722756,61.06,-25.11,1.24,795,778,814,354,850,34.48275862068966,-0.881,-0.207,0.432
131390,1755606722786,61.08,-25.14,1.24,792,778,815,389,847,33.333333333333336,-0.882,-0.208,0.433
131419,1755606722816,61.1,-25.14,1.25,791,775,813,408,848,34.48275862068966,-0.881,-0.207,0.432
131449,1755606722845,61.1,-25.17,1.26,799,774,816,371,842,33.333333333333336,-0.881,-0.207,0.432
131478,1755606722875,61.09,-25.19,1.27,796,776,815,350,850,34.48275862068966,-0.881,-0.206,0.431
131508,1755606722904,61.11,-25.22,1.26,797,775,816,388,856,33.333333333333336,-0.883,-0.206,0.432
131537,1755606722934,61.11,-25.23,1.26,795,772,818,414,848,34.48275862068966,-0.882,-0.205,0.432
131567,1755606722963,61.11,-25.22,1.27,799,779,810,410,854,33.333333333333336,-0.881,-0.206,0.433
131596,1755606722993,61.13,-25.24,1.25,796,779,819,344,850,34.48275862068966,-0.882,-0.206,0.432
131626,1755606723022,61.12,-25.23,1.25,797,774,816,354,851,33.333333333333336,-0.882,-0.207,0.431
131656,1755606723052,61.13,-25.26,1.25,796,774,816,396,850,33.333333333333336,-0.882,-0.207,0.431
131685,1755606723081,61.11,-25.28,1.26,798,772,819,360,848,34.48275862068966,-0.883,-0.208,0.431
131715,1755606723111,61.11,-25.31,1.27,797,774,813,349,843,33.333333333333336,-0.882,-0.208,0.43
131744,1755606723141,61.11,-25.33,1.27,794,777,813,328,849,34.48275862068966,-0.881,-0.208,0.43
131774,1755606723170,61.09,-25.34,1.28,797,774,812,388,852,33.333333333333336,-0.881,-0.208,0.432
131803,1755606723199,61.12,-25.34,1.28,797,773,816,410,850,34.48275862068966,-0.881,-0.208,0.432
131832,1755606723229,61.14,-25.34,1.29,796,774,813,387,848,34.48275862068966,-0.882,-0.208,0.432
131862,1755606723258,61.13,-25.35,1.31,795,774,812,344,849,33.333333333333336,-0.881,-0.208,0.43
131892,1755606723288,61.13,-25.38,1.32,798,775,815,365,849,33.333333333333336,-0.882,-0.209,0.429
131921,1755606723317,61.11,-25.42,1.32,797,768,809,399,851,34.48275862068966,-0.881,-0.208,0.428
131951,1755606723347,61.09,-25.44,1.33,799,778,812,391,847,33.333333333333336,-0.883,-0.207,0.43
131980,1755606723376,61.09,-25.44,1.34,799,780,813,361,844,34.48275862068966,-0.883,-0.208,0.432
132010,1755606723406,61.08,-25.43,1.35,797,770,810,347,848,33.333333333333336,-0.882,-0.208,0.432
132039,1755606723436,61.09,-25.44,1.37,798,774,814,389,847,34.48275862068966,-0.881,-0.209,0.432
132069,1755606723466,61.09,-25.46,1.38,798,776,815,404,850,33.333333333333336,-0.882,-0.209,0.431
132099,1755606723495,61.1,-25.47,1.4,796,767,813,362,848,33.333333333333336,-0.882,-0.208,0.432
132128,1755606723525,61.12,-25.46,1.42,794,768,811,305,850,34.48275862068966,-0.882,-0.208,0.431
132158,1755606723554,61.12,-25.45,1.41,797,775,808,339,848,33.333333333333336,-0.881,-0.207,0.43
132188,1755606723584,61.11,-25.46,1.41,798,771,809,391,845,33.333333333333336,-0.881,-0.206,0.431
132217,1755606723613,61.08,-25.45,1.41,799,780,818,378,853,34.48275862068966,-0.88,-0.206,0.43
132247,1755606723643,61.09,-25.47,1.41,798,777,810,344,852,33.333333333333336,-0.883,-0.208,0.432
132276,1755606723672,61.09,-25.48,1.41,797,776,825,355,850,34.48275862068966,-0.883,-0.209,0.431
132306,1755606723702,61.11,-25.47,1.42,800,773,817,392,848,33.333333333333336,-0.882,-0.208,0.431
132335,1755606723732,61.09,-25.48,1.43,797,774,816,397,849,34.48275862068966,-0.88,-0.207,0.43
132365,1755606723761,61.08,-25.49,1.43,798,775,809,323,851,33.333333333333336,-0.881,-0.207,0.431
132395,1755606723791,61.09,-25.48,1.42,797,768,818,341,850,33.333333333333336,-0.882,-0.207,0.431
132424,1755606723821,61.09,-25.47,1.42,792,769,816,379,848,34.48275862068966,-0.881,-0.207,0.432
132454,1755606723850,61.11,-25.47,1.41,797,774,815,400,842,33.333333333333336,-0.88,-0.207,0.431
132483,1755606723879,61.12,-25.5,1.39,801,769,815,385,852,34.48275862068966,-0.881,-0.207,0.431
132513,1755606723909,61.11,-25.51,1.38,797,780,814,348,852,33.333333333333336,-0.881,-0.207,0.431
132542,1755606723939,61.11,-25.49,1.39,791,775,809,364,850,34.48275862068966,-0.882,-0.207,0.431
132572,1755606723968,61.14,-25.48,1.36,798,783,814,401,844,33.333333333333336,-0.882,-0.208,0.431
132601,1755606723997,61.14,-25.49,1.35,798,770,816,412,847,34.48275862068966,-0.881,-0.209,0.43
132631,1755606724027,61.17,-25.5,1.33,794,775,815,322,847,33.333333333333336,-0.882,-0.21,0.43
132660,1755606724057,61.17,-25.49,1.34,798,775,817,324,851,34.48275862068966,-0.882,-0.21,0.429
132690,1755606724086,61.19,-25.52,1.32,796,776,810,375,849,33.333333333333336,-0.882,-0.21,0.428
