timestamp_ms,recv_timestamp_ms,pitch,roll,yaw,flex1,flex2,flex3,flex4,flex5,sampling_hz,accel_x,accel_y,accel_z
158621,1755598771272,31.94,-55.23,-21.76,811,771,780,827,842,33.333333333333336,-0.524,-0.701,0.482
158651,1755598771274,31.92,-55.22,-21.74,810,772,776,833,834,33.333333333333336,-0.525,-0.7,0.482
158681,1755598771276,31.94,-55.19,-21.72,805,769,773,830,835,33.333333333333336,-0.526,-0.7,0.483
158701,1755598771278,31.9,-55.18,-21.71,805,767,774,835,847,50.0,-0.525,-0.7,0.481
158731,1755598771280,31.86,-55.19,-21.7,811,771,778,833,835,33.333333333333336,-0.525,-0.7,0.481
158751,1755598771282,31.83,-55.18,-21.7,808,767,773,828,827,50.0,-0.524,-0.699,0.481
158781,1755598771285,31.82,-55.18,-21.7,810,763,778,832,831,33.333333333333336,-0.524,-0.699,0.483
158811,1755598771287,31.81,-55.18,-21.7,804,762,773,835,837,33.333333333333336,-0.524,-0.699,0.484
158841,1755598771290,31.8,-55.16,-21.7,806,764,777,831,837,33.333333333333336,-0.524,-0.698,0.485
158861,1755598771292,31.8,-55.13,-21.71,810,767,783,826,835,50.0,-0.524,-0.698,0.484
158890,1755598771293,31.78,-55.17,-21.73,810,767,772,841,828,34.48275862068966,-0.524,-0.699,0.482
158920,1755598771296,31.76,-55.17,-21.72,808,770,775,834,828,33.333333333333336,-0.524,-0.7,0.482
158950,1755598771298,31.82,-55.17,-21.7,807,772,773,827,841,33.333333333333336,-0.524,-0.699,0.484
158980,1755598771300,31.82,-55.14,-21.7,803,765,780,833,833,33.333333333333336,-0.523,-0.697,0.485
159010,1755598771302,31.81,-55.11,-21.7,803,766,774,827,837,33.333333333333336,-0.523,-0.697,0.486
159030,1755598771304,31.81,-55.12,-21.72,804,764,769,826,840,50.0,-0.522,-0.697,0.486
159060,1755598771306,31.85,-55.1,-21.72,803,776,772,827,840,33.333333333333336,-0.524,-0.698,0.486
159090,1755598771308,31.83,-55.1,-21.72,807,761,772,827,832,33.333333333333336,-0.523,-0.698,0.485
159120,1755598771311,31.88,-55.07,-21.71,802,769,781,840,837,33.333333333333336,-0.524,-0.697,0.485
159150,1755598771313,31.89,-54.6,-21.71,808,765,773,828,831,33.333333333333336,-0.523,-0.697,0.484
159180,1755598771315,31.87,-54.68,-21.74,809,768,774,820,832,33.333333333333336,-0.524,-0.699,0.485
159209,1755598771316,31.9,-54.71,-21.73,812,776,774,832,836,34.48275862068966,-0.524,-0.7,0.485
159230,1755598771318,31.9,-54.7,-21.72,813,767,781,826,833,47.61904761904762,-0.525,-0.7,0.486
159250,1755598771320,31.9,-54.67,-21.71,811,776,766,834,832,50.0,-0.524,-0.699,0.486
159270,1755598771323,31.89,-54.68,-21.71,810,769,765,832,824,50.0,-0.522,-0.699,0.485
159300,1755598771325,31.92,-54.68,-21.71,809,776,778,821,837,33.333333333333336,-0.524,-0.699,0.484
159329,1755598771328,31.94,-54.69,-21.71,812,773,774,831,832,34.48275862068966,-0.524,-0.698,0.483
159359,1755598771329,31.93,-54.72,-21.72,810,767,777,834,837,33.333333333333336,-0.525,-0.698,0.483
159379,1755598771331,31.91,-54.74,-21.73,809,769,775,828,836,50.0,-0.524,-0.698,0.483
159409,1755598771334,31.93,-54.76,-21.74,804,768,777,830,837,33.333333333333336,-0.524,-0.697,0.484
159439,1755598771336,31.97,-54.74,-21.74,811,771,774,830,830,33.333333333333336,-0.525,-0.696,0.485
159469,1755598771338,31.97,-54.78,-21.78,808,771,777,830,835,33.333333333333336,-0.524,-0.696,0.484
159499,1755598771339,31.99,-54.78,-21.8,797,769,773,833,836,33.333333333333336,-0.525,-0.699,0.483
159529,1755598771342,32.02,-54.86,-21.81,803,768,775,831,825,33.333333333333336,-0.526,-0.701,0.479
159559,1755598771343,32.02,-54.86,-21.78,808,769,776,831,838,33.333333333333336,-0.527,-0.702,0.48
159589,1755598771346,32.07,-54.84,-21.75,810,771,780,821,832,33.333333333333336,-0.524,-0.7,0.48
159619,1755598771348,32.02,-54.88,-21.77,809,768,777,820,831,33.333333333333336,-0.522,-0.699,0.48
159648,1755598771350,31.98,-54.97,-21.78,807,763,779,824,850,34.48275862068966,-0.524,-0.701,0.48
159678,1755598771352,32.0,-55.0,-21.74,804,771,777,833,836,33.333333333333336,-0.52,-0.7,0.479
159708,1755598771354,32.06,-54.95,-21.7,808,769,772,825,833,33.333333333333336,-0.522,-0.699,0.478
159738,1755598771356,31.98,-54.97,-21.71,810,767,775,838,841,33.333333333333336,-0.521,-0.698,0.476
159768,1755598771358,31.95,-55.0,-21.71,808,770,772,832,831,33.333333333333336,-0.523,-0.699,0.478
159798,1755598771361,31.97,-55.0,-21.68,806,758,784,826,838,33.333333333333336,-0.524,-0.699,0.479
159828,1755598771363,31.92,-55.02,-21.67,804,766,783,820,836,33.333333333333336,-0.523,-0.699,0.48
159848,1755598771365,31.87,-55.03,-21.68,819,770,779,828,840,50.0,-0.523,-0.7,0.481
159878,1755598771367,31.89,-55.02,-21.67,817,768,777,751,843,33.333333333333336,-0.524,-0.7,0.481
159907,1755598771369,31.91,-54.99,-21.64,805,771,778,816,841,34.48275862068966,-0.524,-0.699,0.481
159927,1755598771372,31.91,-54.98,-21.63,808,769,775,836,849,50.0,-0.524,-0.697,0.48
159948,1755598771373,31.9,-54.98,-21.63,806,771,771,821,838,47.61904761904762,-0.524,-0.696,0.481
159978,1755598771376,31.88,-54.97,-21.64,806,766,771,803,832,33.333333333333336,-0.525,-0.697,0.48
160008,1755598771377,31.9,-54.96,-21.62,810,768,773,754,829,33.333333333333336,-0.525,-0.698,0.479
160028,1755598771379,31.91,-54.96,-21.6,807,764,773,832,839,50.0,-0.525,-0.698,0.48
160058,1755598771381,31.9,-54.94,-21.59,805,762,777,830,841,33.333333333333336,-0.524,-0.697,0.48
160087,1755598771383,31.88,-54.94,-21.61,806,772,778,826,834,34.48275862068966,-0.524,-0.697,0.48
160108,1755598771385,31.87,-54.96,-21.61,816,762,770,762,838,47.61904761904762,-0.525,-0.697,0.48
160137,1755598771388,31.88,-54.96,-21.6,806,782,768,824,838,34.48275862068966,-0.526,-0.697,0.481
160167,1755598771390,31.88,-54.97,-21.61,806,768,777,829,839,33.333333333333336,-0.526,-0.697,0.481
160197,1755598771392,31.85,-54.98,-21.61,808,755,776,836,834,33.333333333333336,-0.525,-0.698,0.481
160227,1755598771394,31.88,-54.98,-21.6,803,765,775,825,842,33.333333333333336,-0.525,-0.697,0.482
160257,1755598771396,31.89,-54.95,-21.59,806,759,778,820,837,33.333333333333336,-0.525,-0.696,0.482
160277,1755598771398,31.88,-54.94,-21.6,806,771,776,829,836,50.0,-0.524,-0.695,0.481
160307,1755598771400,31.84,-54.92,-21.61,807,774,773,831,832,33.333333333333336,-0.526,-0.697,0.482
160337,1755598771402,31.89,-54.9,-21.59,806,783,768,800,845,33.333333333333336,-0.525,-0.698,0.482
160367,1755598771404,31.88,-54.92,-21.59,804,766,780,832,819,33.333333333333336,-0.525,-0.698,0.482
160397,1755598771406,31.87,-54.94,-21.59,807,772,773,836,834,33.333333333333336,-0.525,-0.697,0.483
160417,1755598771408,31.84,-54.93,-21.6,806,764,775,829,830,50.0,-0.525,-0.697,0.484
160437,1755598771410,31.86,-54.92,-21.6,802,763,770,817,831,50.0,-0.526,-0.697,0.485
160467,1755598771412,31.87,-54.94,-21.59,809,769,776,833,841,33.333333333333336,-0.527,-0.697,0.486
160497,1755598771414,31.91,-54.93,-21.58,809,773,775,844,831,33.333333333333336,-0.526,-0.696,0.486
160527,1755598771416,31.93,-54.93,-21.61,810,776,766,755,840,33.333333333333336,-0.525,-0.695,0.486
160557,1755598771419,31.95,-54.99,-21.62,802,767,778,682,834,33.333333333333336,-0.526,-0.697,0.486
160587,1755598771421,31.96,-55.01,-21.63,811,758,765,767,845,33.333333333333336,-0.525,-0.696,0.486
160617,1755598771423,32.04,-55.05,-21.64,810,775,777,826,837,33.333333333333336,-0.526,-0.696,0.485
160646,1755598771425,32.06,-55.03,-21.65,812,762,775,755,831,34.48275862068966,-0.526,-0.697,0.483
160666,1755598771427,32.06,-55.02,-21.66,807,766,778,826,842,50.0,-0.526,-0.698,0.482
160687,1755598771430,32.04,-55.03,-21.67,809,766,766,771,830,47.61904761904762,-0.527,-0.699,0.481
160716,1755598771432,32.05,-55.0,-21.67,810,766,774,770,842,34.48275862068966,-0.527,-0.699,0.481
160746,1755598771434,32.05,-55.01,-21.67,808,767,775,772,834,33.333333333333336,-0.527,-0.698,0.481
160776,1755598771436,32.04,-54.99,-21.67,809,768,767,744,835,33.333333333333336,-0.528,-0.697,0.482
160806,1755598771438,32.05,-54.94,-21.67,809,770,773,769,840,33.333333333333336,-0.528,-0.697,0.482
160836,1755598771440,32.01,-54.89,-21.68,806,776,779,2,833,33.333333333333336,-0.527,-0.697,0.481
160866,1755598771442,31.98,-54.89,-21.68,809,769,775,756,839,33.333333333333336,-0.527,-0.698,0.481
160896,1755598771444,32.0,-54.95,-21.68,811,767,759,0,826,33.333333333333336,-0.526,-0.698,0.482
160926,1755598771446,31.99,-54.95,-21.66,801,770,779,754,834,33.333333333333336,-0.526,-0.697,0.483
160946,1755598771448,31.97,-54.96,-21.68,802,757,774,755,838,50.0,-0.526,-0.696,0.484
160966,1755598771450,31.96,-54.93,-21.68,816,774,774,722,847,50.0,-0.525,-0.696,0.484
160986,1755598771453,31.96,-54.91,-21.68,809,766,773,756,842,50.0,-0.527,-0.696,0.485
161016,1755598771455,31.97,-54.91,-21.67,808,764,777,755,830,33.333333333333336,-0.526,-0.695,0.484
161036,1755598771457,31.99,-54.92,-21.67,805,765,777,726,836,50.0,-0.527,-0.697,0.485
161066,1755598771460,31.98,-54.95,-21.67,806,765,780,738,833,33.333333333333336,-0.526,-0.698,0.483
161096,1755598771462,31.97,-54.93,-21.66,810,771,775,711,840,33.333333333333336,-0.525,-0.698,0.482
161126,1755598771464,31.99,-54.96,-21.66,802,769,775,810,836,33.333333333333336,-0.524,-0.699,0.482
161156,1755598771466,31.97,-55.0,-21.65,810,771,777,805,842,33.333333333333336,-0.524,-0.699,0.483
161176,1755598771468,31.98,-55.02,-21.65,811,766,780,805,836,50.0,-0.524,-0.698,0.484
161206,1755598771470,32.01,-55.04,-21.64,807,759,775,800,837,33.333333333333336,-0.525,-0.698,0.484
161236,1755598771472,32.01,-55.0,-21.62,803,764,775,797,834,33.333333333333336,-0.526,-0.698,0.484
161266,1755598771474,32.0,-54.95,-21.6,805,770,779,739,833,33.333333333333336,-0.525,-0.697,0.484
161295,1755598771476,31.98,-54.95,-21.6,822,768,784,0,828,34.48275862068966,-0.524,-0.696,0.483
161325,1755598771477,31.99,-54.97,-21.6,812,781,770,8,838,33.333333333333336,-0.525,-0.696,0.483
161355,1755598771479,32.02,-54.98,-21.6,799,766,780,831,839,33.333333333333336,-0.526,-0.696,0.485
161385,1755598771482,32.02,-54.96,-21.59,811,771,780,15,841,33.333333333333336,-0.526,-0.695,0.484
161415,1755598771484,31.99,-54.96,-21.61,803,779,777,831,842,33.333333333333336,-0.526,-0.694,0.484
161435,1755598771485,31.98,-54.96,-21.62,806,768,774,0,832,50.0,-0.526,-0.694,0.484
161465,1755598771487,31.96,-54.95,-21.62,813,769,775,8,831,33.333333333333336,-0.526,-0.694,0.484
161485,1755598771490,31.98,-54.95,-21.62,800,768,780,11,836,50.0,-0.526,-0.695,0.484
161515,1755598771491,31.99,-54.95,-21.61,802,772,776,823,839,33.333333333333336,-0.525,-0.696,0.484
161535,1755598771493,32.0,-54.97,-21.62,801,770,773,822,839,50.0,-0.524,-0.696,0.484
161565,1755598771495,32.02,-55.01,-21.64,810,765,772,833,837,33.333333333333336,-0.524,-0.696,0.484
161595,1755598771497,32.06,-55.01,-21.64,806,774,777,831,830,33.333333333333336,-0.526,-0.697,0.484
161625,1755598771499,32.1,-55.02,-21.64,811,769,772,830,837,33.333333333333336,-0.526,-0.698,0.483
161645,1755598771501,32.11,-55.03,-21.65,806,759,774,824,836,50.0,-0.526,-0.698,0.481
161665,1755598771503,32.12,-55.03,-21.65,806,770,775,829,827,50.0,-0.526,-0.698,0.479
161695,1755598771505,32.13,-55.04,-21.66,805,765,778,827,835,33.333333333333336,-0.528,-0.698,0.477
161725,1755598771508,32.13,-55.1,-21.66,811,766,777,824,834,33.333333333333336,-0.529,-0.697,0.479
161745,1755598771510,32.12,-55.12,-21.66,811,776,778,824,828,50.0,-0.529,-0.696,0.482
161775,1755598771512,32.13,-55.11,-21.66,813,771,775,823,837,33.333333333333336,-0.527,-0.696,0.485
161805,1755598771514,32.15,-55.09,-21.65,805,780,777,823,833,33.333333333333336,-0.527,-0.698,0.485
161834,1755598771516,32.15,-55.08,-21.64,809,767,773,829,842,34.48275862068966,-0.527,-0.698,0.483
161864,1755598771518,32.15,-55.1,-21.65,812,765,775,778,837,33.333333333333336,-0.527,-0.697,0.48
161894,1755598771519,32.12,-55.15,-21.67,808,768,775,0,831,33.333333333333336,-0.529,-0.697,0.478
161914,1755598771522,32.11,-55.2,-21.67,804,767,778,0,837,50.0,-0.53,-0.699,0.479
161944,1755598771524,32.12,-55.23,-21.63,804,767,774,833,835,33.333333333333336,-0.529,-0.7,0.48
161964,1755598771525,32.12,-55.22,-21.61,810,769,773,826,838,50.0,-0.526,-0.699,0.48
161984,1755598771527,32.09,-55.23,-21.61,805,768,777,706,833,50.0,-0.524,-0.698,0.48
162014,1755598771530,32.06,-55.25,-21.63,810,766,775,713,837,33.333333333333336,-0.525,-0.698,0.481
162044,1755598771532,32.07,-55.24,-21.62,803,767,774,719,828,33.333333333333336,-0.527,-0.698,0.481
162074,1755598771534,32.08,-55.22,-21.6,807,769,775,724,833,33.333333333333336,-0.528,-0.699,0.48
162104,1755598771536,32.05,-55.15,-21.58,808,769,780,713,839,33.333333333333336,-0.528,-0.698,0.479
162125,1755598771538,32.02,-55.13,-21.58,805,771,775,833,834,47.61904761904762,-0.527,-0.699,0.477
162145,1755598771541,32.0,-55.12,-21.58,803,762,779,770,834,50.0,-0.527,-0.701,0.477
162175,1755598771543,32.01,-55.14,-21.56,808,770,779,716,845,33.333333333333336,-0.527,-0.7,0.477
162205,1755598771545,32.02,-55.15,-21.54,805,766,776,830,840,33.333333333333336,-0.527,-0.696,0.477
162234,1755598771547,32.0,-55.14,-21.56,805,764,778,832,841,34.48275862068966,-0.526,-0.694,0.479
162264,1755598771549,31.97,-55.15,-21.58,803,764,776,823,826,33.333333333333336,-0.527,-0.694,0.483
162285,1755598771552,31.96,-55.12,-21.59,808,777,780,717,827,47.61904761904762,-0.528,-0.695,0.486
162315,1755598771554,31.97,-55.06,-21.59,813,768,777,7,834,33.333333333333336,-0.527,-0.695,0.485
162335,1755598771555,31.95,-55.03,-21.6,805,772,771,9,824,50.0,-0.526,-0.695,0.482
162365,1755598771558,31.92,-55.06,-21.63,809,766,776,818,835,33.333333333333336,-0.525,-0.693,0.48
162394,1755598771560,31.91,-55.09,-21.67,809,768,775,826,834,34.48275862068966,-0.527,-0.693,0.482
162424,1755598771562,31.86,-55.08,-21.69,810,766,778,811,836,33.333333333333336,-0.528,-0.695,0.484
162454,1755598771564,31.88,-55.08,-21.69,807,769,772,798,829,33.333333333333336,-0.526,-0.697,0.484
162484,1755598771566,31.89,-55.07,-21.69,807,770,766,825,837,33.333333333333336,-0.525,-0.697,0.482
162514,1755598771568,31.87,-55.07,-21.71,812,769,782,827,832,33.333333333333336,-0.525,-0.697,0.481
162534,1755598771569,31.84,-55.07,-21.73,807,774,779,833,838,50.0,-0.525,-0.697,0.48
162564,1755598771571,31.82,-55.1,-21.74,805,769,774,825,832,33.333333333333336,-0.526,-0.699,0.482
162594,1755598771573,31.86,-55.1,-21.72,809,770,773,814,837,33.333333333333336,-0.526,-0.7,0.483
162614,1755598771575,31.9,-55.09,-21.7,807,765,774,824,836,50.0,-0.525,-0.699,0.483
162643,1755598771578,31.91,-55.07,-21.71,806,764,772,834,837,34.48275862068966,-0.523,-0.697,0.483
162673,1755598771580,31.87,-55.04,-21.74,807,762,775,833,833,33.333333333333336,-0.523,-0.696,0.482
162703,1755598771582,31.86,-55.04,-21.76,812,764,768,833,836,33.333333333333336,-0.525,-0.698,0.482
162733,1755598771584,31.9,-55.07,-21.75,809,763,782,822,838,33.333333333333336,-0.526,-0.699,0.482
162753,1755598771586,31.91,-55.08,-21.74,802,761,774,764,831,50.0,-0.524,-0.698,0.482
162783,1755598771588,31.92,-55.11,-21.74,805,769,778,826,842,33.333333333333336,-0.524,-0.698,0.483
162813,1755598771590,31.87,-55.08,-21.76,812,770,766,825,834,33.333333333333336,-0.524,-0.697,0.483
162833,1755598771592,31.88,-55.07,-21.76,810,769,777,821,836,50.0,-0.525,-0.698,0.484
162863,1755598771594,31.9,-55.06,-21.75,809,765,777,819,839,33.333333333333336,-0.525,-0.698,0.484
162893,1755598771596,31.89,-55.07,-21.76,817,765,781,815,831,33.333333333333336,-0.525,-0.698,0.483
162923,1755598771598,31.88,-55.07,-21.77,806,766,780,817,821,33.333333333333336,-0.524,-0.699,0.482
162953,1755598771600,31.86,-55.05,-21.76,805,772,774,814,823,33.333333333333336,-0.524,-0.7,0.483
162982,1755598771602,31.87,-55.0,-21.74,807,770,777,820,834,34.48275862068966,-0.525,-0.7,0.484
163003,1755598771605,31.87,-54.98,-21.72,812,767,784,816,832,47.61904761904762,-0.524,-0.699,0.484
163033,1755598771607,31.85,-54.95,-21.71,806,768,778,832,836,33.333333333333336,-0.523,-0.697,0.486
163063,1755598771609,31.86,-54.93,-21.72,801,760,775,817,844,33.333333333333336,-0.524,-0.696,0.486
163092,1755598771611,31.87,-54.93,-21.72,805,762,778,820,850,34.48275862068966,-0.524,-0.696,0.487
163113,1755598771612,31.87,-54.91,-21.72,806,767,775,770,839,47.61904761904762,-0.525,-0.696,0.487
163142,1755598771616,31.85,-54.89,-21.72,810,765,779,811,823,34.48275862068966,-0.524,-0.697,0.487
163172,1755598771618,31.85,-54.89,-21.73,808,775,774,771,832,33.333333333333336,-0.524,-0.696,0.486
163202,1755598771620,31.84,-54.88,-21.74,807,770,790,828,834,33.333333333333336,-0.524,-0.695,0.487
163222,1755598771621,31.85,-54.89,-21.73,800,765,779,830,827,50.0,-0.525,-0.696,0.487
163252,1755598771624,31.84,-54.92,-21.73,803,774,780,817,842,33.333333333333336,-0.524,-0.696,0.487
163273,1755598771626,31.85,-54.91,-21.73,807,769,774,809,834,47.61904761904762,-0.525,-0.696,0.488
163303,1755598771628,31.83,-54.9,-21.73,811,765,761,828,830,33.333333333333336,-0.524,-0.696,0.489
163323,1755598771630,31.83,-54.9,-21.72,807,764,764,789,828,50.0,-0.524,-0.696,0.489
163353,1755598771632,31.84,-54.91,-21.73,803,783,780,819,832,33.333333333333336,-0.524,-0.696,0.49
163373,1755598771633,31.81,-54.9,-21.73,809,765,778,830,828,50.0,-0.523,-0.696,0.489
163403,1755598771636,31.8,-54.89,-21.73,807,768,783,775,843,33.333333333333336,-0.524,-0.697,0.488
163433,1755598771638,31.82,-54.88,-21.72,807,774,770,835,833,33.333333333333336,-0.525,-0.697,0.489
163453,1755598771639,31.83,-54.84,-21.71,812,766,771,834,842,50.0,-0.525,-0.697,0.492
163483,1755598771642,31.78,-54.72,-21.7,809,770,771,829,836,33.333333333333336,-0.524,-0.696,0.491
163513,1755598771644,31.76,-54.77,-21.71,809,771,769,827,838,33.333333333333336,-0.524,-0.696,0.488
163533,1755598771647,31.76,-54.81,-21.71,799,782,776,5,834,50.0,-0.524,-0.696,0.487
163553,1755598771649,31.77,-54.83,-21.71,809,762,776,820,828,50.0,-0.524,-0.695,0.486
163583,1755598771651,31.78,-54.85,-21.7,808,771,776,828,833,33.333333333333336,-0.524,-0.696,0.489
163613,1755598771653,31.76,-54.85,-21.69,807,773,774,835,833,33.333333333333336,-0.522,-0.695,0.491
163643,1755598771655,31.76,-54.83,-21.69,809,758,777,808,825,33.333333333333336,-0.522,-0.695,0.493
163672,1755598771657,31.79,-54.82,-21.69,810,770,769,2,838,34.48275862068966,-0.522,-0.695,0.492
163702,1755598771659,31.77,-54.8,-21.7,808,767,773,848,837,33.333333333333336,-0.521,-0.693,0.489
163732,1755598771661,31.76,-54.8,-21.72,808,772,772,833,831,33.333333333333336,-0.525,-0.694,0.491
163762,1755598771663,31.79,-54.8,-21.71,806,773,783,832,833,33.333333333333336,-0.526,-0.694,0.492
163792,1755598771665,31.79,-54.81,-21.7,802,762,776,829,834,33.333333333333336,-0.525,-0.694,0.492
163822,1755598771667,31.86,-54.82,-21.7,813,768,774,828,859,33.333333333333336,-0.522,-0.695,0.49
163852,1755598771669,31.79,-54.81,-21.72,807,769,779,834,836,33.333333333333336,-0.519,-0.693,0.487
163881,1755598771671,31.82,-54.86,-21.74,808,767,772,824,846,34.48275862068966,-0.524,-0.695,0.489
163911,1755598771673,31.96,-54.87,-21.72,806,770,778,743,841,33.333333333333336,-0.523,-0.695,0.489
163941,1755598771675,31.88,-54.81,-21.71,807,773,779,828,833,33.333333333333336,-0.522,-0.694,0.488
163971,1755598771677,31.85,-54.84,-21.75,804,774,778,822,843,33.333333333333336,-0.523,-0.696,0.488
164001,1755598771679,31.88,-54.87,-21.74,806,766,765,828,834,33.333333333333336,-0.522,-0.695,0.487
164031,1755598771681,31.85,-54.83,-21.72,806,773,777,826,831,33.333333333333336,-0.526,-0.696,0.489
164060,1755598771683,31.92,-54.85,-21.72,806,766,778,831,838,34.48275862068966,-0.524,-0.695,0.489
164090,1755598771685,31.88,-54.85,-21.71,810,758,774,831,838,33.333333333333336,-0.522,-0.694,0.488
164111,1755598771687,31.92,-54.87,-21.72,809,765,773,832,834,47.61904761904762,-0.523,-0.696,0.489
164141,1755598771689,31.89,-54.86,-21.71,804,768,778,800,842,33.333333333333336,-0.522,-0.695,0.488
164171,1755598771691,31.86,-54.88,-21.7,814,761,791,833,833,33.333333333333336,-0.523,-0.696,0.488
164201,1755598771694,31.87,-54.88,-21.71,803,771,772,827,838,33.333333333333336,-0.523,-0.696,0.487
164231,1755598771695,31.87,-54.89,-21.7,805,768,772,834,835,33.333333333333336,-0.523,-0.696,0.486
164261,1755598771698,31.87,-54.9,-21.69,805,763,774,831,832,33.333333333333336,-0.524,-0.696,0.488
164290,1755598771700,31.89,-54.87,-21.68,810,763,779,802,834,34.48275862068966,-0.523,-0.695,0.489
164320,1755598771702,31.87,-54.85,-21.68,808,762,776,832,832,33.333333333333336,-0.524,-0.696,0.49
164350,1755598771704,31.88,-54.86,-21.69,811,768,773,822,832,33.333333333333336,-0.525,-0.695,0.488
164380,1755598771706,31.88,-54.87,-21.69,815,762,777,686,838,33.333333333333336,-0.525,-0.695,0.485
164410,1755598771708,31.88,-54.89,-21.68,810,773,779,695,839,33.333333333333336,-0.526,-0.697,0.485
164439,1755598771710,31.87,-54.91,-21.67,808,766,769,829,834,34.48275862068966,-0.525,-0.697,0.488
164460,1755598771713,31.87,-54.91,-21.66,804,771,774,835,851,47.61904761904762,-0.524,-0.696,0.49
164489,1755598771715,31.89,-54.89,-21.66,806,762,772,828,840,34.48275862068966,-0.524,-0.696,0.49
164519,1755598771717,31.88,-54.89,-21.66,807,768,775,830,832,33.333333333333336,-0.524,-0.697,0.488
164549,1755598771719,31.87,-54.87,-21.65,810,772,779,830,837,33.333333333333336,-0.525,-0.696,0.487
164579,1755598771721,31.87,-54.88,-21.65,808,770,780,828,842,33.333333333333336,-0.526,-0.696,0.487
164609,1755598771723,31.88,-54.88,-21.64,809,772,781,822,839,33.333333333333336,-0.526,-0.695,0.488
164639,1755598771725,31.91,-54.87,-21.64,806,771,772,830,839,33.333333333333336,-0.525,-0.694,0.488
164659,1755598771727,31.91,-54.86,-21.65,817,765,782,830,833,50.0,-0.525,-0.694,0.488
164679,1755598771729,31.89,-54.86,-21.67,808,766,771,832,838,50.0,-0.524,-0.695,0.489
164709,1755598771731,31.88,-54.86,-21.68,803,769,773,8,835,33.333333333333336,-0.525,-0.696,0.488
164739,1755598771733,31.91,-54.86,-21.67,809,761,783,0,833,33.333333333333336,-0.526,-0.696,0.488
164760,1755598771736,31.93,-54.86,-21.67,809,760,777,824,831,47.61904761904762,-0.525,-0.695,0.487
164780,1755598771737,31.94,-54.86,-21.67,806,770,772,830,832,50.0,-0.525,-0.695,0.487
164800,1755598771739,31.94,-54.87,-21.68,806,766,779,828,830,50.0,-0.525,-0.694,0.487
164820,1755598771741,31.96,-54.88,-21.69,802,769,772,828,830,50.0,-0.526,-0.695,0.487
164840,1755598771743,31.98,-54.88,-21.68,809,771,781,827,835,50.0,-0.528,-0.696,0.487
164861,1755598771746,32.01,-54.85,-21.65,807,769,776,832,845,47.61904761904762,-0.529,-0.696,0.489
164881,1755598771747,32.02,-54.81,-21.63,807,771,771,828,830,50.0,-0.53,-0.697,0.491
164901,1755598771750,31.99,-54.82,-21.62,808,766,766,830,837,50.0,-0.532,-0.7,0.494
164921,1755598771752,31.95,-54.76,-21.58,804,763,776,839,836,50.0,-0.535,-0.702,0.494
164941,1755598771753,31.85,-54.71,-21.54,808,771,776,829,835,50.0,-0.534,-0.702,0.49
164961,1755598771756,31.84,-54.79,-21.48,804,767,771,833,838,50.0,-0.533,-0.701,0.489
164991,1755598771758,31.86,-54.96,-21.34,805,783,771,838,844,33.333333333333336,-0.533,-0.702,0.49
165021,1755598771760,31.65,-54.85,-21.33,803,782,778,830,883,33.333333333333336,-0.535,-0.699,0.493
165042,1755598771762,31.47,-54.69,-21.31,810,764,776,829,849,47.61904761904762,-0.527,-0.693,0.49
165062,1755598771764,31.49,-54.8,-21.28,806,768,775,838,843,50.0,-0.526,-0.691,0.484
165092,1755598771766,31.84,-54.97,-21.23,808,770,772,832,852,33.333333333333336,-0.532,-0.692,0.487
165112,1755598771768,32.02,-54.95,-21.12,812,761,773,848,857,50.0,-0.534,-0.692,0.49
165132,1755598771770,32.09,-54.9,-21.03,808,766,774,837,860,50.0,-0.534,-0.691,0.493
165152,1755598771772,31.89,-54.75,-21.06,805,765,775,841,848,50.0,-0.531,-0.693,0.498
165182,1755598771774,31.26,-54.41,-21.08,806,769,776,844,864,33.333333333333336,-0.524,-0.691,0.498
165202,1755598771776,30.9,-54.26,-21.02,810,764,773,836,860,50.0,-0.527,-0.692,0.503
165232,1755598771778,30.62,-53.97,-20.89,809,767,776,846,852,33.333333333333336,-0.53,-0.695,0.506
165252,1755598771780,30.51,-53.81,-20.86,810,767,777,841,871,50.0,-0.528,-0.695,0.51
165282,1755598771782,30.25,-53.68,-20.65,806,767,775,852,877,33.333333333333336,-0.518,-0.683,0.505
165302,1755598771784,30.33,-53.84,-20.64,809,771,778,865,876,50.0,-0.508,-0.677,0.499
165322,1755598771786,30.68,-54.12,-20.6,809,773,778,872,883,50.0,-0.514,-0.674,0.503
165352,1755598771788,31.24,-54.28,-20.41,811,772,775,885,899,33.333333333333336,-0.515,-0.671,0.499
165382,1755598771791,31.6,-54.83,-20.54,815,766,779,903,910,33.333333333333336,-0.511,-0.673,0.497
165402,1755598771793,31.61,-55.13,-20.84,815,771,782,915,917,50.0,-0.507,-0.676,0.494
165432,1755598771795,31.58,-55.37,-21.1,830,775,787,922,917,33.333333333333336,-0.524,-0.684,0.502
165452,1755598771796,31.54,-55.31,-21.18,818,768,803,927,923,50.0,-0.537,-0.693,0.512
165472,1755598771799,31.49,-55.14,-21.19,815,772,813,928,920,50.0,-0.536,-0.698,0.506
165502,1755598771801,31.11,-55.18,-21.37,819,778,845,912,920,33.333333333333336,-0.53,-0.691,0.496
165532,1755598771803,30.7,-55.33,-21.53,816,773,862,936,921,33.333333333333336,-0.527,-0.69,0.489
165562,1755598771805,30.5,-55.28,-21.59,817,765,872,933,920,33.333333333333336,-0.525,-0.689,0.49
165592,1755598771807,30.55,-55.61,-21.69,816,776,882,935,928,33.333333333333336,-0.526,-0.694,0.49
165622,1755598771809,30.5,-55.73,-21.66,817,769,885,939,928,33.333333333333336,-0.528,-0.699,0.494
165652,1755598771811,30.64,-55.71,-21.44,821,768,873,927,932,33.333333333333336,-0.527,-0.7,0.491
165672,1755598771813,30.89,-55.85,-21.17,818,768,879,925,927,50.0,-0.526,-0.7,0.489
165701,1755598771816,31.39,-56.07,-20.79,817,763,866,913,924,34.48275862068966,-0.53,-0.701,0.492
165722,1755598771818,31.52,-56.19,-20.62,816,772,865,917,909,47.61904761904762,-0.523,-0.694,0.481
165751,1755598771819,31.59,-56.24,-20.47,819,771,848,912,936,34.48275862068966,-0.526,-0.697,0.481
165781,1755598771822,31.68,-56.19,-20.39,818,771,831,908,913,33.333333333333336,-0.528,-0.701,0.482
165811,1755598771824,31.61,-56.55,-20.38,818,772,831,897,915,33.333333333333336,-0.524,-0.701,0.471
165841,1755598771826,31.58,-56.63,-20.37,824,775,814,892,916,33.333333333333336,-0.53,-0.705,0.475
165862,1755598771828,31.51,-56.41,-20.37,818,768,815,895,904,47.61904761904762,-0.531,-0.706,0.479
165883,1755598771830,31.51,-56.3,-20.41,819,770,807,893,906,47.61904761904762,-0.527,-0.701,0.477
165912,1755598771832,31.33,-56.46,-20.54,824,770,810,891,904,34.48275862068966,-0.523,-0.698,0.472
165942,1755598771834,31.28,-56.41,-20.72,820,762,797,890,909,33.333333333333336,-0.529,-0.702,0.48
165972,1755598771836,31.29,-56.08,-20.93,827,768,809,895,910,33.333333333333336,-0.53,-0.7,0.482
165992,1755598771838,31.18,-55.9,-21.02,829,767,803,893,909,50.0,-0.521,-0.696,0.471
166022,1755598771840,31.03,-55.81,-21.12,827,772,805,897,892,33.333333333333336,-0.524,-0.702,0.472
166042,1755598771842,30.99,-55.81,-21.16,829,768,805,889,900,50.0,-0.522,-0.703,0.469
166072,1755598771844,31.0,-55.84,-21.19,836,770,811,885,900,33.333333333333336,-0.52,-0.702,0.469
166102,1755598771846,31.06,-55.94,-21.23,830,768,801,890,906,33.333333333333336,-0.518,-0.703,0.468
166123,1755598771847,31.11,-55.91,-21.27,828,766,813,888,897,47.61904761904762,-0.522,-0.707,0.474
166152,1755598771850,31.38,-55.41,-21.05,826,759,801,889,892,34.48275862068966,-0.524,-0.706,0.483
166182,1755598771852,31.66,-55.27,-20.91,831,774,800,884,897,33.333333333333336,-0.52,-0.705,0.482
166212,1755598771855,31.88,-55.5,-20.86,828,769,804,881,892,33.333333333333336,-0.515,-0.701,0.474
166242,1755598771857,32.26,-55.61,-20.83,831,777,794,885,895,33.333333333333336,-0.528,-0.704,0.475
166272,1755598771858,32.48,-55.57,-20.79,832,773,796,881,897,33.333333333333336,-0.527,-0.699,0.466
166302,1755598771860,32.51,-55.84,-20.82,833,766,797,884,893,33.333333333333336,-0.528,-0.696,0.462
166332,1755598771862,32.69,-56.08,-20.81,831,767,801,888,901,33.333333333333336,-0.532,-0.7,0.465
166361,1755598771864,32.87,-56.17,-20.81,827,765,797,884,894,34.48275862068966,-0.534,-0.704,0.468
166391,1755598771866,33.01,-56.29,-20.82,825,772,788,883,896,33.333333333333336,-0.534,-0.705,0.464
166411,1755598771868,33.02,-56.33,-20.85,833,762,794,884,908,50.0,-0.537,-0.707,0.461
166441,1755598771870,33.26,-56.39,-20.76,835,767,796,889,894,33.333333333333336,-0.537,-0.706,0.457
166471,1755598771872,33.53,-56.36,-20.69,828,769,796,886,882,33.333333333333336,-0.539,-0.708,0.455
166491,1755598771874,33.64,-56.46,-20.69,834,763,793,878,898,50.0,-0.539,-0.706,0.449
166521,1755598771876,33.58,-56.58,-20.72,834,770,786,885,898,33.333333333333336,-0.537,-0.705,0.443
166551,1755598771878,33.58,-56.7,-20.75,840,771,796,877,893,33.333333333333336,-0.543,-0.706,0.447
166571,1755598771880,33.72,-56.73,-20.71,832,764,795,887,888,50.0,-0.548,-0.706,0.452
166601,1755598771882,33.75,-56.89,-20.69,828,766,794,878,894,33.333333333333336,-0.547,-0.704,0.447
166621,1755598771884,33.84,-56.93,-20.59,836,763,790,883,898,50.0,-0.547,-0.706,0.448
166651,1755598771886,33.94,-56.94,-20.59,834,773,795,889,893,33.333333333333336,-0.544,-0.705,0.444
166671,1755598771889,33.89,-56.96,-20.62,834,775,796,884,898,50.0,-0.545,-0.706,0.441
166691,1755598771891,33.89,-56.94,-20.65,838,766,792,879,916,50.0,-0.542,-0.704,0.437
